Time Stamp	Gyroscope X	Gyroscope Y	Gyroscope Z
RAW	RAW	RAW	RAW
no units	no units	no units	no units
3877445	10	123	-5
3877773	-7	104	-2
3878101	-11	117	5
3878429	-3	115	0
3878757	-1	111	-14
3879085	-12	116	-7
3879413	-20	111	4
3879741	-43	114	-1
3880069	-44	123	-1
3880397	-29	122	-4
3880725	-41	135	-13
3881053	-40	133	-14
3881381	-29	125	-18
3881709	-22	129	-21
3882037	4	109	-14
3882365	4	133	-22
3882693	-24	138	-9
3883021	-32	135	-18
3883349	-37	140	-16
3883677	-36	156	-14
3884005	-67	135	-19
3884333	-46	136	-30
3884661	-41	145	-23
3884989	-26	132	-19
3885317	-28	140	-17
3885645	-32	142	-15
3885973	-39	133	-30
3886301	-46	144	-32
3886629	-46	139	-31
3886957	-31	153	-30
3887285	-28	145	-32
3887613	-22	147	-39
3887941	-27	140	-37
3888269	-49	152	-32
3888597	-24	148	-37
3888925	-32	152	-33
3889253	-50	147	-45
3889581	-36	150	-42
3889909	-36	145	-37
3890237	-39	161	-43
3890565	-41	150	-46
3890893	-41	161	-26
3891221	-64	167	-40
3891549	-86	177	-35
3891877	-124	155	-38
3892205	-128	158	-38
3892533	-114	183	-37
3892861	-143	158	-35
3893189	-142	178	-41
3893517	-127	170	-23
3893845	-127	164	-28
3894173	-144	170	-22
3894501	-146	160	-38
3894829	-113	156	-26
3895157	-97	153	-30
3895485	-64	143	-26
3895813	-61	137	-18
3896141	-60	137	-20
3896469	-99	155	-19
3896797	-112	153	-17
3897125	-130	146	-15
3897453	-113	146	-16
3897781	-102	149	-24
3898109	-109	130	-26
3898437	-87	147	-23
3898765	-70	133	-29
3899093	-75	134	-28
3899421	-93	137	-41
3899749	-90	144	-29
3900077	-96	130	-41
3900405	-86	117	-30
3900733	-70	115	-33
3901061	-66	111	-24
3901389	-50	106	-22
3901717	-30	110	-24
3902045	-30	109	-33
3902373	-1	103	-19
3902701	-1	101	-36
3903029	19	111	-23
3903357	41	92	-26
3903685	53	102	-11
3904013	40	102	-14
3904341	37	89	-23
3904669	13	104	-26
3904997	-10	113	-18
3905325	-36	126	-27
3905653	-74	120	-31
3905981	-67	127	-20
3906309	-58	123	-24
3906637	-52	126	-25
3906965	-12	111	-15
3907293	-22	120	-22
3907621	-25	130	-28
3907949	-29	122	-11
3908277	-52	134	-14
3908605	-54	129	-13
3908933	-56	132	-12
3909261	-27	124	-22
3909589	-19	127	-12
3909917	-24	142	-21
3910245	-40	132	-26
3910573	-58	135	-19
3910901	-71	152	-30
3911229	-90	149	-37
3911557	-93	144	-33
3911885	-89	135	-44
3912213	-80	136	-27
3912541	-59	129	-31
3912869	55	101	-45
3913197	116	88	-65
3913525	108	103	-39
3913853	27	143	-42
3914181	-76	158	-33
3914509	-158	192	-34
3914837	-227	182	-44
3915165	-206	182	-44
3915493	-149	173	-56
3915821	-76	156	-63
3916149	-44	166	-55
3916477	-59	133	-61
3916805	-47	150	-63
3917133	-35	182	-54
3917461	-49	171	-63
3917789	-89	177	-47
3918117	-117	174	-57
3918445	-131	181	-64
3918773	-142	191	-50
3919101	-143	183	-62
3919429	-166	198	-77
3919757	-156	187	-94
3920085	-151	194	-86
3920413	-148	187	-88
3920741	-156	189	-94
3921069	-164	182	-88
3921397	-189	196	-100
3921725	-193	189	-110
3922053	-171	177	-110
3922381	-122	201	-105
3922709	-129	176	-116
3923037	-154	169	-118
3923365	-139	188	-120
3923693	-146	192	-118
3924021	-136	173	-124
3924349	-87	164	-131
3924677	-65	164	-131
3925005	-28	156	-136
3925333	-29	138	-139
3925661	-22	135	-155
3925989	-16	134	-152
3926317	-23	132	-157
3926645	-16	131	-167
3926973	-31	152	-164
3927301	-49	115	-178
3927629	-64	115	-179
3927957	-96	140	-170
3928285	-173	145	-154
3928613	-258	170	-162
3928941	-353	176	-151
3929269	-417	195	-155
3929597	-460	187	-160
3929925	-479	193	-161
3930253	-463	202	-151
3930581	-430	203	-159
3930909	-427	183	-159
3931237	-402	182	-153
3931565	-363	189	-144
3931893	-354	190	-156
3932221	-344	173	-143
3932549	-338	198	-132
3932877	-342	185	-117
3933205	-289	185	-93
3933533	-245	177	-83
3933861	-158	187	-55
3934189	-81	166	-20
3934517	-15	170	9
3934845	53	182	40
3935173	97	196	61
3935501	137	188	79
3935829	178	185	111
3936157	223	161	110
3936485	246	164	125
3936813	291	170	139
3937141	308	176	154
3937469	291	183	135
3937797	281	164	137
3938125	271	192	140
3938453	194	74	129
3938781	286	172	124
3939109	295	172	97
3939437	272	144	107
3939765	253	176	95
3940093	193	158	87
3940421	122	177	82
3940749	79	191	79
3941077	42	195	64
3941405	14	179	64
3941733	-8	199	52
3942061	-22	189	49
3942389	-45	200	61
3942717	-70	202	54
3943045	-84	194	41
3943373	-56	201	45
3943701	-31	200	50
3944029	-5	177	40
3944357	19	172	42
3944685	20	183	50
3945013	-10	184	51
3945341	-53	193	65
3945669	-90	193	58
3945997	-94	177	60
3946325	-86	187	57
3946653	-47	172	38
3946981	-10	181	29
3947309	29	161	31
3947637	28	159	19
3947965	39	149	19
3948293	51	148	19
3948621	86	135	-3
3948949	97	125	6
3949277	125	125	-6
3949605	143	113	-5
3949933	167	106	-12
3950261	154	105	-20
3950589	145	118	-20
3950917	117	115	-44
3951245	108	136	-28
3951573	68	159	-36
3951901	43	153	-52
3952229	18	143	-53
3952557	-6	165	-75
3952885	20	151	-65
3953213	60	140	-75
3953541	68	126	-85
3953869	97	140	-77
3954197	61	147	-74
3954525	-12	168	-60
3954853	-85	192	-52
3955181	-133	186	-47
3955509	-112	176	-67
3955837	-55	187	-81
3956165	-4	163	-86
3956493	53	150	-90
3956821	74	161	-108
3957149	47	157	-129
3957477	-33	158	-141
3957805	-92	142	-158
3958133	-119	132	-181
3958461	-117	134	-201
3958789	-88	140	-211
3959117	-79	109	-226
3959445	-68	121	-221
3959773	-65	131	-225
3960101	-67	103	-216
3960429	-60	126	-186
3960757	-55	118	-167
3961085	-1	135	-136
3961413	34	144	-113
3961741	64	148	-85
3962069	61	175	-68
3962397	7	182	-50
3962725	-113	195	-28
3963053	-228	216	-24
3963381	-308	214	-20
3963709	-325	220	-36
3964037	-306	185	-42
3964365	-261	168	-67
3964693	-206	161	-97
3965021	-147	168	-108
3965349	-113	169	-111
3965677	-116	131	-117
3966005	-128	124	-130
3966333	-122	129	-136
3966661	-99	147	-125
3966989	-33	122	-163
3967317	24	141	-163
3967645	90	106	-174
3967973	140	98	-201
3968301	148	126	-219
3968629	113	125	-218
3968957	45	129	-208
3969285	-49	127	-232
3969613	-126	132	-237
3969941	-196	140	-247
3970269	-301	256	-269
3970597	-402	188	-263
3970925	-441	220	-268
3971253	-413	198	-291
3971581	-403	192	-286
3971909	-382	202	-284
3972237	-379	183	-297
3972565	-359	191	-304
3972893	-420	203	-301
3973221	-481	193	-281
3973549	-607	240	-266
3973877	-689	234	-295
3974205	-710	248	-320
3974533	-716	241	-333
3974861	-670	243	-358
3975189	-601	217	-380
3975517	-598	174	-406
3975845	-609	175	-420
3976173	-508	372	-368
3976501	-579	166	-449
3976829	-673	162	-480
3977157	-698	201	-511
3977485	-705	186	-495
3977813	-701	180	-533
3978141	-712	175	-541
3978469	-728	129	-555
3978797	-697	145	-583
3979125	-642	147	-573
3979453	-693	119	-536
3979781	-774	131	-554
3980109	-875	157	-546
3980437	-967	170	-546
3980765	-1058	212	-536
3981093	-1074	250	-514
3981421	-1099	226	-502
3981749	-1015	211	-482
3982077	-956	186	-476
3982405	-948	141	-402
3982733	-895	211	-433
3983061	-830	200	-438
3983389	-764	188	-414
3983717	-695	154	-379
3984045	-588	177	-360
3984373	-577	121	-364
3984701	-502	120	-338
3985029	-448	137	-317
3985357	-395	104	-300
3985685	-334	103	-260
3986013	-270	83	-246
3986341	-190	70	-213
3986669	-111	66	-194
3986997	-44	39	-171
3987325	31	18	-146
3987653	105	23	-128
3987981	170	29	-111
3988309	250	-5	-98
3988637	297	-50	-78
3988965	349	-80	-74
3989293	363	-162	-72
3989621	498	-174	-63
3989949	603	-150	-52
3990277	698	-174	-10
3990605	795	-139	37
3990933	775	-117	58
3991261	758	-139	76
3991589	760	-99	97
3991917	749	-62	106
3992245	725	-26	61
3992573	744	-40	55
3992901	766	-48	70
3993229	778	-24	84
3993557	710	-12	88
3993885	646	-9	76
3994213	622	-12	87
3994541	600	27	71
3994869	592	29	67
3995197	702	4	70
3995525	702	24	66
3995853	718	-4	57
3996181	728	-7	66
3996509	682	-3	80
3996837	641	8	107
3997165	585	25	110
3997493	521	20	116
3997821	489	24	120
3998149	437	54	117
3998477	379	76	122
3998805	346	21	100
3999133	244	75	115
3999461	241	77	128
3999789	200	109	134
4000117	173	117	144
4000445	144	113	136
4000773	152	126	147
4001101	154	134	151
4001429	184	143	149
4001757	229	123	146
4002085	272	105	143
4002413	289	89	144
4002741	309	91	150
4003069	296	94	161
4003397	241	112	168
4003725	173	116	163
4004053	129	97	161
4004381	114	89	158
4004709	123	101	153
4005037	124	101	154
4005365	105	92	145
4005693	70	97	148
4006021	-1	126	161
4006349	-114	181	158
4006677	-179	185	155
4007005	-226	193	157
4007333	-235	193	168
4007661	-229	192	151
4007989	-176	197	149
4008317	-132	168	143
4008645	-56	150	151
4008973	-10	131	127
4009301	4	145	131
4009629	-18	134	119
4009957	-66	172	116
4010285	-104	167	128
4010613	-168	214	143
4010941	-185	214	138
4011269	-186	194	124
4011597	-137	195	111
4011925	-87	199	124
4012253	-62	139	129
4012581	-69	152	140
4012909	-142	160	152
4013237	-185	176	163
4013565	-221	196	163
4013893	-234	195	167
4014221	-191	154	157
4014549	-109	163	153
4014877	-49	115	154
4015205	18	105	149
4015533	32	118	142
4015861	28	91	160
4016189	3	106	148
4016517	-75	121	153
4016845	-96	127	163
4017173	-131	120	153
4017501	-144	120	147
4017829	-159	136	144
4018157	-132	128	135
4018485	-91	131	127
4018813	-81	105	118
4019141	-48	111	130
4019469	-4	97	119
4019797	16	106	109
4020125	48	92	100
4020453	50	84	96
4020781	49	88	103
4021109	43	99	93
4021437	27	89	82
4021765	33	99	86
4022093	11	79	75
4022421	-25	87	68
4022749	-51	103	69
4023077	-96	120	74
4023405	-106	110	70
4023733	-138	122	72
4024061	-84	103	50
4024389	-34	107	57
4024717	-4	94	42
4025045	23	97	52
4025373	34	79	50
4025701	58	87	45
4026029	28	106	36
4026357	19	117	42
4026685	-36	123	34
4027013	-62	142	42
4027341	-112	161	36
4027669	-129	149	14
4027997	-120	147	-2
4028325	-115	150	-1
4028653	-74	145	-17
4028981	-95	165	-19
4029309	-108	175	-33
4029637	-114	156	-32
4029965	-143	173	-22
4030293	-194	186	-36
4030621	-226	178	-53
4030949	-271	144	-80
4031277	-285	102	-77
4031605	-293	169	-67
4031933	-295	131	-74
4032261	-338	153	-70
4032589	-350	158	-93
4032917	-338	118	-96
4033245	-378	133	-85
4033573	-405	168	-77
4033901	-414	186	-85
4034229	-515	134	-98
4034557	-592	123	-81
4034885	-654	126	-84
4035213	-708	120	-86
4035541	-695	88	-94
4035869	-649	53	-96
4036197	-592	41	-97
4036525	-569	64	-90
4036853	-611	7	-64
4037181	-722	5	-44
4037509	-758	-35	-54
4037837	-734	-17	-52
4038165	-678	3	-57
4038493	-438	141	-15
4038821	-340	-47	-53
4039149	-303	-85	-33
4039477	-178	-47	-66
4039805	-131	-76	-88
4040133	-74	-106	-86
4040461	-39	-153	-99
4040789	33	-150	-110
4041117	100	-177	-98
4041445	218	-125	-35
4041773	302	-142	-11
4042101	330	-180	10
4042429	347	-158	8
4042757	311	-154	34
4043085	272	-153	8
4043413	235	-149	-8
4043741	190	-164	5
4044069	190	-167	33
4044397	154	-135	66
4044725	169	-126	123
4045053	164	-114	149
4045381	157	-130	221
4045709	216	-116	244
4046037	292	-127	264
4046365	367	-162	281
4046693	361	-253	244
4047021	233	-236	174
4047349	69	-94	169
4047677	-123	133	159
4048005	-183	148	143
4048333	-89	27	205
4048661	16	-4	158
4048989	52	-62	124
4049317	62	-66	30
4049645	-78	10	-193
4049973	-86	172	-67
4050301	210	-126	45
4050629	253	-162	-165
4050957	361	28	-112
4051285	310	-44	-49
4051613	291	-108	-57
4051941	203	-9	-68
4052269	23	42	-77
4052597	-39	77	-98
4052925	-63	42	-89
4053253	-110	75	-86
4053581	-94	131	-133
4053909	-88	139	-161
4054237	0	126	-162
4054565	49	113	-143
4054893	25	135	-142
4055221	-15	179	-120
4055549	-33	188	-78
4055877	-74	205	-47
4056205	-111	204	-42
4056533	-130	228	-52
4056861	-112	196	-28
4057189	-96	217	-40
4057517	-100	225	-48
4057845	-92	226	-56
4058173	-137	237	-74
4058501	-218	272	-65
4058829	-225	293	-73
4059157	-287	260	-85
4059485	-336	275	-103
4059813	-327	265	-113
4060141	-310	252	-132
4060469	-259	192	-127
4060797	-219	198	-127
4061125	-322	201	-158
4061453	-405	256	-155
4061781	-418	289	-131
4062109	-405	247	-135
4062437	-394	238	-144
4062765	-377	225	-125
4063093	-367	233	-127
4063421	-389	210	-138
4063749	-404	250	-125
4064077	-367	251	-117
4064405	-287	234	-99
4064733	-238	256	-94
4065061	-221	217	-62
4065389	-223	220	-53
4065717	-217	201	-36
4066045	-235	215	-25
4066373	-220	193	-21
4066701	-204	193	4
4067029	-189	167	15
4067357	-192	191	22
4067685	-221	177	20
4068013	-201	179	22
4068341	-178	179	21
4068669	-156	143	17
4068997	-154	165	2
4069325	-109	149	-1
4069653	-82	146	1
4069981	-61	152	19
4070309	-51	142	6
4070637	-57	132	16
4070965	-60	128	-3
4071293	-61	116	-1
4071621	-46	130	-1
4071949	-77	139	-13
4072277	-91	136	-14
4072605	-127	175	-20
4072933	-111	169	-24
4073261	-78	166	-29
4073589	-14	139	-33
4073917	11	157	-50
4074245	18	163	-52
4074573	3	175	-55
4074901	39	164	-56
4075229	71	123	-62
4075557	98	120	-51
4075885	81	94	-53
4076213	4	105	-31
4076541	-30	79	-27
4076869	-41	61	52
4077197	54	194	51
4077525	-66	157	165
4077853	-122	171	217
4078181	-177	156	303
4078509	-279	305	427
4078837	-219	256	490
4079165	-196	217	591
4079493	-235	311	717
4079821	-292	369	848
4080149	-399	479	947
4080477	-417	495	1078
4080805	-334	501	1232
4081133	-233	488	1264
4081461	-156	563	1295
4081789	-30	582	1352
4082117	132	781	1229
4082445	159	744	1483
4082773	223	761	1565
4083101	222	881	1528
4083429	235	897	1598
4083757	86	1050	1580
4084085	-48	1137	1667
4084413	-175	1224	1854
4084741	-356	1257	2022
4085069	-509	1280	2270
4085397	-657	1155	2603
4085725	-623	1156	2937
4086053	-509	1168	3049
4086381	-129	1256	3161
4086709	77	1312	3138
4087037	594	1203	3042
4087365	786	1046	3064
4087693	938	830	2955
4088021	744	785	3004
4088349	510	957	3293
4088677	107	885	3514
4089005	-185	1090	3376
4089333	-195	1255	3390
4089661	91	1077	3740
4089989	785	885	3915
4090317	1416	472	3808
4090645	2101	254	3793
4090973	2064	246	3698
4091301	2017	949	3431
4091629	941	1037	3500
4091957	139	588	3680
4092285	-153	74	3809
4092613	-388	241	4076
4092941	-144	523	4009
4093269	191	505	3724
4093597	420	696	3388
4093925	586	1259	2972
4094253	602	1582	3141
4094581	71	1752	3019
4094909	-473	1919	2869
4095237	-703	1440	2801
4095565	-560	960	2833
4095893	-186	858	2805
4096221	-307	1113	2367
4096549	-347	1696	2625
4096877	-1335	1820	1874
4097205	-1831	2282	1270
4097533	-2657	2015	220
4097861	-2820	1911	-645
4098189	-2608	1813	-1741
4098517	-2119	1945	-2639
4098845	-1393	1980	-3173
4099173	-362	1762	-3785
4099501	-295	1913	-4594
4099829	-246	2064	-5227
4100157	-1069	1498	-5634
4100485	-1934	1460	-5607
4100813	-2231	891	-6561
4101141	-4390	532	-6579
4101469	-6837	-834	-7854
4101797	-8180	-2791	-8109
4102125	-7571	-4557	-8282
4102453	-7879	-6949	-9335
4102781	-4913	-8036	-10503
4103109	-7721	-8757	-11932
4103437	-7325	-7564	-12456
4103765	-3632	-5893	-10856
4104093	2221	-5013	-4618
4104421	6190	-1677	2526
4104749	5988	931	4674
4105077	5152	-584	5789
4105405	4236	-667	5972
4105733	3118	-219	4865
4106061	2717	-697	2831
4106389	2723	-609	869
4106717	2364	-219	-1414
4107045	2606	78	-2640
4107373	2569	352	-4171
4107701	2128	479	-4861
4108029	929	-207	-4945
4108357	79	-165	-4885
4108685	-538	-80	-4318
4109013	-1572	-258	-3476
4109341	-2006	-477	-2718
4109669	-1720	-648	-1934
4109997	-1369	-306	-1329
4110325	-276	-158	-864
4110653	810	-159	-178
4110981	1653	-136	670
4111309	2530	-547	1681
4111637	2470	-862	2852
4111965	4235	-6496	4823
4112293	1369	7138	6157
4112621	11719	4665	11798
4112949	9590	16121	25538
4113277	-4929	15246	21427
4113605	3641	-6611	5129
4113933	486	-6400	-5739
4114261	-1700	4613	234
4114589	5237	8291	3346
4114917	5175	9297	6686
4115245	-2882	5263	6813
4115573	-5580	3839	2962
4115901	798	483	-1107
4116229	393	-1082	-1869
4116557	5454	-2442	-370
4116885	5959	713	-2004
4117213	5426	-9105	-718
4117541	4256	-9474	-1196
4117869	4935	-4455	-1080
4118197	2800	-2912	-738
4118525	-486	828	-1182
4118853	-5636	3881	-4135
4119181	-6583	3897	-5782
4119509	-6537	2949	-5566
4119837	-6507	1106	-5058
4120165	-5753	-1340	-4449
4120493	-4363	-2087	-3613
4120821	-2627	-2678	-3257
4121149	-967	-2679	-3215
4121477	623	-2426	-3446
4121805	1903	-1635	-3185
4122133	4144	-662	-2559
4122461	3728	-1331	-2357
4122789	2977	-102	-1527
4123117	1071	600	-907
4123445	449	1404	-374
4123773	-547	1235	76
4124101	-1540	1092	147
4124429	-1671	1227	137
4124757	-1843	1185	89
4125085	339	572	17
4125413	-712	1516	-274
4125741	291	-1162	-575
4126069	570	-1014	-337
4126397	605	217	-609
4126725	589	170	-1136
4127053	804	-253	-1374
4127381	581	-419	-1428
4127709	368	-533	-1477
4128037	488	-441	-1645
4128365	557	-11	-1690
4128693	74	-294	-1567
4129021	-311	203	-1569
4129349	-702	384	-1296
4129677	-752	385	-1125
4130005	-739	525	-983
4130333	-667	513	-943
4130661	-800	505	-582
4130989	-658	349	-646
4131317	-253	-239	-598
4131645	-244	-351	-502
4131973	-469	721	-519
4132301	-405	462	-533
4132629	-218	-137	-571
4132957	-149	-62	-640
4133285	-135	48	-644
4133613	-111	232	-741
4133941	-209	364	-774
4134269	-290	355	-763
4134597	-462	340	-739
4134925	-670	378	-668
4135253	-822	448	-540
4135581	-924	390	-459
4135909	-723	293	-380
4136237	-489	249	-282
4136565	-286	230	-217
4136893	-67	204	-193
4137221	71	328	-222
4137549	44	327	-213
4137877	-64	292	-241
4138205	-156	262	-299
4138533	-216	159	-335
4138861	-215	121	-313
4139189	-219	68	-304
4139517	-176	67	-279
4139845	-194	25	-268
4140173	-150	25	-210
4140501	-125	69	-191
4140829	-58	49	-142
4141157	-49	60	-162
4141485	25	118	-178
4141813	64	200	-154
4142141	72	214	-154
4142469	62	142	-140
4142797	-1	280	-140
4143125	-47	299	-127
4143453	14	223	-118
4143781	133	89	-103
4144109	299	-1	-113
4144437	445	55	-120
4144765	504	86	-89
4145093	540	86	-62
4145421	443	87	-50
4145749	257	61	-71
4146077	172	5	-85
4146405	181	68	-126
4146733	187	100	-126
4147061	180	76	-144
4147389	145	74	-148
4147717	88	74	-154
4148045	51	91	-147
4148373	-6	104	-142
4148701	-92	149	-145
4149029	-172	200	-148
4149357	-193	175	-153
4149685	-159	124	-173
4150013	-128	102	-160
4150341	-105	98	-157
4150669	-103	105	-144
4150997	-151	99	-132
4151325	-255	125	-109
4151653	-349	163	-88
4151981	-382	166	-76
4152309	-355	155	-71
4152637	-281	126	-54
4152965	-202	116	-62
4153293	-142	129	-74
4153621	-83	125	-73
4153949	-40	90	-70
4154277	-33	108	-82
4154605	-19	101	-58
4154933	-6	114	-66
4155261	-20	132	-59
4155589	-33	131	-69
4155917	-35	121	-70
4156245	-24	96	-80
4156573	9	93	-72
4156901	51	77	-70
4157229	69	56	-59
4157557	78	54	-47
4157885	51	61	-55
4158213	19	55	-60
4158541	4	49	-57
4158869	-3	72	-45
4159197	-3	68	-41
4159525	30	66	-39
4159853	104	55	-21
4160181	132	60	-13
4160509	130	49	-16
4160837	95	31	-13
4161165	30	-116	-1
4161493	93	35	3
4161821	51	11	-8
4162149	54	-43	-1
4162477	58	21	-19
4162805	61	38	-11
4163133	44	31	-23
4163461	18	2	-33
4163789	10	21	-47
4164117	-24	44	-37
4164445	-19	94	-64
4164773	-2	92	-74
4165101	31	87	-71
4165429	55	109	-71
4165757	34	136	-65
4166085	40	132	-58
4166413	37	116	-52
4166741	17	94	-52
4167069	-11	129	-56
4167397	-32	153	-61
4167725	-45	164	-62
4168053	-52	147	-57
4168381	-41	146	-55
4168709	-52	156	-53
4169037	-64	171	-41
4169365	-68	158	-43
4169693	-75	180	-32
4170021	-77	169	-24
4170349	-51	163	-22
4170677	-39	173	-29
4171005	-63	163	-16
4171333	-76	183	-22
4171661	-127	217	-21
4171989	-141	207	-33
4172317	-138	191	-17
4172645	-138	199	-18
4172973	-105	185	-23
4173301	-73	182	-34
4173629	-92	186	-36
4173957	-81	163	-19
4174285	-89	148	-28
4174613	-101	158	-27
4174941	-106	146	-36
4175269	-125	139	-30
4175597	-92	134	-31
4175925	-88	130	-22
4176253	-85	137	-27
4176581	-95	135	-46
4176909	-93	144	-40
4177237	-107	132	-35
4177565	-124	104	-54
4177893	-111	124	-41
4178221	-88	107	-51
4178549	-80	92	-37
4178877	-62	109	-39
4179205	-72	120	-46
4179533	-89	140	-39
4179861	-78	107	-40
4180189	-88	91	-42
4180517	-129	-8	-55
4180845	-51	37	-78
4181173	-72	96	-72
4181501	-69	74	-70
4181829	-84	44	-98
4182157	-114	6	-91
4182485	-137	34	-100
4182813	-121	51	-95
4183141	-83	55	-100
4183469	-42	24	-100
4183797	9	15	-93
4184125	23	18	-66
4184453	47	14	-55
4184781	66	-3	-46
4185109	29	-32	-43
4185437	26	-17	-26
4185765	12	6	-13
4186093	10	15	-4
4186421	3	48	6
4186749	-14	75	15
4187077	16	66	21
4187405	16	73	30
4187733	-4	77	39
4188061	-12	82	57
4188389	-21	93	71
4188717	-14	69	59
4189045	-6	56	62
4189373	4	74	44
4189701	-36	42	54
4190029	-6	47	46
4190357	-18	92	34
4190685	-61	80	39
4191013	-83	120	21
4191341	-83	109	0
4191669	-56	92	8
4191997	-26	96	-12
4192325	-17	102	-25
4192653	-28	104	-25
4192981	-32	92	-24
4193309	-55	93	-22
4193637	-84	115	-26
4193965	-98	105	-20
4194293	-98	99	-5
4194621	-118	110	5
4194949	-140	122	-5
4195277	-129	133	2
4195605	-156	178	5
4195933	-181	216	-2
4196261	-169	175	-16
4196589	-163	163	2
4196917	-176	164	-3
4197245	-167	167	-32
4197573	-179	163	-18
4197901	-151	142	-5
4198229	-145	134	-5
4198557	-123	144	-13
4198885	-117	158	-15
4199213	-118	166	-4
4199541	-115	147	-8
4199869	-147	139	14
4200197	-150	135	-2
4200525	-153	159	-6
4200853	-152	155	0
4201181	-151	154	-7
4201509	-149	167	-8
4201837	-122	156	-18
4202165	-102	136	-5
4202493	-69	137	-14
4202821	-56	149	-15
4203149	-70	131	1
4203477	-85	145	-4
4203805	-104	156	-18
4204133	-109	154	-21
4204461	-124	151	-37
4204789	-110	130	-40
4205117	-108	137	-40
4205445	-104	127	-59
4205773	-98	124	-54
4206101	-113	123	-54
4206429	-106	120	-41
4206757	-124	115	-56
4207085	-112	121	-67
4207413	-102	137	-62
4207741	-71	153	-59
4208069	-49	155	-64
4208397	-41	137	-61
4208725	-4	130	-48
4209053	-12	122	-45
4209381	-21	132	-37
4209709	-36	131	-30
4210037	-43	122	-27
4210365	-60	140	-33
4210693	-25	143	-39
4211021	12	136	-42
4211349	25	130	-56
4211677	18	133	-46
4212005	11	152	-38
4212333	10	155	-43
4212661	-26	153	-41
4212989	-10	160	-28
4213317	-4	156	-16
4213645	-9	151	-14
4213973	1	145	-10
4214301	-3	152	-13
4214629	-3	149	-20
4214957	-6	144	-20
4215285	-16	147	-22
4215613	-9	149	-23
4215941	9	148	-21
4216269	2	157	-27
4216597	-4	189	-16
4216925	-8	184	-17
4217253	-26	171	-17
4217581	-27	156	-22
4217909	-14	163	-19
4218237	-20	158	-27
4218565	-17	156	-25
4218893	-12	163	-13
4219221	-15	168	-11
4219549	-41	187	-4
4219877	-70	221	1
4220205	-71	217	-3
4220533	-39	209	-1
4220861	-34	207	-21
4221189	-28	201	-9
4221517	-23	215	-16
4221845	-24	201	-14
4222173	-35	201	-14
4222501	-38	192	-15
4222829	-46	211	-22
4223157	-23	200	-24
4223485	-30	208	-35
4223813	-26	205	-32
4224141	-31	209	-42
4224469	-33	205	-37
4224797	-22	205	-42
4225125	5	195	-48
4225453	28	189	-48
4225781	34	203	-38
4226109	15	210	-38
4226437	27	192	-46
4226765	37	204	-51
4227093	24	194	-51
4227421	28	181	-46
4227749	58	178	-50
4228077	44	188	-52
4228405	40	193	-67
4228733	19	192	-64
4229061	25	197	-68
4229389	6	188	-93
4229717	25	182	-107
4230045	34	179	-84
4230373	73	172	-102
4230701	92	184	-97
4231029	111	179	-106
4231357	132	179	-101
4231685	112	182	-105
4232013	114	156	-104
4232341	134	175	-100
4232669	139	155	-105
4232997	141	173	-119
4233325	161	161	-117
4233653	142	171	-117
4233981	184	175	-127
4234309	184	179	-131
4234637	177	198	-149
4234965	193	207	-141
4235293	179	214	-130
4235621	193	219	-146
4235949	190	227	-137
4236277	179	243	-151
4236605	184	231	-150
4236933	180	234	-162
4237261	149	239	-168
4237589	95	156	-156
4237917	127	243	-183
4238245	88	358	-199
4238573	83	339	-215
4238901	43	353	-224
4239229	35	383	-226
4239557	11	363	-236
4239885	19	369	-247
4240213	6	392	-258
4240541	-15	441	-260
4240869	-32	426	-301
4241197	3	359	-322
4241525	6	386	-324
4241853	18	396	-335
4242181	-73	373	-359
4242509	-164	375	-365
4242837	-374	484	-297
4243165	-618	595	-273
4243493	-788	437	-280
4243821	-820	61	-242
4244149	-630	-85	-238
4244477	-454	330	-310
4244805	-301	272	-233
4245133	-102	236	-97
4245461	-174	404	-86
4245789	-325	450	-91
4246117	-277	436	-82
4246445	-249	377	-80
4246773	-216	396	-106
4247101	-122	394	-103
4247429	-60	320	-134
4247757	-31	258	-132
4248085	50	283	-153
4248413	72	278	-142
4248741	64	276	-122
4249069	72	271	-110
4249397	48	247	-87
4249725	71	227	-69
4250053	123	203	-78
4250381	225	173	-77
4250709	356	148	-105
4251037	368	62	-103
4251365	503	126	-112
4251693	529	122	-104
4252021	455	175	-109
4252349	393	139	-102
4252677	374	143	-129
4253005	341	205	-131
4253333	303	192	-138
4253661	272	180	-131
4253989	171	198	-123
4254317	148	211	-116
4254645	99	257	-140
4254973	70	246	-152
4255301	60	276	-187
4255629	7	263	-197
4255957	-96	315	-237
4256285	-182	348	-249
4256613	-412	384	-223
4256941	-747	411	-218
4257269	-1008	498	-252
4257597	-1270	567	-277
4257925	-1381	596	-287
4258253	-1419	495	-311
4258581	-1405	470	-330
4258909	-1262	423	-378
4259237	-1150	336	-412
4259565	-860	420	-478
4259893	-689	369	-625
4260221	-542	142	-683
4260549	-222	106	-683
4260877	-185	-89	-674
4261205	-269	44	-671
4261533	-377	51	-649
4261861	-434	-41	-593
4262189	-333	-72	-581
4262517	-177	-43	-543
4262845	-29	-43	-517
4263173	177	-48	-531
4263501	392	-116	-564
4263829	618	-131	-605
4264157	1031	-381	-622
4264485	1364	-557	-673
4264813	1594	-558	-625
4265141	1667	-672	-593
4265469	1643	-517	-506
4265797	1382	-499	-399
4266125	1020	-344	-323
4266453	680	-238	-299
4266781	685	-253	-276
4267109	779	-358	-260
4267437	1002	-419	-294
4267765	1243	-418	-335
4268093	1406	-306	-383
4268421	1602	-336	-343
4268749	1735	-269	-357
4269077	1770	-264	-339
4269405	1716	-205	-269
4269733	1805	-244	-153
4270061	1908	-146	28
4270389	2081	-215	285
4270717	2228	-95	479
4271045	2069	-267	635
4271373	1943	-377	735
4271701	1872	-328	742
4272029	1844	-288	772
4272357	1854	-310	707
4272685	1937	-396	617
4273013	2682	-471	335
4273341	2993	-560	280
4273669	3191	-609	181
4273997	3013	-483	151
4274325	2729	-422	196
4274653	2175	-267	264
4274981	1257	38	397
4275309	23	116	478
4275637	-1068	325	512
4275965	-1835	489	427
4276293	-2232	618	333
4276621	-2117	561	208
4276949	-1722	429	90
4277277	-1236	279	24
4277605	-939	343	-11
4277933	-744	448	85
4278261	-832	459	238
4278589	-1055	548	284
4278917	-1340	604	286
4279245	-1450	533	174
4279573	-1550	382	114
4279901	-1695	515	16
4280229	-1933	621	-81
4280557	-2123	696	-96
4280885	-2437	680	-71
4281213	-2748	804	-69
4281541	-2904	891	-125
4281869	-2753	667	-132
4282197	-2296	480	-136
4282525	-1708	324	-97
4282853	-1281	190	-58
4283181	-791	172	-84
4283509	-574	303	-51
4283837	-690	484	-81
4284165	-503	628	-223
4284493	-393	635	-232
4284821	-204	539	-293
4285149	52	407	-375
4285477	344	188	-449
4285805	635	194	-589
4286133	904	251	-581
4286461	998	269	-611
4286789	865	290	-618
4287117	650	285	-550
4287445	496	240	-448
4287773	379	136	-396
4288101	375	63	-268
4288429	438	120	-118
4288757	357	0	-27
4289085	239	-16	80
4289413	46	78	229
4289741	-184	105	303
4290069	-339	80	383
4290397	-380	-54	426
4290725	-329	-146	443
4291053	-229	-354	437
4291381	-236	-322	458
4291709	-340	-263	472
4292037	-540	-253	454
4292365	-624	-224	484
4292693	-681	-211	494
4293021	-693	-162	478
4293349	-604	-166	516
4293677	-551	-241	545
4294005	-488	-344	586
4294333	-383	-354	613
4294661	-255	-423	636
4294989	-168	-467	662
4295317	-130	-485	703
4295645	-193	-505	709
4295973	-278	-430	701
4296301	-299	-542	708
4296629	-242	-685	729
4296957	-179	-764	752
4297285	-133	-887	795
4297613	-144	-958	832
4297941	-155	-982	878
4298269	-264	-1018	908
4298597	-430	-1057	975
4298925	-623	-899	988
4299253	-735	-906	1030
4299581	-795	-977	1057
4299909	-816	-1091	1128
4300237	-919	-1183	1206
4300565	-1022	-1262	1246
4300893	-1091	-1261	1270
4301221	-1158	-1367	1344
4301549	-1121	-1448	1413
4301877	-1062	-1492	1503
4302205	-1087	-1555	1571
4302533	-1208	-1533	1610
4302861	-1336	-1536	1654
4303189	-1384	-1578	1701
4303517	-1437	-1619	1752
4303845	-1480	-1602	1831
4304173	-1537	-1616	1874
4304501	-1653	-1679	1931
4304829	-1789	-1827	2059
4305157	-1326	-2050	2216
4305485	-1453	-1878	2234
4305813	-1584	-1530	2329
4306141	-1733	-1596	2506
4306469	-1837	-1437	2756
4306797	-2123	-942	3080
4307125	-2911	-136	3423
4307453	-3360	39	3758
4307781	-3917	420	3988
4308109	-4118	852	4147
4308437	-4108	807	4043
4308765	-4150	1276	4088
4309093	-4107	1496	4047
4309421	-3923	1388	3868
4309749	-3733	1314	3727
4310077	-3604	1116	3574
4310405	-3353	851	3429
4310733	-3308	679	3183
4311061	-3095	371	2959
4311389	-2951	-147	2534
4311717	-3056	-619	2116
4312045	-3342	-816	1751
4312373	-3981	-846	1367
4312701	-4723	-893	901
4313029	-5501	-1029	427
4313357	-6067	-1195	-86
4313685	-6370	-1588	-645
4314013	-6089	-1823	-1130
4314341	-5539	-2306	-1404
4314669	-4748	-2887	-1682
4314997	-3974	-3285	-2013
4315325	-3199	-3487	-2420
4315653	-2407	-3513	-2721
4315981	-1738	-3392	-2966
4316309	-1063	-3419	-3152
4316637	-255	-3515	-3237
4316965	754	-3686	-3124
4317293	1683	-3788	-2949
4317621	2718	-3801	-2692
4317949	3627	-3638	-2522
4318277	4352	-3361	-2213
4318605	5049	-3780	-1588
4318933	6031	-2751	-530
4319261	6882	-3204	1385
4319589	7538	-2589	2466
4319917	6983	-260	2061
4320245	4558	975	828
4320573	2636	1876	-103
4320901	218	2143	65
4321229	-1713	3144	957
4321557	-2083	3981	1651
4321885	-1495	4225	1180
4322213	-641	3684	1206
4322541	17	3239	1387
4322869	-1664	4613	1242
4323197	-2782	4495	1142
4323525	-3208	3882	1221
4323853	-2829	2734	1391
4324181	-1899	1502	1096
4324509	-47	287	821
4324837	2742	-1199	833
4325165	4090	-1240	807
4325493	4440	727	887
4325821	3966	1029	905
4326149	2175	1190	501
4326477	182	1763	153
4326805	-1222	1374	-159
4327133	-1401	1199	-379
4327461	-837	899	-501
4327789	225	336	-628
4328117	806	162	-691
4328445	914	165	-669
4328773	722	74	-599
4329101	411	159	-569
4329429	190	233	-509
4329757	-189	205	-519
4330085	-424	106	-533
4330413	-458	48	-515
4330741	-380	71	-542
4331069	-351	-28	-543
4331397	-388	-65	-595
4331725	-449	-143	-646
4332053	-556	-153	-712
4332381	-623	-216	-790
4332709	-701	-213	-854
4333037	-687	-237	-935
4333365	-655	-245	-963
4333693	-680	-420	-987
4334021	-764	-275	-1018
4334349	-868	-214	-1027
4334677	-879	-243	-1068
4335005	-809	-295	-1101
4335333	-717	-264	-1111
4335661	-655	-263	-1139
4335989	-607	-301	-1115
4336317	-552	-343	-1114
4336645	-517	-402	-1104
4336973	-219	-610	-1068
4337301	188	-1138	-1003
4337629	606	-1598	-917
4337957	1088	-2068	-1005
4338285	1095	-2097	-964
4338613	1347	-1857	-882
4338941	1317	-1255	-596
4339269	1284	-1174	-31
4339597	1078	-780	605
4339925	825	-308	1003
4340253	1041	-453	1381
4340581	993	-1055	1697
4340909	2574	-1300	2341
4341237	3650	-2042	2544
4341565	5207	-2679	2932
4341893	6797	-3347	3497
4342221	8146	-4003	3725
4342549	9150	-4586	3640
4342877	9921	-5318	3380
4343205	10872	-5749	2776
4343533	11536	-6461	2186
4343861	12069	-6722	1760
4344189	12466	-6962	1355
4344517	12720	-7122	1302
4344845	13415	-7198	1067
4345173	13802	-7353	904
4345501	14073	-7171	705
4345829	14331	-6849	611
4346157	14425	-6151	275
4346485	13803	-5657	77
4346813	13222	-4910	-87
4347141	12232	-3872	-384
4347469	11106	-2891	-885
4347797	9633	-2088	-1002
4348125	8244	-1411	-1253
4348453	7296	-834	-1248
4348781	6629	-318	-1333
4349109	6058	-210	-1584
4349437	5763	8	-1967
4349765	4894	402	-2600
4350093	4095	2746	-2926
4350421	4829	4132	-2659
4350749	4455	-620	-128
4351077	4664	-3777	1200
4351405	7517	-511	1168
4351733	8917	1426	884
4352061	7170	1955	310
4352389	3539	1816	-331
4352717	1248	636	-755
4353045	1215	-815	-959
4353373	2790	114	-878
4353701	4056	-128	-441
4354029	4914	-1060	-365
4354357	5860	-1214	-493
4354685	6476	-624	-222
4355013	6481	-427	70
4355341	5658	-526	-20
4355669	4508	-140	-75
4355997	3940	339	-47
4356325	3101	598	-63
4356653	2558	573	-209
4356981	2009	380	-88
4357309	1948	122	-101
4357637	2421	-531	-115
4357965	3275	-972	278
4358293	3743	-633	439
4358621	3460	-375	593
4358949	2538	-203	525
4359277	1477	85	314
4359605	811	361	36
4359933	576	53	-1
4360261	853	-614	106
4360589	1533	-765	368
4360917	1238	-449	867
4361245	255	-36	909
4361573	-692	303	842
4361901	-1163	452	674
4362229	-1187	658	600
4362557	-940	642	605
4362885	-849	841	591
4363213	-898	695	572
4363541	-682	478	666
4363869	-691	520	459
4364197	-673	100	439
4364525	-540	3	676
4364853	-269	141	693
4365181	-199	221	625
4365509	-492	235	561
4365837	-830	199	548
4366165	-1197	431	592
4366493	-1267	334	545
4366821	-1164	270	538
4367149	-1183	-1	555
4367477	-1057	-150	526
4367805	-932	-143	535
4368133	-970	-33	553
4368461	-1187	54	544
4368789	-1420	115	592
4369117	-1707	226	645
4369445	-1885	364	745
4369773	-2141	414	831
4370101	-2486	522	902
4370429	-2684	718	935
4370757	-2833	366	957
4371085	-3014	305	1030
4371413	-2953	171	1174
4371741	-2995	-105	1312
4372069	-3600	-490	1340
4372397	-3956	80	1257
4372725	-4095	451	1282
4373053	-4154	209	1886
4373381	-3985	-114	2551
4373709	-3725	-231	3258
4374037	-3383	-553	4267
4374365	-2675	-1864	4991
4374693	-1577	-2863	4906
4375021	-729	-3184	6080
4375349	267	-2875	7566
4375677	-95	-2191	8580
4376005	114	-1127	7746
4376333	392	905	10627
4376661	1173	-1807	7864
4376989	2300	-2409	9359
4377317	1530	-4808	10751
4377645	3678	-2171	9048
4377973	6081	1207	6205
4378301	6924	727	1389
4378629	9472	-3629	-2291
4378957	12457	-1600	-5687
4379285	12566	1568	-7776
4379613	8152	-381	-9894
4379941	5950	-861	-13032
4380269	2205	-161	-15193
4380597	-552	-1282	-17560
4380925	-538	-1080	-20163
4381253	-117	-2759	-18939
4381581	360	-3659	-19242
4381909	2082	-3109	-18675
4382237	6137	-2047	-19480
4382565	7074	-4199	-19631
4382893	9167	-5890	-19660
4383221	11043	-7954	-19819
4383549	12570	-9276	-19552
4383877	13603	-10341	-19378
4384205	12909	-11154	-18262
4384533	11585	-12556	-18090
4384861	10374	-14361	-18599
4385189	9857	-15379	-18772
4385517	9524	-15699	-17847
4385845	10183	-13805	-16571
4386173	10802	-11543	-15082
4386501	11619	-10779	-12348
4386829	12091	-10769	-9381
4387157	11329	-10020	-6317
4387485	10778	-8629	-3143
4387813	10047	-5969	-45
4388141	9499	-3543	3557
4388469	10207	-1225	6921
4388797	9326	2527	8789
4389125	7952	14604	10892
4389453	4141	16199	11485
4389781	4872	-1693	8439
4390109	1784	-4484	6069
4390437	1687	351	5885
4390765	4160	1317	7259
4391093	4375	4867	5733
4391421	5980	5175	5058
4391749	5900	3328	3268
4392077	3047	2691	4028
4392405	1654	3533	3777
4392733	625	3388	3922
4393061	567	2889	3512
4393389	727	2583	3029
4393717	974	2158	2814
4394045	1405	2493	3074
4394373	425	1751	3247
4394701	705	927	3068
4395029	899	996	2695
4395357	1239	691	2518
4395685	1293	270	2600
4396013	500	131	2256
4396341	717	-1338	1919
4396669	886	-834	2401
4396997	1227	402	2418
4397325	2193	102	2265
4397653	2778	26	2387
4397981	3441	-224	2107
4398309	2320	220	2044
4398637	2101	217	1565
4398965	2031	533	1325
4399293	1086	619	911
4399621	1421	574	843
4399949	-145	415	427
4400277	-360	25	519
4400605	-62	173	423
4400933	-43	273	153
4401261	122	345	-92
4401589	85	319	-329
4401917	-28	220	-442
4402245	-404	87	-597
4402573	-141	-362	-743
4402901	-402	-160	-691
4403229	-654	-229	-693
4403557	-818	-415	-859
4403885	-846	-399	-1000
4404213	-698	-330	-1106
4404541	-624	-296	-1208
4404869	-515	-542	-1218
4405197	-414	-760	-1255
4405525	-593	-833	-1375
4405853	-758	-840	-1447
4406181	-1285	-770	-1612
4406509	-1660	-814	-1648
4406837	-2052	-757	-1726
4407165	-2368	-808	-1832
4407493	-2275	-853	-1921
4407821	-1971	-1146	-2163
4408149	-2158	-1348	-2443
4408477	-1832	-1525	-2953
4408805	-1031	-2319	-3689
4409133	-1064	-3061	-4040
4409461	-1832	-3063	-4478
4409789	-3312	-2986	-5151
4410117	-4550	-3540	-5998
4410445	-5495	-3702	-7082
4410773	-6507	-4098	-7703
4411101	-7658	-5044	-8401
4411429	-8709	-5094	-9589
4411757	-10794	-4078	-11005
4412085	-12077	-3343	-11600
4412413	-15092	-1787	-12375
4412741	-19826	-785	-12241
4413069	-22249	-556	-11251
4413397	-22803	-1040	-8839
4413725	-21155	-263	-5409
4414053	-15391	-2951	2065
4414381	-11471	-4393	10662
4414709	-8734	-1437	15356
4415037	-9396	3635	16841
4415365	-10064	5816	18792
4415693	-10890	6237	19064
4416021	-11341	7891	18034
4416349	-9830	6645	17174
4416677	-8191	1486	16164
4417005	-7345	351	15897
4417333	-8230	4514	15346
4417661	-9801	8463	14618
4417989	-11386	10643	14861
4418317	-13482	11828	14748
4418645	-16991	10908	14408
4418973	-17162	14091	14778
4419301	-21407	13618	13253
4419629	-22168	11988	13483
4419957	-23500	10966	13061
4420285	-22542	10287	11812
4420613	-21466	9460	10257
4420941	-19228	9757	9425
4421269	-16332	9219	9886
4421597	-19595	10231	8706
4421925	-22080	10681	7394
4422253	-20223	9702	6209
4422581	-19309	8338	5533
4422909	-19301	7416	4599
4423237	-19349	7847	4407
4423565	-19845	8871	4132
4423893	-20066	9485	3626
4424221	-20438	9586	2881
4424549	-20628	9357	2481
4424877	-19817	10910	2090
4425205	-19381	11506	2726
4425533	-19556	11109	3398
4425861	-19185	10397	3663
4426189	-18948	10218	3721
4426517	-18133	10607	3645
4426845	-16923	10509	4143
4427173	-15311	9639	4034
4427501	-15407	10451	2962
4427829	-14689	10468	2378
4428157	-15169	12395	616
4428485	-14867	14575	-3193
4428813	-14811	11702	-6745
4429141	-14023	6627	-8670
4429469	-12222	11831	-7469
4429797	-8390	14461	-5171
4430125	-3604	6482	-3621
4430453	-1545	2869	1981
4430781	652	2197	3724
4431109	2642	2112	3669
4431437	2162	2021	5469
4431765	1014	1283	4249
4432093	1217	1578	3573
4432421	1083	1595	2438
4432749	373	2173	1126
4433077	-124	2863	331
4433405	-3588	903	-798
4433733	-1194	6664	-1376
4434061	-3326	5535	-3128
4434389	-334	-1269	-277
4434717	2532	199	2236
4435045	4724	1402	2835
4435373	3919	-16	2442
4435701	2559	-174	1748
4436029	850	-655	564
4436357	-416	475	352
4436685	-1682	-281	225
4437013	-461	530	-137
4437341	-328	1442	-38
4437669	-533	948	181
4437997	-274	1117	214
4438325	-147	976	179
4438653	34	442	348
4438981	-11	-63	547
4439309	-189	-292	396
4439637	-345	-466	315
4439965	-591	-512	269
4440293	-768	-221	84
4440621	-830	-326	-170
4440949	-871	-553	-396
4441277	-875	-535	-458
4441605	-763	-680	-517
4441933	-660	-889	-562
4442261	-567	-1101	-655
4442589	-291	-1375	-656
4442917	-162	-1595	-691
4443245	-192	-1709	-747
4443573	-200	-1794	-837
4443901	-27	-2111	-810
4444229	206	-2516	-788
4444557	523	-2666	-860
4444885	899	-2720	-971
4445213	1664	-2868	-944
4445541	1513	-2964	-1288
4445869	1314	-3412	-1379
4446197	771	-3481	-1572
4446525	-299	-3411	-1866
4446853	-1591	-2898	-2132
4447181	-2648	-3043	-2630
4447509	-2600	-3195	-3373
4447837	-2480	-3503	-3817
4448165	-2025	-3998	-3944
4448493	-1426	-4413	-4330
4448821	-1725	-5240	-4247
4449149	-1682	-5504	-4526
4449477	-1821	-6326	-4921
4449805	-2840	-6481	-5354
4450133	-3224	-5743	-5194
4450461	-3765	-4902	-4774
4450789	-4351	-2798	-4204
4451117	-6201	899	-3382
4451445	-9203	5282	-2429
4451773	-13047	7763	-912
4452101	-16894	12955	231
4452429	-15770	11471	3151
4452757	-14590	11118	5201
4453085	-12608	11627	6959
4453413	-10063	10172	7583
4453741	-8138	10101	8097
4454069	-6001	11067	7731
4454397	-5327	12200	7245
4454725	-5183	12405	6751
4455053	-5457	12277	6192
4455381	-6534	12927	5475
4455709	-7123	13180	5322
4456037	-7258	13007	5235
4456365	-6758	12077	4965
4456693	-6038	10879	4869
4457021	-5221	10206	4212
4457349	-4808	9139	3604
4457677	-4311	8274	2582
4458005	-3729	7328	1431
4458333	-3543	6447	409
4458661	-3429	6049	-443
4458989	-3232	5156	-1131
4459317	-2906	3880	-1772
4459645	-2695	3060	-2213
4459973	-2605	2413	-2555
4460301	-2285	1587	-2909
4460629	-2277	808	-3064
4460957	-2144	140	-3027
4461285	-1735	-272	-2720
4461613	-1147	-128	-1838
4461941	-611	107	-1078
4462269	-352	277	-324
4462597	-322	307	155
4462925	-308	-222	51
4463253	-847	399	303
4463581	-913	666	416
4463909	-922	206	343
4464237	-564	-50	436
4464565	-129	-279	533
4464893	291	-465	587
4465221	624	-421	574
4465549	844	-25	597
4465877	911	223	652
4466205	1017	385	833
4466533	388	692	1012
4466861	116	1018	1242
4467189	-499	1309	1337
4467517	-958	1199	1362
4467845	-1293	1292	1345
4468173	-1258	975	1461
4468501	-1264	1037	1619
4468829	-1426	1256	1718
4469157	-1377	1476	1854
4469485	-1131	1170	2004
4469813	-858	951	2166
4470141	-514	980	2230
4470469	-171	951	2383
4470797	150	827	2571
4471125	21	952	2668
4471453	-290	895	3080
4471781	-381	868	3531
4472109	-1106	743	3878
4472437	-1262	763	4136
4472765	-1141	-11	4174
4473093	-737	-955	4176
4473421	-260	-1958	4072
4473749	386	-2872	3753
4474077	1244	-2616	3599
4474405	2489	209	3600
4474733	4289	826	3401
4475061	3930	-3583	4010
4475389	3906	-2888	3533
4475717	3671	-1702	3066
4476045	3384	-202	2972
4476373	2795	1324	2773
4476701	1632	-122	2726
4477029	1495	-824	2887
4477357	2026	-225	3083
4477685	2250	307	3049
4478013	1469	969	2996
4478341	71	1681	2891
4478669	-1484	1975	2742
4478997	-1743	1656	2804
4479325	-1082	1419	2380
4479653	-857	1257	2539
4479981	-804	1370	2731
4480309	-1302	1518	2852
4480637	-2199	1393	2767
4480965	-2772	1623	2567
4481293	-2791	1700	2536
4481621	-2983	1773	2620
4481949	-2766	1498	2676
4482277	-2724	1659	2577
4482605	-2830	1637	2525
4482933	-2909	1221	2452
4483261	-2864	915	2339
4483589	-2808	614	2261
4483917	-2910	494	2151
4484245	-2690	689	1983
4484573	-2614	834	1760
4484901	-2914	985	1556
4485229	-3495	1044	1382
4485557	-4130	1030	1183
4485885	-4658	1080	1109
4486213	-5284	617	1299
4486541	-6857	410	1366
4486869	-7729	0	1688
4487197	-9358	664	1644
4487525	-10755	1034	2220
4487853	-11298	1169	2853
4488181	-12101	948	3317
4488509	-12065	-21	3145
4488837	-10631	-1909	3482
4489165	-7957	-2894	4486
4489493	-5274	-2029	5084
4489821	-3102	-1235	5448
4490149	-2106	-1252	5179
4490477	-809	-2303	5045
4490805	94	-2904	4858
4491133	-163	-3307	4144
4491461	284	-3857	3172
4491789	-107	-3206	1491
4492117	116	-3816	-220
4492445	1461	-3098	-2424
4492773	2261	-823	-3717
4493101	1769	-876	-5011
4493429	863	-1807	-6510
4493757	355	-1498	-7743
4494085	-594	-1011	-8764
4494413	-751	-780	-9324
4494741	-612	-962	-9723
4495069	-262	-1268	-9885
4495397	533	-1219	-9731
4495725	1185	-1218	-9255
4496053	1815	-1104	-8004
4496381	1076	-175	-4715
4496709	-741	2781	-1318
4497037	-3120	3964	343
4497365	-5540	5016	1157
4497693	-6211	3545	1639
4498021	-6372	2893	-42
4498349	-5775	2722	-1419
4498677	-4538	2173	-2511
4499005	-3304	332	-2297
4499333	-1768	-829	-688
4499661	22	-1169	494
4499989	2204	-1829	837
4500317	3898	-2563	923
4500645	4807	-993	1226
4500973	5496	-1338	798
4501301	5366	-2326	1277
4501629	5432	-2449	2079
4501957	5424	-2010	2045
4502285	5711	-2052	2637
4502613	5999	-2611	3054
4502941	6790	-2983	3397
4503269	7259	-3029	3706
4503597	7956	-3107	4110
4503925	7834	-3267	4410
4504253	7910	-3274	4719
4504581	7367	-3311	4735
4504909	7345	-3367	4535
4505237	7394	-3907	4333
4505565	7569	-4470	3938
4505893	7873	-5008	3553
4506221	8531	-5866	3204
4506549	9129	-6847	2782
4506877	9699	-7576	2296
4507205	9766	-8202	1525
4507533	9383	-8626	535
4507861	8884	-8876	-572
4508189	8893	-8955	-1559
4508517	9387	-8800	-2569
4508845	10590	-8668	-3247
4509173	11489	-9195	-3190
4509501	12727	-9421	-1480
4509829	14021	-6939	516
4510157	13285	-4619	233
4510485	11249	-4864	-2075
4510813	9171	-4928	-3371
4511141	6438	-2029	-3653
4511469	3236	1208	-2824
4511797	758	6186	-3227
4512125	-3125	384	-2459
4512453	-3105	-2418	-3462
4512781	-62	-2619	-3431
4513109	3608	-3484	-2518
4513437	5870	-3844	-1230
4513765	7069	-4601	-1084
4514093	8114	-4888	-1560
4514421	6924	-4314	-1483
4514749	6065	-3757	-1126
4515077	4331	-2917	-802
4515405	3943	-3229	-1335
4515733	2253	-625	-440
4516061	860	-1635	-1182
4516389	800	-1139	-1193
4516717	661	-1655	-1142
4517045	1460	-2564	-1219
4517373	2013	-1795	-1276
4517701	2065	-2346	-1595
4518029	1047	-1922	-974
4518357	368	-1661	-1008
4518685	-168	-1869	-962
4519013	-259	-1932	-1155
4519341	-19	-1473	-1419
4519669	113	-1442	-1638
4519997	1345	-1982	-1551
4520325	927	-1468	-981
4520653	-304	-1697	-415
4520981	-741	-1634	-226
4521309	-739	-1745	-66
4521637	-665	-1996	193
4521965	-651	-2369	422
4522293	-717	-2635	685
4522621	-691	-2820	933
4522949	-569	-3020	1368
4523277	-288	-3637	1897
4523605	-65	-4220	2345
4523933	-625	-3989	2414
4524261	-1614	-3222	2220
4524589	-2918	-2768	1940
4524917	-3650	-2864	1668
4525245	-3776	-2607	1491
4525573	-3140	-2509	1231
4525901	-2011	-2903	771
4526229	-1461	-3607	91
4526557	-715	-3707	-454
4526885	-90	-2233	-819
4527213	-639	-1174	-1003
4527541	-1554	-355	-1123
4527869	-3377	883	-1430
4528197	-5424	1096	-1888
4528525	-6540	354	-2273
4528853	-6311	114	-2513
4529181	-5921	163	-2462
4529509	-4710	673	-1830
4529837	-4183	778	-1491
4530165	-3779	118	-1498
4530493	-2770	-164	-1409
4530821	-2002	-1022	-1282
4531149	-1255	-1177	-1249
4531477	-648	-1304	-1340
4531805	-677	-1649	-1451
4532133	-967	-1756	-1506
4532461	-1613	-1914	-1363
4532789	-1997	-1983	-1047
4533117	-2147	-2229	-762
4533445	-2218	-2458	-418
4533773	-1484	-3255	-52
4534101	-1803	-5203	767
4534429	-688	-5433	1583
4534757	1572	-3634	2069
4535085	2829	-2113	2817
4535413	2570	-3030	3545
4535741	1480	-3754	4473
4536069	884	-2586	6059
4536397	719	-2012	7388
4536725	486	-1707	8441
4537053	1819	-1774	9313
4537381	2658	-2289	9273
4537709	3394	-5749	9320
4538037	2847	-11982	9143
4538365	5193	-14079	9422
4538693	7534	-10904	7554
4539021	10055	-4397	5125
4539349	14688	-6152	7036
4539677	17107	-6232	7754
4540005	17316	-3736	7395
4540333	16710	-2682	5728
4540661	15951	-3899	3471
4540989	16690	-4614	1387
4541317	17139	-2540	-336
4541645	15331	1062	-2398
4541973	12694	2236	-4709
4542301	10344	1243	-7340
4542629	7394	697	-9035
4542957	4512	377	-10562
4543285	2639	1	-12521
4543613	-671	-5825	-14173
4543941	4401	-2393	-16314
4544269	3196	-4073	-19405
4544597	4918	-6265	-20141
4544925	6193	-6969	-20973
4545253	8071	-7775	-21746
4545581	8743	-10028	-22464
4545909	7914	-11250	-23366
4546237	8458	-11721	-23840
4546565	8836	-14026	-24781
4546893	8351	-14621	-25858
4547221	8671	-13659	-27316
4547549	7984	-11830	-28075
4547877	6389	-11017	-27426
4548205	5755	-11111	-26338
4548533	4574	-11682	-23887
4548861	6023	-10505	-21103
4549189	8597	-9324	-15896
4549517	9895	-9794	-10864
4549845	11460	-8620	-7311
4550173	10331	-5718	-4789
4550501	6613	-1193	-338
4550829	3274	8930	6033
4551157	8480	9782	13591
4551485	7899	9058	12886
4551813	7250	6594	11862
4552141	3964	3114	10191
4552469	4911	4042	9072
4552797	7148	1870	8728
4553125	7788	-2323	6952
4553453	8512	5341	7087
4553781	5058	11346	7682
4554109	4363	9353	8280
4554437	2565	3856	7084
4554765	-743	2263	5173
4555093	-474	2767	4032
4555421	1444	2210	4064
4555749	2795	1605	3704
4556077	2254	2208	3230
4556405	1370	2028	2788
4556733	750	1041	2370
4557061	84	463	2318
4557389	-273	-212	2630
4557717	145	-1055	2388
4558045	373	-1110	2490
4558373	415	-1353	2304
4558701	833	-770	2313
4559029	1241	58	2138
4559357	1127	307	1874
4559685	691	89	1410
4560013	287	1260	1698
4560341	-306	1301	1889
4560669	-471	1288	2153
4560997	-729	1628	2490
4561325	-627	1632	2752
4561653	-969	1873	3252
4561981	-1411	2117	2884
4562309	-1463	2623	2906
4562637	-1817	2845	2670
4562965	-2196	3047	2573
4563293	-2673	3462	2634
4563621	-3384	4015	2701
4563949	-4134	4817	2664
4564277	-4732	5318	2596
4564605	-5875	5770	2210
4564933	-6819	6684	1613
4565261	-6842	7501	1165
4565589	-6638	7881	888
4565917	-6984	8196	680
4566245	-7313	7878	705
4566573	-6800	6982	1016
4566901	-5378	5727	1539
4567229	-3527	3741	2143
4567557	-1830	954	2847
4567885	568	-1829	3552
4568213	3567	-3412	3731
4568541	6123	-1837	3189
4568869	9364	2467	763
4569197	6910	1968	918
4569525	3113	2246	1336
4569853	-1972	2075	1573
4570181	-6729	2305	1296
4570509	-7972	971	361
4570837	-3757	1087	-370
4571165	-2705	1081	55
4571493	-9	1056	915
4571821	1182	2416	1261
4572149	328	3538	1364
4572477	-1553	3685	1244
4572805	-2836	3495	1191
4573133	-3078	2756	1377
4573461	-2920	1785	1612
4573789	-2336	1062	2009
4574117	-2073	1538	1978
4574445	-1506	1649	1961
4574773	-1113	1626	2111
4575101	-828	1607	2361
4575429	-717	1630	2588
4575757	-734	1331	2791
4576085	-772	1483	2831
4576413	-518	1453	2774
4576741	-158	1263	2887
4577069	-836	562	2863
4577397	-17	1095	3304
4577725	-986	523	2858
4578053	-409	342	3044
4578381	-76	505	2943
4578709	-599	758	2950
4579037	-1173	349	2995
4579365	-1749	539	2835
4579693	-2363	493	2596
4580021	-3029	324	2262
4580349	-3186	414	2054
4580677	-3057	467	1884
4581005	-2799	756	1668
4581333	-2688	701	1579
4581661	-2725	725	1517
4581989	-2726	1144	1150
4582317	-3061	995	1062
4582645	-3545	505	1133
4582973	-4099	58	1121
4583301	-4601	-171	1201
4583629	-4907	-150	1321
4583957	-5354	-2	1428
4584285	-5465	249	1476
4584613	-5489	637	1624
4584941	-5527	396	1795
4585269	-5154	-326	1845
4585597	-4981	-1850	1831
4585925	-3663	-2742	2316
4586253	-2645	-2047	2540
4586581	-1978	-1151	2544
4586909	-2106	458	2323
4587237	-3316	1037	2145
4587565	-4082	-104	1871
4587893	-3929	-1382	2112
4588221	-3555	-1606	2975
4588549	-3046	-1509	4049
4588877	-3185	-852	4751
4589205	-2735	-853	5652
4589533	-2238	-646	6485
4589861	-1713	-420	7397
4590189	-723	-731	8619
4590517	1546	-1954	9678
4590845	184	-1520	12027
4591173	1627	-2481	12823
4591501	3393	-3945	13004
4591829	5197	-4166	12622
4592157	5597	-2893	11482
4592485	7295	-3553	9900
4592813	7884	-3349	8055
4593141	7147	-971	6534
4593469	5742	899	4476
4593797	3323	828	1660
4594125	1751	1988	-1078
4594453	603	1230	-3810
4594781	1428	920	-6442
4595109	972	2688	-9310
4595437	177	2304	-10449
4595765	-377	1511	-11632
4596093	885	945	-12183
4596421	-87	33	-14168
4596749	132	52	-15606
4597077	-596	-845	-17040
4597405	-203	-777	-18093
4597733	993	-37	-19002
4598061	1967	-619	-19606
4598389	2664	-2480	-20099
4598717	3088	-3033	-20570
4599045	2364	-4485	-21728
4599373	3983	-4355	-20957
4599701	3857	-6668	-21883
4600029	4095	-8356	-22227
4600357	3677	-8341	-22630
4600685	3428	-8446	-23052
4601013	3568	-8605	-23702
4601341	3782	-9294	-24201
4601669	4498	-9627	-23422
4601997	4617	-9792	-23395
4602325	5800	-9688	-22173
4602653	7432	-9033	-20246
4602981	9748	-9789	-16941
4603309	11164	-9387	-13571
4603637	11329	-9013	-10596
4603965	11683	-8741	-7656
4604293	10672	-5538	-4695
4604621	5800	-423	-260
4604949	7383	10649	5389
4605277	7314	11374	10851
4605605	7145	10094	11891
4605933	9872	1438	10615
4606261	6976	-943	10503
4606589	5582	6834	9798
4606917	4164	2520	7878
4607245	4784	-1386	6989
4607573	2785	5282	5694
4607901	1055	11179	6135
4608229	891	7885	7794
4608557	1307	4861	4955
4608885	1498	1527	3908
4609213	2146	2988	4515
4609541	3146	2793	4773
4609869	2669	2551	4342
4610197	1161	2840	3707
4610525	594	3110	3206
4610853	213	3056	2746
4611181	-50	2244	2791
4611509	-85	1352	3298
4611837	103	667	2942
4612165	-114	911	2800
4612493	-163	1391	2781
4612821	-265	1975	2494
4613149	-322	2182	2162
4613477	-175	1794	2002
4613805	447	1220	1710
4614133	1013	439	1966
4614461	1354	405	1652
4614789	1476	187	1547
4615117	1450	-261	1212
4615445	1666	-294	1230
4615773	1561	-155	870
4616101	1497	25	577
4616429	1005	-607	411
4616757	1173	-583	315
4617085	756	-859	192
4617413	397	-638	-74
4617741	271	-1054	-270
4618069	190	-760	-454
4618397	122	-747	-597
4618725	-274	-881	-613
4619053	-255	-809	-1156
4619381	-439	-654	-903
4619709	-690	-829	-769
4620037	-818	-864	-609
4620365	-982	-827	-286
4620693	-1520	-477	-111
4621021	-2389	347	-119
4621349	-2978	389	-314
4621677	-2862	-39	-409
4622005	-3004	-206	-226
4622333	-925	-1479	902
4622661	1315	-4030	886
4622989	3557	-5306	1999
4623317	5785	-5677	2405
4623645	7941	-6555	2897
4623973	9745	-8066	3226
4624301	11944	-9191	3272
4624629	14096	-10619	3384
4624957	15460	-12573	3212
4625285	16492	-14391	3180
4625613	17857	-15729	2922
4625941	19530	-17085	2784
4626269	21545	-18379	2572
4626597	23182	-19117	2783
4626925	24842	-19740	2684
4627253	25600	-20402	2469
4627581	25600	-20877	1702
4627909	25959	-20280	1214
4628237	25254	-20583	284
4628565	25418	-20427	-802
4628893	25569	-19644	-1864
4629221	26065	-18392	-2425
4629549	26425	-17039	-2390
4629877	26841	-16530	-2612
4630205	25896	-14477	-1944
4630533	24953	-11747	-1820
4630861	23446	-9524	-1722
4631189	21808	-4969	-2851
4631517	16303	-3370	-3681
4631845	10467	-1176	-3801
4632173	4382	1296	-4034
4632501	-652	3317	-5661
4632829	-2118	5346	-6106
4633157	-926	3078	-5724
4633485	2805	-1880	-3982
4633813	4669	-13	-1455
4634141	9028	-10488	2407
4634469	11034	-10986	3511
4634797	13744	-5435	2179
4635125	16057	-399	1777
4635453	10896	-457	1591
4635781	6340	-1645	52
4636109	1131	-374	-2074
4636437	-827	1195	-2299
4636765	1482	499	-2372
4637093	2367	-1112	-1676
4637421	4635	-1437	-499
4637749	4957	-929	-325
4638077	4352	-530	-515
4638405	3376	-857	-920
4638733	2922	-1998	-1312
4639061	2156	-1276	-987
4639389	2209	-1555	-940
4639717	2782	-2305	-835
4640045	3461	-2162	-532
4640373	3674	-2103	164
4640701	3434	-1446	47
4641029	2809	-1724	318
4641357	3226	-2056	604
4641685	1848	-836	618
4642013	817	-1360	729
4642341	-656	-1531	482
4642669	-1650	-1164	426
4642997	-1268	-1794	501
4643325	-769	-2171	600
4643653	-482	-1783	816
4643981	-276	-1502	1020
4644309	-195	-1906	1195
4644637	-347	-2523	1182
4644965	-230	-2696	1077
4645293	-72	-2545	1064
4645621	188	-2826	853
4645949	537	-3724	784
4646277	1480	-4791	702
4646605	2737	-5409	648
4646933	3807	-5661	652
4647261	4194	-4947	631
4647589	3921	-3745	372
4647917	2750	-2805	-1
4648245	1529	-2051	-317
4648573	-17	-1519	-614
4648901	-1286	-1590	-817
4649229	-1804	-1648	-867
4649557	-1420	-1544	-733
4649885	-769	-1433	-709
4650213	-724	-1927	-671
4650541	-1095	-2386	-902
4650869	-1397	-2812	-1229
4651197	-1811	-2661	-1013
4651525	-2147	-2557	-888
4651853	-1767	-3555	-869
4652181	-991	-5045	-226
4652509	-514	-6930	542
4652837	2122	-5404	1868
4653165	1937	-7285	2126
4653493	2430	-8364	2797
4653821	3096	-8299	3633
4654149	3779	-8005	4591
4654477	4905	-8257	5261
4654805	4635	-8124	5476
4655133	4287	-8251	6389
4655461	4688	-8201	6308
4655789	4313	-10034	5392
4656117	3219	-11049	5755
4656445	6382	-8942	5809
4656773	9478	-7468	5833
4657101	12232	-5748	5431
4657429	13447	-2347	5551
4657757	14637	-1721	3921
4658085	15551	-3247	2112
4658413	16763	-4427	300
4658741	16869	-3529	-1958
4659069	15876	-1912	-3413
4659397	13170	-915	-5927
4659725	10569	-90	-7589
4660053	9044	300	-8260
4660381	5931	-114	-9672
4660709	3432	-975	-11284
4661037	2259	-2292	-12794
4661365	-920	-8260	-12977
4661693	5693	-4251	-16096
4662021	4270	-3211	-18322
4662349	4973	-5493	-19146
4662677	6579	-6791	-19674
4663005	8195	-8253	-19961
4663333	9347	-9349	-20174
4663661	10374	-9758	-20489
4663989	11428	-10567	-21260
4664317	12180	-11107	-22061
4664645	12189	-10938	-22485
4664973	12337	-11294	-22964
4665301	12725	-12389	-22245
4665629	13573	-13270	-21403
4665957	13197	-12360	-20045
4666285	17515	-11835	-15935
4666613	17978	-11346	-13167
4666941	18895	-9368	-11850
4667269	17803	-9114	-9006
4667597	17459	-8682	-6688
4667925	13505	-4606	-2283
4668253	9356	4177	3995
4668581	11856	9555	10542
4668909	5594	8923	12298
4669237	6224	11177	9744
4669565	6452	5050	11440
4669893	4267	1116	9085
4670221	4458	931	7161
4670549	1799	5771	6214
4670877	243	10599	8619
4671205	-2477	7944	7400
4671533	-1165	7641	7164
4671861	705	4261	4307
4672189	4664	-1	3763
4672517	5641	1370	5110
4672845	5018	2734	4866
4673173	2852	3063	4021
4673501	417	3651	3024
4673829	-1296	3107	2520
4674157	-929	2464	2102
4674485	29	1344	2100
4674813	968	-552	2750
4675141	1713	-1629	3060
4675469	1743	-1153	3331
4675797	1512	-379	3339
4676125	1127	-302	3300
4676453	876	204	3022
4676781	1199	61	2315
4677109	1322	889	2704
4677437	1233	674	2761
4677765	1332	542	2179
4678093	600	-111	1924
4678421	1347	1273	2165
4678749	788	1351	1285
4679077	909	999	1255
4679405	1096	1034	880
4679733	633	1122	562
4680061	168	341	344
4680389	76	71	326
4680717	225	-619	352
4681045	183	-7	329
4681373	425	-98	310
4681701	836	-548	663
4682029	766	-293	2
4682357	360	338	79
4682685	105	6	-104
4683013	15	-213	-282
4683341	-121	-129	-365
4683669	-167	-128	-408
4683997	-22	-344	-442
4684325	76	-514	-500
4684653	94	-721	-550
4684981	65	-786	-576
4685309	-105	-823	-650
4685637	-202	-874	-761
4685965	-337	-1007	-916
4686293	-303	-1163	-1033
4686621	-213	-1319	-1111
4686949	-209	-1374	-1151
4687277	-329	-1187	-1208
4687605	-504	-1121	-1339
4687933	-812	-1210	-1403
4688261	-1151	-1317	-1489
4688589	-1413	-1458	-1521
4688917	-1491	-1477	-1594
4689245	-1248	-1669	-1818
4689573	-876	-1884	-2039
4689901	-611	-1869	-2283
4690229	-480	-1984	-2700
4690557	-855	-2258	-3301
4690885	-1294	-2478	-3992
4691213	-1755	-2667	-4763
4691541	-2567	-2898	-5506
4691869	-3547	-3060	-6135
4692197	-4703	-3396	-6739
4692525	-5802	-4228	-7975
4692853	-6814	-5062	-8880
4693181	-7415	-6084	-9755
4693509	-7527	-5367	-10287
4693837	-7822	-4764	-10318
4694165	-9323	-4129	-10009
4694493	-12434	-2601	-9924
4694821	-15104	-1160	-9271
4695149	-16122	-1642	-7905
4695477	-16666	-2591	-5728
4695805	-15000	-1699	-2498
4696133	-12773	-1301	2652
4696461	-10729	-1801	7753
4696789	-11157	911	10727
4697117	-11637	2958	11980
4697445	-12744	3275	11843
4697773	-13695	3193	10860
4698101	-13128	3208	10110
4698429	-12415	2030	9140
4698757	-11015	954	7802
4699085	-9813	184	7542
4699413	-9262	-460	7435
4699741	-9138	-447	7457
4700069	-9534	-512	7566
4700397	-10525	-327	7308
4700725	-11250	-537	7281
4701053	-12079	-753	7304
4701381	-11690	23	7049
4701709	-12580	-371	6785
4702037	-12739	-863	6663
4702365	-12088	-1191	6457
4702693	-11250	-1296	6222
4703021	-10832	-1025	6245
4703349	-11023	-632	5999
4703677	-11260	115	5908
4704005	-11004	-110	5979
4704333	-11357	304	5824
4704661	-11350	492	5291
4704989	-11556	1011	5220
4705317	-12172	669	4818
4705645	-12194	826	4582
4705973	-12114	937	4391
4706301	-12413	1313	4268
4706629	-12673	1764	4188
4706957	-12812	2070	4274
4707285	-12357	2189	4345
4707613	-11600	2164	4398
4707941	-10810	2473	4434
4708269	-10152	2890	4516
4708597	-9767	3245	4572
4708925	-9538	3625	4680
4709253	-9659	4855	4620
4709581	-9500	5130	4741
4709909	-9040	4902	5034
4710237	-8682	5154	5213
4710565	-8807	6020	5249
4710893	-8736	6543	5549
4711221	-8299	6716	5796
4711549	-8248	6864	5883
4711877	-8432	7213	6070
4712205	-8484	8197	5961
4712533	-8854	9555	5415
4712861	-8744	10446	5016
4713189	-7687	10833	4756
4713517	-5837	10392	4427
4713845	-3363	9889	3617
4714173	-3219	9253	3708
4714501	-3512	6729	4727
4714829	-50	-2066	5778
4715157	4855	473	5627
4715485	8279	1510	4791
4715813	10224	1869	3782
4716141	11812	4939	4414
4716469	9955	8546	4888
4716797	5399	6231	4695
4717125	97	2837	3585
4717453	-1249	5146	3624
4717781	-3977	7025	2775
4718109	-4674	6116	3387
4718437	-1341	4828	3744
4718765	11	4110	3213
4719093	1688	2518	3218
4719421	2648	2307	3030
4719749	3625	2493	2961
4720077	3410	2470	2762
4720405	2330	2405	2645
4720733	1118	2636	2801
4721061	-108	2564	2836
4721389	-1051	2692	2867
4721717	-1405	2007	2711
4722045	-1148	3399	2514
4722373	-1151	3102	2476
4722701	-598	2574	2528
4723029	-170	2187	2465
4723357	236	1415	2322
4723685	-260	1658	2205
4724013	-994	1526	2284
4724341	-1927	1040	2260
4724669	-1812	768	2300
4724997	-1806	631	2070
4725325	-1623	821	1822
4725653	-1853	1018	1648
4725981	-2511	1233	1473
4726309	-3771	1690	1628
4726637	-4775	2551	1419
4726965	-6198	3559	1492
4727293	-7348	4172	1569
4727621	-8278	3770	1836
4727949	-8999	2951	2052
4728277	-9377	2296	2311
4728605	-9430	2037	2525
4728933	-9108	1798	2616
4729261	-8435	1137	2678
4729589	-7463	630	2653
4729917	-6599	168	2377
4730245	-5329	-802	2317
4730573	-3509	-1692	2385
4730901	-2480	-1921	2679
4731229	-1854	-2217	2814
4731557	-1542	-2160	2811
4731885	-1412	-1090	2627
4732213	-1058	-536	2214
4732541	-748	-227	1638
4732869	-736	286	1080
4733197	-1495	937	646
4733525	-1481	737	139
4733853	-667	113	-1207
4734181	815	-1151	-2637
4734509	3005	-3071	-2640
4734837	4601	-2590	-1503
4735165	3406	190	-282
4735493	570	-128	-183
4735821	-2277	-214	-623
4736149	-4095	1075	-1000
4736477	-6511	1874	-1294
4736805	-8505	736	-1873
4737133	-8760	1580	-1681
4737461	-8432	1714	-1607
4737789	-7501	1634	-1509
4738117	-5868	1455	-1088
4738445	-4184	613	-812
4738773	-2812	150	-639
4739101	-1500	-67	-349
4739429	-73	-345	136
4739757	1397	-623	610
4740085	2501	-585	1049
4740413	3429	-571	1699
4740741	3903	-624	2133
4741069	4133	-340	2614
4741397	4007	-547	2836
4741725	3645	-428	3080
4742053	3112	382	3261
4742381	2211	127	3380
4742709	1612	198	3574
4743037	1218	338	3764
4743365	1186	490	3946
4743693	1372	643	4109
4744021	1671	469	4124
4744349	2249	226	4047
4744677	2861	-118	3797
4745005	3264	-404	3448
4745333	3676	-723	3155
4745661	4095	-887	2742
4745989	4511	-1126	2252
4746317	4728	-1652	1576
4746645	4919	-2402	835
4746973	5506	-3255	105
4747301	6355	-4110	-454
4747629	7114	-4949	-866
4747957	8261	-5187	-1047
4748285	8762	-5214	-992
4748613	8869	-5110	-332
4748941	9018	-4970	-1527
4749269	8467	-4951	-2078
4749597	8530	-3970	-2548
4749925	7292	-3642	-3115
4750253	5564	-2431	-3693
4750581	3539	-1306	-3819
4750909	1298	-1075	-3621
4751237	400	403	-3601
4751565	-1034	752	-3386
4751893	-1935	641	-3179
4752221	-1656	-33	-2900
4752549	-2139	-1107	-2691
4752877	-347	-2379	-2316
4753205	2308	-2743	-1997
4753533	4743	-2771	-1569
4753861	6333	-1828	-1085
4754189	6274	-952	-881
4754517	5037	-520	-776
4754845	2976	-91	-616
4755173	666	81	-606
4755501	265	-1189	-700
4755829	481	-1743	-841
4756157	1590	-1547	-853
4756485	3256	-1859	-711
4756813	4031	-1826	-678
4757141	3842	-1350	-717
4757469	2640	-801	-899
4757797	1537	-398	-989
4758125	664	-198	-964
4758453	465	-481	-747
4758781	497	-627	-699
4759109	335	-1413	-93
4759437	1442	-2709	-111
4759765	1734	-2900	76
4760093	2337	-3061	313
4760421	1812	-2658	258
4760749	1003	-2526	360
4761077	625	-1991	164
4761405	-64	-2277	-185
4761733	-135	-2669	-339
4762061	256	-2598	-350
4762389	718	-2366	-285
4762717	676	-2123	-138
4763045	362	-1874	157
4763373	-84	-2169	534
4763701	-189	-2639	841
4764029	-40	-2939	1156
4764357	-38	-2585	1062
4764685	-157	-2056	744
4765013	-398	-1549	271
4765341	-398	-1955	-405
4765669	268	-2427	-1060
4765997	887	-1898	-1121
4766325	876	-1669	-1193
4766653	244	-1268	-1405
4766981	-579	-469	-1548
4767309	-1612	-436	-1712
4767637	-2299	-1084	-1775
4767965	-2339	-1294	-1621
4768293	-1803	-854	-1316
4768621	-1272	-1013	-1000
4768949	-716	-1112	-909
4769277	-164	-1019	-805
4769605	96	-933	-749
4769933	67	-654	-695
4770261	-348	-184	-634
4770589	-835	100	-564
4770917	-1623	66	-623
4771245	-2006	308	-602
4771573	-1901	126	-536
4771901	-1734	-149	-414
4772229	-1741	-514	-147
4772557	-1870	-794	136
4772885	-2115	-908	327
4773213	-2730	-921	437
4773541	-3488	-601	381
4773869	-3879	-155	443
4774197	-4021	-223	819
4774525	-3879	-561	1263
4774853	-3593	-779	1893
4775181	-4000	-1227	2582
4775509	-3419	-1087	2954
4775837	-3123	-589	3519
4776165	-3184	-1193	4241
4776493	-3560	-1227	4644
4776821	-3174	-1530	5141
4777149	-2934	-1513	5926
4777477	-2787	-1385	6694
4777805	-2575	-1334	7476
4778133	-2100	-1165	8323
4778461	-1533	-639	9096
4778789	-1112	-430	9717
4779117	-166	-925	9734
4779445	1008	-1132	9552
4779773	263	-1050	9801
4780101	723	-4165	9566
4780429	3244	-4928	8855
4780757	5474	-1833	9163
4781085	7622	348	9034
4781413	8841	-1012	7066
4781741	9798	-887	6154
4782069	10611	-14	4673
4782397	9867	590	1617
4782725	9050	2762	-29
4783053	9365	1744	-2484
4783381	10150	1136	-5167
4783709	9894	2108	-7508
4784037	8504	3662	-9941
4784365	7056	2864	-12434
4784693	5241	2634	-14619
4785021	3502	2175	-17068
4785349	2509	3633	-18866
4785677	28	1116	-21030
4786005	61	556	-22460
4786333	1424	-657	-23868
4786661	3545	-2915	-24635
4786989	5515	-2855	-25315
4787317	6916	-3916	-26056
4787645	8508	-5427	-26774
4787973	9979	-7344	-27611
4788301	10470	-8697	-27888
4788629	11005	-9566	-28586
4788957	11354	-10644	-28095
4789285	11882	-11489	-28163
4789613	12602	-11506	-25069
4789941	15330	-13114	-21609
4790269	17629	-13099	-17165
4790597	18469	-10312	-11971
4790925	19643	-8482	-7718
4791253	20391	-8067	-5004
4791581	18504	-7546	-2045
4791909	10447	-5352	1225
4792237	4617	13010	7208
4792565	2439	24322	12364
4792893	2883	8912	11793
4793221	5701	-4663	11066
4793549	477	-579	11290
4793877	4143	2227	9406
4794205	4035	-1355	7793
4794533	9045	-673	7592
4794861	5888	5103	6462
4795189	3763	8490	6765
4795517	3619	5415	5459
4795845	2443	1384	3606
4796173	1977	1022	3439
4796501	640	1616	3065
4796829	169	1805	2626
4797157	-112	2277	2106
4797485	-1169	2966	1708
4797813	-1329	1801	1490
4798141	-1148	359	1133
4798469	-2156	234	1751
4798797	-2666	-263	2109
4799125	-2493	246	1886
4799453	-1120	-358	2956
4799781	-291	-925	3346
4800109	776	-705	4198
4800437	133	1365	4635
4800765	875	1869	4656
4801093	826	1640	4243
4801421	644	1523	4021
4801749	-1012	197	3432
4802077	610	2410	4255
4802405	-235	2207	3805
4802733	-169	2377	4185
4803061	-827	3130	4329
4803389	-1451	3079	4428
4803717	-1818	3430	4429
4804045	-2431	4038	4016
4804373	-2859	4379	3456
4804701	-2342	4658	3084
4805029	-1758	4699	3048
4805357	-1478	5059	3331
4805685	-1603	4957	3453
4806013	-1994	4819	3717
4806341	-1679	4252	3718
4806669	-390	2763	3494
4806997	832	1252	3145
4807325	2092	1369	3352
4807653	3708	1196	3698
4807981	4437	2245	3351
4808309	5312	3691	2505
4808637	4976	3018	1777
4808965	3884	931	2149
4809293	2211	1265	2282
4809621	900	1343	2500
4809949	-303	445	2295
4810277	317	-327	1812
4810605	1022	327	1443
4810933	2015	-125	1642
4811261	2850	582	1749
4811589	2710	867	1746
4811917	1827	793	1737
4812245	968	951	1639
4812573	134	1102	1517
4812901	90	1197	1605
4813229	-5	1454	1710
4813557	-243	1807	1639
4813885	-760	1981	1568
4814213	-1190	2168	1490
4814541	-1452	2379	1523
4814869	-1573	2600	1520
4815197	-1784	2714	1510
4815525	-2032	2722	1545
4815853	-2239	2892	1447
4816181	-2276	2905	1377
4816509	-2181	2711	1340
4816837	-2223	2409	1311
4817165	-2008	2343	1379
4817493	-2304	2281	1379
4817821	-2773	2189	1413
4818149	-3588	2292	1238
4818477	-4168	2451	1424
4818805	-4550	2455	1490
4819133	-5071	2503	1397
4819461	-5335	2146	1257
4819789	-5759	2336	1406
4820117	-5807	2278	1761
4820445	-5494	1453	1944
4820773	-5102	1086	2066
4821101	-4482	700	2163
4821429	-3700	537	2158
4821757	-2816	513	2089
4822085	-2097	117	1990
4822413	-1435	-820	2030
4822741	-1405	-1297	2074
4823069	-2244	-1004	1933
4823397	-3077	941	1816
4823725	-4789	2021	1553
4824053	-5873	2106	1323
4824381	-6375	1198	1110
4824709	-5621	134	894
4825037	-4838	-77	935
4825365	-4210	-120	880
4825693	-3293	-405	802
4826021	-2464	-1112	646
4826349	-1644	-1732	604
4826677	-2016	-1885	928
4827005	-918	-1161	977
4827333	-1160	-954	1066
4827661	-1451	-703	1321
4827989	-1844	-345	1698
4828317	-2522	-40	1881
4828645	-3613	-79	1451
4828973	-3676	-221	2267
4829301	-3728	-402	3457
4829629	-4071	273	4643
4829957	-4558	1089	5642
4830285	-4363	1596	6586
4830613	-3677	1208	7462
4830941	-2973	596	8334
4831269	-1025	14	9176
4831597	-968	-819	10587
4831925	1911	-1732	11558
4832253	3169	-2194	11234
4832581	4120	-1233	10454
4832909	4159	-1557	9834
4833237	4951	-1970	9049
4833565	6112	-1512	7970
4833893	5314	-1669	6609
4834221	3941	-991	4625
4834549	2455	210	2486
4834877	-387	1320	-318
4835205	38	3497	-3235
4835533	-2517	2650	-5315
4835861	-3197	1629	-6588
4836189	-3196	1054	-8044
4836517	-2809	-132	-9609
4836845	-1108	-1403	-10962
4837173	293	-2210	-11801
4837501	1485	-2984	-12833
4837829	2692	-3590	-13868
4838157	3749	-3905	-15317
4838485	5029	-4297	-16493
4838813	5946	-4779	-17416
4839141	6708	-5665	-18468
4839469	7081	-6801	-18991
4839797	7220	-7617	-19554
4840125	7023	-8518	-20469
4840453	6923	-9296	-21150
4840781	6398	-9878	-21571
4841109	6250	-10504	-22194
4841437	5543	-11020	-22543
4841765	5231	-11239	-22681
4842093	4880	-11063	-22576
4842421	5462	-10583	-22646
4842749	6385	-10593	-22398
4843077	8212	-10758	-21766
4843405	10110	-11415	-20797
4843733	12888	-11119	-19317
4844061	15966	-11885	-17246
4844389	19248	-12796	-14353
4844717	21654	-12430	-10934
4845045	22916	-10464	-7788
4845373	22782	-8950	-5025
4845701	20791	-7000	-2268
4846029	19056	-6057	1059
4846357	13941	-5213	3525
4846685	2382	467	4474
4847013	-8201	31978	6184
4847341	-8440	23953	9423
4847669	-1642	11539	14847
4847997	-1209	1254	16905
4848325	-258	2301	13138
4848653	1040	1635	7504
4848981	1649	1755	4564
4849309	4362	5994	6987
4849637	-285	14238	9740
4849965	-290	17445	9606
4850293	3915	9092	8365
4850621	5555	3503	6490
4850949	8682	-556	6524
4851277	8260	-228	6041
4851605	6783	2908	6322
4851933	5282	1935	5398
4852261	4356	422	4577
4852589	2600	745	4579
4852917	1989	417	4492
4853245	2257	-303	4635
4853573	2021	305	4254
4853901	1714	-2499	4022
4854229	2506	-3615	4186
4854557	3182	-3121	4016
4854885	3108	-3970	3469
4855213	3132	-2872	2773
4855541	2867	-1889	1940
4855869	2336	-1246	1216
4856197	1321	-786	564
4856525	992	609	468
4856853	878	788	324
4857181	613	275	192
4857509	298	535	37
4857837	-376	1113	6
4858165	-753	1123	83
4858493	-397	676	-137
4858821	-1673	1463	-108
4859149	-1514	1849	-217
4859477	-1531	1598	-339
4859805	-1320	1490	-367
4860133	-1373	1502	-464
4860461	-1108	1406	-463
4860789	-927	1236	-448
4861117	-796	1076	-346
4861445	-1314	884	-284
4861773	-1253	781	-272
4862101	-1075	530	-341
4862429	-544	294	-305
4862757	40	216	-290
4863085	432	94	-185
4863413	452	47	-196
4863741	434	205	-275
4864069	397	408	-505
4864397	151	205	-526
4864725	-21	-24	-543
4865053	329	-12	-505
4865381	460	-258	-599
4865709	760	-512	-572
4866037	1172	-662	-571
4866365	1538	-929	-590
4866693	1406	-1328	-612
4867021	1127	-1574	-722
4867349	800	-1631	-790
4867677	405	-1775	-896
4868005	187	-1791	-1059
4868333	-36	-1773	-1326
4868661	-286	-1617	-1630
4868989	-645	-1182	-1969
4869317	-668	-1029	-2232
4869645	-641	-998	-2387
4869973	-494	-874	-2591
4870301	-556	-961	-2828
4870629	-726	-1179	-3056
4870957	-460	-1052	-3340
4871285	-457	-730	-3577
4871613	-267	-1053	-3366
4871941	131	-1254	-3327
4872269	609	-1560	-3164
4872597	836	-2039	-2934
4872925	1442	-2292	-2802
4873253	1941	-2362	-2440
4873581	2786	-2331	-2312
4873909	3974	-2432	-2172
4874237	4814	-2310	-1947
4874565	5185	-1715	-1666
4874893	5834	-1567	-1527
4875221	6255	-2763	-1631
4875549	6910	-3545	-1391
4875877	7403	-3031	-772
4876205	6305	-2426	-426
4876533	7390	-2171	47
4876861	7467	-2783	162
4877189	8102	-2541	270
4877517	9191	-2558	407
4877845	10362	-2951	472
4878173	11286	-3097	626
4878501	11980	-3502	724
4878829	12255	-3821	777
4879157	12545	-3931	945
4879485	12425	-3903	980
4879813	11907	-3440	833
4880141	11124	-3218	832
4880469	9964	-3368	652
4880797	7975	-3168	368
4881125	7124	-1915	894
4881453	5461	726	493
4881781	1979	1407	357
4882109	905	1071	106
4882437	321	1354	194
4882765	886	1762	710
4883093	2215	1671	964
4883421	3322	1609	1121
4883749	3614	1733	1063
4884077	3843	1735	1120
4884405	3824	1642	1167
4884733	4200	1463	1300
4885061	4790	1277	1465
4885389	4827	1004	1497
4885717	4966	649	1462
4886045	4937	286	1368
4886373	4935	107	1406
4886701	4893	-199	1340
4887029	4786	-336	1262
4887357	4404	-141	1296
4887685	3754	-39	1318
4888013	2996	2	1336
4888341	2160	178	1254
4888669	1626	383	1259
4888997	1122	622	1112
4889325	1085	623	1086
4889653	1091	507	981
4889981	1296	417	1019
4890309	1591	230	1053
4890637	1835	22	1171
4890965	1860	-6	1274
4891293	1637	31	1346
4891621	1186	35	1492
4891949	649	-49	1482
4892277	411	-97	1443
4892605	140	-38	1419
4892933	140	-126	1324
4893261	41	179	1398
4893589	-210	152	1390
4893917	-327	208	1459
4894245	-701	24	1532
4894573	-873	-105	1623
4894901	-1104	-5	1615
4895229	-969	-6	1589
4895557	-695	140	1528
4895885	-582	270	1525
4896213	-744	266	1569
4896541	-695	608	1231
4896869	-870	715	1222
4897197	-817	758	1287
4897525	-850	940	1149
4897853	-608	652	1228
4898181	-278	503	1147
4898509	3	473	1010
4898837	26	731	942
4899165	-330	668	920
4899493	-611	485	773
4899821	-595	536	672
4900149	-353	675	686
4900477	-210	427	665
4900805	187	78	641
4901133	621	-122	633
4901461	786	-105	611
4901789	685	-111	581
4902117	410	-64	514
4902445	-24	31	435
4902773	-416	-60	356
4903101	-513	-242	241
4903429	-525	-334	169
4903757	-456	-341	136
4904085	-479	-395	76
4904413	-516	-396	-31
4904741	-620	-283	-217
4905069	-620	-304	-308
4905397	-607	-629	-407
4905725	-361	-694	-485
4906053	-226	-722	-638
4906381	-376	-800	-753
4906709	-333	-879	-850
4907037	-556	-951	-1029
4907365	-645	-925	-1201
4907693	-765	-862	-1314
4908021	-722	-894	-1369
4908349	-573	-843	-1457
4908677	-338	-832	-1506
4909005	-155	-969	-1518
4909333	-140	-1150	-1571
4909661	-198	-1199	-1601
4909989	-470	-1323	-1642
4910317	-715	-1515	-1730
4910645	-488	-1651	-1850
4910973	629	-1915	-1872
4911301	573	-1954	-1875
4911629	639	-2086	-1977
4911957	1533	-2500	-2210
4912285	3332	-3366	-2433
4912613	4570	-3884	-2420
4912941	3289	-2966	-2215
4913269	1485	-2035	-2189
4913597	860	-2341	-2419
4913925	-114	-2603	-2435
4914253	-464	-2351	-2508
4914581	-837	-2042	-2440
4914909	-1130	-2111	-2444
4915237	-1383	-2291	-2432
4915565	-1678	-2664	-2494
4915893	-1780	-2814	-2640
4916221	-1573	-2990	-2768
4916549	-1248	-3488	-2796
4916877	-872	-4440	-2637
4917205	-291	-5748	-2000
4917533	735	-7153	-1366
4917861	2558	-8546	-815
4918189	4412	-9911	-381
4918517	5805	-10323	75
4918845	6537	-10571	64
4919173	6147	-10788	-464
4919501	5468	-10884	-153
4919829	4992	-11008	-1061
4920157	4427	-10760	-1579
4920485	3126	-11068	-2333
4920813	3655	-11470	-3081
4921141	3869	-12202	-3829
4921469	5490	-10992	-3320
4921797	9201	-10194	-1825
4922125	14655	-10279	335
4922453	18515	-9976	1973
4922781	21443	-9536	2556
4923109	22784	-8822	2800
4923437	24157	-7041	3501
4923765	24122	-5791	4322
4924093	22454	-4757	4610
4924421	20104	-4096	4294
4924749	17480	-3363	3637
4925077	15230	-2328	2804
4925405	13273	-1762	1930
4925733	11481	-1377	905
4926061	10227	-1361	-103
4926389	9588	-699	-1197
4926717	8674	-2735	-2386
4927045	9002	-822	-2991
4927373	8270	-2216	-4142
4927701	8590	-3343	-5082
4928029	9578	-4325	-6092
4928357	11106	-5337	-7026
4928685	11764	-6074	-7781
4929013	12924	-6737	-8762
4929341	13790	-7466	-9643
4929669	14440	-8092	-10465
4929997	14641	-8832	-11319
4930325	14532	-9689	-12444
4930653	15105	-10125	-13203
4930981	15086	-10638	-13838
4931309	14744	-10505	-14521
4931637	14378	-10963	-14992
4931965	13956	-11753	-15581
4932293	14087	-12379	-16261
4932621	14931	-12246	-17171
4932949	15247	-11971	-18194
4933277	15565	-12185	-17912
4933605	16139	-11885	-17931
4933933	16400	-10696	-18252
4934261	15920	-10155	-17433
4934589	15588	-10435	-16576
4934917	15442	-10762	-15401
4935245	15080	-10774	-14019
4935573	14863	-11024	-12514
4935901	14937	-10987	-10798
4936229	15398	-10301	-9467
4936557	15219	-9533	-8078
4936885	14381	-8335	-6636
4937213	13719	-6327	-4952
4937541	11174	-3698	-3247
4937869	9391	-1766	-1564
4938197	7488	15	-227
4938525	5286	1836	1045
4938853	2701	3427	2527
4939181	1585	4807	3447
4939509	-3739	9518	3494
4939837	-4872	15597	5918
4940165	3888	2860	10883
4940493	5473	1292	11019
4940821	7897	449	10452
4941149	9948	-1509	7105
4941477	10537	-1626	5270
4941805	12272	225	5808
4942133	8764	8548	6730
4942461	5009	10233	6926
4942789	6338	7433	5192
4943117	1807	5397	4913
4943445	2697	3786	6566
4943773	466	3198	8460
4944101	-2809	3877	8256
4944429	-2263	1969	6585
4944757	-1064	1724	5691
4945085	1326	1686	5335
4945413	4718	858	4778
4945741	6767	302	4898
4946069	6766	-154	4692
4946397	5046	-392	4364
4946725	3084	430	4050
4947053	611	1294	3789
4947381	-632	1543	3794
4947709	-656	1458	3714
4948037	-344	992	3596
4948365	716	-201	3218
4948693	1705	-278	3366
4949021	2426	-503	3162
4949349	2472	-239	2667
4949677	2541	-209	2341
4950005	2103	-436	2081
4950333	1582	10	1794
4950661	756	354	1633
4950989	89	65	1557
4951317	-369	-243	1571
4951645	-347	-180	1433
4951973	-325	23	1201
4952301	-200	-39	1058
4952629	-166	-129	958
4952957	-82	-191	835
4953285	61	-124	724
4953613	214	-33	595
4953941	50	113	519
4954269	35	214	336
4954597	104	448	163
4954925	-80	619	-1
4955253	-93	653	-52
4955581	-265	775	-135
4955909	-461	832	-197
4956237	-753	853	-291
4956565	-834	886	-347
4956893	-845	857	-380
4957221	-785	757	-421
4957549	-666	732	-462
4957877	-598	671	-510
4958205	-584	673	-530
4958533	-622	659	-581
4958861	-617	618	-618
4959189	-539	576	-640
4959517	-466	524	-658
4959845	-352	433	-687
4960173	-283	384	-729
4960501	-197	262	-734
4960829	-161	156	-728
4961157	-300	518	-784
4961485	-239	281	-838
4961813	-270	171	-859
4962141	-215	-22	-871
4962469	-244	-142	-908
4962797	-205	-310	-941
4963125	-159	-504	-1035
4963453	-112	-644	-1104
4963781	-6	-665	-1212
4964109	114	-767	-1286
4964437	148	-884	-1433
4964765	211	-919	-1599
4965093	391	-947	-1761
4965421	528	-1055	-1905
4965749	708	-1313	-2129
4966077	545	-1258	-2106
4966405	488	-1283	-2200
4966733	547	-1393	-2266
4967061	497	-1259	-2446
4967389	442	-1098	-2783
4967717	209	-1138	-2652
4968045	302	-1307	-2651
4968373	-188	-960	-2737
4968701	-303	-966	-2805
4969029	-375	-1287	-2728
4969357	-291	-1112	-2832
4969685	-115	-1125	-2855
4970013	208	-1197	-2793
4970341	378	-1229	-2819
4970669	356	-1388	-2865
4970997	127	-1563	-2910
4971325	-200	-1707	-3014
4971653	-524	-1671	-3211
4971981	-841	-1956	-3550
4972309	-1632	-1809	-3991
4972637	-1858	-1301	-4569
4972965	-1962	-1505	-5124
4973293	-1099	-1811	-5568
4973621	-1054	-2182	-6165
4973949	-1614	-2274	-6665
4974277	-2365	-2439	-7042
4974605	-3211	-2946	-7501
4974933	-4067	-3090	-7400
4975261	-4491	-3601	-7279
4975589	-5363	-2737	-7265
4975917	-4816	-2802	-7042
4976245	-5511	-3678	-6708
4976573	-6288	-3666	-6725
4976901	-8106	-3504	-6962
4977229	-10538	-2314	-7192
4977557	-13952	-172	-7345
4977885	-18363	2453	-6650
4978213	-22482	5245	-5306
4978541	-26352	7270	-2688
4978869	-28480	7612	371
4979197	-28036	5761	4262
4979525	-25913	5252	6681
4979853	-21368	4273	7893
4980181	-15134	2746	8620
4980509	-9371	587	8771
4980837	-5570	1356	8706
4981165	-3839	474	8551
4981493	-3694	-220	8150
4981821	-4896	-235	7496
4982149	-6231	-509	7204
4982477	-7606	-594	7178
4982805	-8569	-912	7083
4983133	-9018	-947	6844
4983461	-9309	-1499	6559
4983789	-8604	-1839	6259
4984117	-7607	-2002	5823
4984445	-7234	-2351	5530
4984773	-5500	-1615	5299
4985101	-5924	-2443	4816
4985429	-4981	-1964	4525
4985757	-5270	-2070	4056
4986085	-5352	-2106	3618
4986413	-5425	-2276	3087
4986741	-4933	-2209	2613
4987069	-4548	-2036	2262
4987397	-4373	-1931	1780
4987725	-4325	-1702	1364
4988053	-4180	-1444	1164
4988381	-4249	-995	620
4988709	-5294	-1460	576
4989037	-5700	-1391	573
4989365	-5644	-1227	530
4989693	-5507	-1140	693
4990021	-5434	-995	805
4990349	-4967	-965	1013
4990677	-4529	-927	1311
4991005	-4106	-713	1587
4991333	-3951	-388	1705
4991661	-3164	-361	1861
4991989	-2325	-598	2028
4992317	-2326	-598	2045
4992645	-599	-257	2356
4992973	-48	26	2660
4993301	653	670	2833
4993629	1226	991	3100
4993957	1756	1192	3802
4994285	911	1620	3425
4994613	269	2618	2775
4994941	197	2382	2930
4995269	-687	2779	3706
4995597	-2259	4262	3943
4995925	-2602	3436	3833
4996253	-2803	3413	3958
4996581	-2641	4141	4214
4996909	-1753	4227	3800
4997237	-1075	3346	3966
4997565	-610	2906	3416
4997893	-184	3102	3344
4998221	-259	4376	3412
4998549	1288	3710	4068
4998877	1664	761	4188
4999205	3724	1792	3572
4999533	4706	1937	3154
4999861	4886	3704	2782
5000189	3344	3970	2232
5000517	1803	1759	1577
5000845	963	2548	1831
5001173	542	2635	1856
5001501	962	2407	1535
5001829	1150	2088	1257
5002157	810	2172	800
5002485	748	2248	613
5002813	573	2256	479
5003141	460	2044	265
5003469	578	1969	330
5003797	178	1818	477
5004125	-204	1752	71
5004453	-443	2004	-299
5004781	-703	2007	-573
5005109	-755	1874	-827
5005437	-885	1842	-873
5005765	-851	1770	-1007
5006093	-1216	1830	-1229
5006421	-1568	2007	-1488
5006749	-1572	1999	-1742
5007077	-1022	1850	-1839
5007405	-526	1636	-1967
5007733	-695	1752	-2192
5008061	-925	2063	-2358
5008389	-1240	2190	-2542
5008717	-1595	2251	-2697
5009045	-1951	2307	-2760
5009373	-3205	2861	-2578
5009701	-4221	3248	-2605
5010029	-5404	3615	-2568
5010357	-6775	4190	-2498
5010685	-8188	4597	-2303
5011013	-9391	5103	-2116
5011341	-10175	5391	-1965
5011669	-10803	6020	-1729
5011997	-11352	6661	-1535
5012325	-11991	7271	-1649
5012653	-13127	7614	-2112
5012981	-14456	7970	-2134
5013309	-14621	8211	-1697
5013637	-15638	9191	-1445
5013965	-17640	10590	-934
5014293	-20024	11085	-184
5014621	-21676	12408	-224
5014949	-23222	12595	-149
5015277	-23310	12322	282
5015605	-22369	11932	680
5015933	-20344	11157	1039
5016261	-18684	10050	1366
5016589	-17349	8802	1858
5016917	-15047	7072	1466
5017245	-11952	5498	621
5017573	-8663	4091	-273
5017901	-6222	3272	-228
5018229	-4329	2617	17
5018557	-3128	3065	538
5018885	-2494	2489	1185
5019213	-1964	2156	1505
5019541	-1873	2265	1667
5019869	-1738	2943	1968
5020197	-1771	2608	1700
5020525	-1329	2470	2389
5020853	-1483	2319	2620
5021181	-1676	1469	2504
5021509	-1237	1824	2650
5021837	-1338	1965	2799
5022165	-1776	2581	2700
5022493	-1814	2745	2433
5022821	-2067	2126	2053
5023149	-1926	1749	1735
5023477	-1735	1617	1481
5023805	-1695	1555	1376
5024133	-1763	1552	1195
5024461	-1663	2046	1191
5024789	-3016	2123	1115
5025117	-3799	1650	1088
5025445	-4474	1675	1111
5025773	-4727	1750	1070
5026101	-4921	1786	1075
5026429	-5324	1747	1019
5026757	-5735	1876	933
5027085	-5672	1899	985
5027413	-5240	1559	987
5027741	-5177	1328	1119
5028069	-4713	1443	1243
5028397	-4261	1592	1446
5028725	-4092	1628	1690
5029053	-4218	1672	1848
5029381	-4442	1700	1905
5029709	-4616	1802	1835
5030037	-4520	1764	1721
5030365	-4462	1498	1723
5030693	-4159	1319	1804
5031021	-3570	1026	1902
5031349	-3128	576	1931
5031677	-2697	360	2050
5032005	-2375	428	2092
5032333	-2676	620	2134
5032661	-2793	1085	1994
5032989	-3866	991	1703
5033317	-4365	1057	1486
5033645	-4664	967	1348
5033973	-4573	649	1338
5034301	-4410	461	1502
5034629	-4140	686	1716
5034957	-4703	1221	1727
5035285	-5760	1318	1723
5035613	-6923	1242	1626
5035941	-7867	1050	1443
5036269	-8197	909	1296
5036597	-7844	657	1427
5036925	-7410	155	1790
5037253	-7507	110	2207
5037581	-7661	818	2306
5037909	-8590	1465	2412
5038237	-9895	1793	2390
5038565	-10870	1859	1918
5038893	-11509	1699	1308
5039221	-11144	1656	996
5039549	-10670	2463	977
5039877	-10660	3876	1467
5040205	-11349	5837	1805
5040533	-13062	7295	1700
5040861	-14718	8555	1311
5041189	-15579	9224	888
5041517	-15797	9843	197
5041845	-15658	10383	-434
5042173	-15580	11198	-953
5042501	-16297	12110	-1256
5042829	-16563	13175	-1351
5043157	-16967	13908	-1201
5043485	-16917	13625	-1161
5043813	-16378	13217	-1249
5044141	-15474	12389	-1408
5044469	-14282	11520	-1746
5044797	-13255	10322	-2151
5045125	-12121	9448	-2713
5045453	-11297	7978	-3208
5045781	-10209	6524	-3299
5046109	-10082	5165	-3767
5046437	-8721	4977	-2130
5046765	-5941	3598	-2198
5047093	-3116	-195	-351
5047421	-3678	-5684	219
5047749	1529	-1737	-1286
5048077	4753	1347	-795
5048405	6907	5427	-711
5048733	5792	5641	-155
5049061	904	2758	-692
5049389	-3136	1666	-881
5049717	-5371	1289	-1170
5050045	-6175	1355	-1485
5050373	-6715	1243	-1172
5050701	-5382	724	-823
5051029	-2686	196	-746
5051357	-394	-93	-410
5051685	818	-318	-116
5052013	1619	-812	1
5052341	1943	-936	177
5052669	1789	-405	267
5052997	1132	58	278
5053325	245	-165	226
5053653	-737	-418	168
5053981	-1114	-245	138
5054309	-920	-197	141
5054637	-633	-251	157
5054965	-171	-341	176
5055293	198	-206	217
5055621	203	-364	245
5055949	443	-285	298
5056277	422	-274	256
5056605	327	-325	287
5056933	181	-592	296
5057261	54	-649	252
5057589	-152	-436	201
5057917	-109	-264	171
5058245	-117	-244	156
5058573	-108	-354	185
5058901	-74	-550	256
5059229	175	-696	313
5059557	491	-803	399
5059885	1030	-1038	492
5060213	1617	-1267	569
5060541	2371	-1660	634
5060869	3182	-2161	653
5061197	3889	-2494	703
5061525	4639	-3058	781
5061853	5032	-3262	989
5062181	4627	-3329	1382
5062509	3795	-3549	1674
5062837	3368	-3882	2286
5063165	2520	-4736	2661
5063493	1872	-5682	2454
5063821	2409	-6619	2009
5064149	4000	-7608	1767
5064477	6228	-8398	1829
5064805	8453	-9427	2486
5065133	8974	-10342	2892
5065461	10168	-11203	3079
5065789	11866	-12627	2450
5066117	13715	-13119	2456
5066445	14443	-12528	1733
5066773	15144	-12107	2275
5067101	14987	-12154	1737
5067429	14835	-13199	1230
5067757	14666	-13792	-165
5068085	14796	-14120	-377
5068413	15375	-15531	-2111
5068741	16043	-14594	-2621
5069069	14615	-13921	-2506
5069397	11855	-14837	-2479
5069725	10805	-15186	-2466
5070053	10048	-15455	-3466
5070381	10720	-15378	-3593
5070709	13245	-15088	-3894
5071037	16145	-14923	-4068
5071365	19284	-13819	-4087
5071693	20932	-12610	-2578
5072021	20175	-9946	253
5072349	16449	-7907	2848
5072677	12002	-7464	2329
5073005	11338	-6568	375
5073333	10644	-5460	-230
5073661	10843	-2723	-1779
5073989	8115	-971	-2337
5074317	6140	1119	-2694
5074645	3915	2373	-2783
5074973	2195	2380	-3234
5075301	1043	2463	-3885
5075629	710	2110	-4496
5075957	2249	104	-5028
5076285	4547	-1152	-4499
5076613	6426	-1660	-3830
5076941	7853	-1307	-3742
5077269	8632	93	-3999
5077597	8670	242	-3836
5077925	8083	780	-3917
5078253	6365	296	-4140
5078581	6066	-771	-3760
5078909	5153	-1541	-3944
5079237	5966	-2997	-2327
5079565	6589	-3920	-1695
5079893	8374	-2509	-1430
5080221	7784	-1312	-1639
5080549	5982	-621	-1892
5080877	3147	-1024	-2719
5081205	823	-415	-2785
5081533	619	-286	-3019
5081861	737	-256	-2943
5082189	1579	-721	-2809
5082517	1956	-455	-2639
5082845	2070	-38	-2276
5083173	2452	381	-1941
5083501	1799	273	-1864
5083829	1203	390	-1823
5084157	737	506	-1810
5084485	846	336	-1581
5084813	1231	-332	-1347
5085141	1755	-1200	-1172
5085469	2898	-1726	-1090
5085797	3065	-2278	-996
5086125	3647	-2735	-763
5086453	3797	-2092	-795
5086781	3238	-1403	-770
5087109	2312	-1251	-800
5087437	1020	-1189	-911
5087765	838	-1429	-1203
5088093	699	-823	-1402
5088421	1066	-1776	-1621
5088749	1374	-1585	-1316
5089077	1336	-1327	-1129
5089405	972	-1275	-1091
5089733	342	-1464	-1214
5090061	108	-1691	-1354
5090389	187	-2011	-1489
5090717	462	-2098	-1651
5091045	920	-1893	-1743
5091373	1449	-2129	-1760
5091701	1425	-2446	-1817
5092029	1371	-2730	-1926
5092357	1190	-3051	-2079
5092685	773	-3305	-2222
5093013	654	-3530	-2394
5093341	454	-3470	-2542
5093669	341	-3437	-2531
5093997	-95	-3449	-2328
5094325	-1023	-3219	-2453
5094653	-1501	-3576	-2484
5094981	-1932	-3881	-2863
5095309	-1788	-3942	-3232
5095637	-1235	-3839	-3411
5095965	-652	-3982	-3455
5096293	75	-4033	-3345
5096621	879	-3949	-3278
5096949	1428	-4445	-3222
5097277	1993	-4857	-3139
5097605	4196	-5935	-2652
5097933	5538	-7492	-1581
5098261	7024	-8686	-872
5098589	10129	-10581	-483
5098917	14264	-12660	-250
5099245	19446	-11968	-813
5099573	23229	-10542	-216
5099901	23225	-10990	-43
5100229	25830	-10966	1144
5100557	23749	-11613	423
5100885	21983	-11545	327
5101213	20600	-11472	143
5101541	19164	-10170	-189
5101869	18128	-9349	-333
5102197	17271	-8919	-720
5102525	15576	-8077	-1791
5102853	13704	-6727	-2449
5103181	11791	-4430	-3023
5103509	8016	-2761	-3201
5103837	4955	-1757	-2786
5104165	3614	-2292	-1387
5104493	2357	-3854	-770
5104821	1456	-2844	-1404
5105149	1453	-1708	-1528
5105477	1489	-1427	-1015
5105805	798	-134	-838
5106133	-633	1434	-816
5106461	-2584	630	-864
5106789	-4079	1353	-684
5107117	-4783	1921	-491
5107445	-4981	1607	-472
5107773	-4430	1306	-536
5108101	-3027	902	-519
5108429	-1727	1060	-394
5108757	-162	497	-61
5109085	1021	169	70
5109413	1760	28	-57
5109741	2275	-60	-135
5110069	2839	-443	-200
5110397	3277	-648	-171
5110725	3397	-418	-130
5111053	2910	-161	-104
5111381	2195	3	-171
5111709	1324	-125	-88
5112037	618	-121	-174
5112365	46	-237	-277
5112693	-93	-5	-378
5113021	-212	-59	-414
5113349	-306	40	-336
5113677	-390	84	-367
5114005	-481	169	-241
5114333	-232	51	-327
5114661	-41	276	-408
5114989	-16	235	-453
5115317	31	439	-402
5115645	96	425	-334
5115973	180	292	-225
5116301	206	296	-114
5116629	226	286	-61
5116957	274	243	-34
5117285	347	246	-5
5117613	358	230	6
5117941	120	373	18
5118269	-40	316	2
5118597	-259	290	-58
5118925	-473	394	-86
5119253	-586	309	-103
5119581	-553	260	-108
5119909	-504	181	-144
5120237	-397	191	-130
5120565	-370	281	-116
5120893	-337	371	-114
5121221	-327	368	-135
5121549	-299	372	-143
5121877	-299	316	-125
5122205	-177	243	-112
5122533	-61	164	-107
5122861	-11	144	-98
5123189	20	145	-70
5123517	-15	139	-52
5123845	-117	142	-18
5124173	-285	170	-13
5124501	-465	172	11
5124829	-637	131	28
5125157	-706	61	54
5125485	-689	54	54
5125813	-660	68	7
5126141	-587	42	-6
5126469	-675	106	-54
5126797	-836	452	-112
5127125	-833	464	-122
5127453	-678	319	-145
5127781	-629	306	-140
5128109	-643	343	-115
5128437	-599	277	-109
5128765	-463	188	-76
5129093	-315	127	-64
5129421	-166	133	-59
5129749	-65	111	-49
5130077	-20	115	-64
5130405	-24	153	-61
5130733	-66	172	-86
5131061	-111	157	-89
5131389	-173	166	-102
5131717	-138	128	-112
5132045	-141	136	-117
5132373	-142	126	-124
5132701	-130	74	-133
5133029	-107	65	-110
5133357	-98	90	-89
5133685	-104	147	-73
5134013	-161	180	-55
5134341	-79	206	-67
5134669	-67	215	-74
5134997	-103	198	-60
5135325	-127	173	-48
5135653	-191	162	-32
5135981	-178	162	-38
5136309	-156	127	-41
5136637	-115	136	-43
5136965	-91	157	-40
5137293	-85	150	-51
5137621	-44	112	-47
5137949	-53	104	-30
5138277	-55	75	-28
5138605	-40	51	-30
5138933	21	4	-18
5139261	74	-44	15
5139589	262	-89	9
5139917	411	-39	33
5140245	373	29	41
5140573	188	33	56
5140901	-25	90	66
5141229	-191	105	64
5141557	-275	76	63
5141885	-225	24	47
5142213	-136	29	39
5142541	-55	46	28
5142869	-78	104	2
5143197	-172	88	35
5143525	-218	113	-6
5143853	-323	140	-12
5144181	-415	206	5
5144509	-445	276	-7
5144837	-327	207	-23
5145165	-203	195	-10
5145493	-110	184	8
5145821	-223	145	-2
5146149	-478	176	-30
5146477	-761	298	-50
5146805	-885	508	-160
5147133	-885	624	-255
5147461	-474	625	-254
5147789	-33	537	-93
5148117	176	527	50
5148445	259	795	106
5148773	0	920	115
5149101	-231	1021	181
5149429	-361	1190	249
5149757	-493	1403	249
5150085	-523	1529	198
5150413	-518	1614	90
5150741	-442	1645	-34
5151069	-243	1616	-130
5151397	67	1349	-306
5151725	456	1181	-458
5152053	962	1126	-691
5152381	1463	1102	-923
5152709	1842	951	-1098
5153037	2133	1007	-1345
5153365	2400	944	-1582
5153693	2632	740	-1837
5154021	2765	567	-2065
5154349	2797	421	-2322
5154677	2855	466	-2552
5155005	2781	673	-2768
5155333	2617	909	-2915
5155661	2185	1016	-2989
5155989	1630	1029	-3109
5156317	1061	917	-3264
5156645	865	709	-3330
5156973	914	559	-3270
5157301	1304	402	-3224
5157629	1765	260	-3132
5157957	2434	331	-2958
5158285	2793	305	-2841
5158613	2869	255	-2599
5158941	2607	396	-2473
5159269	2212	498	-2299
5159597	1636	567	-2043
5159925	1156	604	-1763
5160253	911	639	-1570
5160581	820	499	-1407
5160909	1110	487	-1192
5161237	1467	262	-1064
5161565	1673	158	-837
5161893	1693	164	-713
5162221	1587	89	-528
5162549	1405	21	-422
5162877	1119	20	-285
5163205	960	-97	-165
5163533	816	-151	-144
5163861	880	22	-102
5164189	985	-144	-131
5164517	1090	-283	-89
5164845	1187	-321	-138
5165173	1244	-321	-230
5165501	1276	-335	-202
5165829	961	-440	-203
5166157	765	-96	-269
5166485	457	-239	-259
5166813	83	-181	-304
5167141	-317	-128	-238
5167469	-678	16	-152
5167797	-1078	112	-25
5168125	-1440	162	67
5168453	-1707	239	150
5168781	-1933	250	245
5169109	-2049	-10	420
5169437	-1969	-104	558
5169765	-1794	-317	716
5170093	-1785	-308	1062
5170421	-2108	-69	1514
5170749	-2533	280	1969
5171077	-2924	557	2386
5171405	-3172	706	2637
5171733	-3155	871	2784
5172061	-2950	967	2871
5172389	-2653	1225	2887
5172717	-2147	1430	2711
5173045	-1840	1812	2534
5173373	-1986	2039	2624
5173701	-1814	2340	2795
5174029	-2442	4270	2488
5174357	-3837	6287	2314
5174685	-5059	6720	2395
5175013	-6036	6130	2413
5175341	-6297	5539	2072
5175669	-5714	5126	1378
5175997	-4452	4522	603
5176325	-2996	4041	-511
5176653	-1496	3156	-1193
5176981	196	2367	-1849
5177309	1127	1600	-2618
5177637	1982	717	-3334
5177965	2561	-22	-4079
5178293	2906	-266	-3909
5178621	2134	-838	-4362
5178949	1566	-1446	-3865
5179277	87	-812	-3044
5179605	-1893	147	-1781
5179933	-1863	-32	-642
5180261	-1948	-578	-934
5180589	-1534	-673	-1501
5180917	-776	-668	-1662
5181245	111	-877	-1493
5181573	1254	-851	-1211
5181901	1667	-319	-1314
5182229	1430	-120	-1693
5182557	1322	93	-1772
5182885	594	267	-1844
5183213	-337	489	-1776
5183541	-1343	723	-1528
5183869	-1037	495	-1314
5184197	-645	79	-1326
5184525	222	-390	-1095
5184853	799	-635	-1305
5185181	1421	-584	-1220
5185509	1884	-585	-1254
5185837	1896	-579	-1209
5186165	1594	-228	-1103
5186493	990	-283	-1035
5186821	271	-312	-1041
5187149	-205	-144	-1058
5187477	-395	-167	-1069
5187805	-281	-241	-1146
5188133	3	-598	-1317
5188461	130	-443	-1446
5188789	306	-413	-1524
5189117	385	-510	-1618
5189445	514	-559	-1689
5189773	498	-536	-1681
5190101	473	-544	-1721
5190429	469	-427	-1686
5190757	469	-438	-1696
5191085	567	-423	-1662
5191413	496	-365	-1618
5191741	499	-251	-1637
5192069	392	-357	-1567
5192397	245	-321	-1546
5192725	128	-266	-1397
5193053	4	-291	-1280
5193381	-14	-352	-1261
5193709	29	-360	-1314
5194037	-50	-354	-1311
5194365	-210	-218	-1250
5194693	-441	-75	-1194
5195021	-677	65	-1173
5195349	-970	178	-1181
5195677	-1194	192	-1144
5196005	-1341	158	-1112
5196333	-1032	68	-1045
5196661	-864	-47	-980
5196989	-608	-81	-996
5197317	-232	-217	-1053
5197645	-32	-158	-977
5197973	7	-35	-916
5198301	29	11	-919
5198629	53	-18	-923
5198957	52	-38	-946
5199285	-20	-97	-886
5199613	-195	18	-835
5199941	-463	226	-839
5200269	-540	232	-876
5200597	-325	27	-849
5200925	-178	110	-698
5201253	-267	18	-616
5201581	-475	102	-581
5201909	-620	99	-592
5202237	-544	57	-568
5202565	-437	-3	-531
5202893	-294	-11	-451
5203221	-136	-59	-386
5203549	-236	39	-358
5203877	-166	30	-350
5204205	5	22	-301
5204533	-6	60	-227
5204861	-21	39	-159
5205189	-56	-8	-99
5205517	62	-33	-72
5205845	174	-49	-2
5206173	269	-22	83
5206501	356	-49	137
5206829	343	8	184
5207157	200	60	221
5207485	172	49	267
5207813	146	48	300
5208141	124	55	343
5208469	158	45	389
5208797	182	39	441
5209125	198	24	502
5209453	186	7	548
5209781	151	104	615
5210109	68	166	683
5210437	57	182	738
5210765	52	216	809
5211093	66	205	850
5211421	108	241	920
5211749	121	266	980
5212077	210	281	1023
5212405	205	339	1055
5212733	181	328	1050
5213061	147	346	1079
5213389	64	440	1086
5213717	-55	458	1111
5214045	-165	495	1103
5214373	-146	463	1075
5214701	-193	468	1069
5215029	-106	466	1072
5215357	-15	455	1082
5215685	111	447	1092
5216013	228	421	1116
5216341	342	427	1141
5216669	427	498	1183
5216997	461	337	1166
5217325	499	424	1189
5217653	522	467	1222
5217981	427	483	1272
5218309	279	654	1258
5218637	190	683	1276
5218965	155	684	1267
5219293	257	661	1301
5219621	317	637	1337
5219949	383	621	1366
5220277	377	628	1372
5220605	355	662	1352
5220933	315	655	1354
5221261	270	698	1344
5221589	227	706	1315
5221917	144	739	1314
5222245	19	854	1277
5222573	7	751	1257
5222901	4	753	1270
5223229	-40	801	1242
5223557	-139	749	1241
5223885	-219	812	1224
5224213	-354	874	1228
5224541	-509	872	1199
5224869	-568	847	1173
5225197	-621	798	1094
5225525	-630	773	996
5225853	-574	649	889
5226181	-561	585	858
5226509	-639	629	760
5226837	-621	610	708
5227165	-572	596	624
5227493	-408	465	596
5227821	-261	359	587
5228149	-221	375	600
5228477	-404	498	592
5228805	-436	430	586
5229133	-488	449	542
5229461	-461	489	493
5229789	-356	485	481
5230117	-180	430	439
5230445	-88	385	392
5230773	-16	411	338
5231101	19	383	267
5231429	164	366	215
5231757	297	342	182
5232085	397	259	103
5232413	346	305	86
5232741	226	350	76
5233069	58	366	49
5233397	-42	371	38
5233725	-63	379	18
5234053	-111	358	7
5234381	-107	282	-3
5234709	-51	301	48
5235037	-42	341	45
5235365	-112	325	35
5235693	-123	352	23
5236021	-273	405	10
5236349	-300	399	6
5236677	-365	425	39
5237005	-442	321	29
5237333	-462	373	-7
5237661	-412	410	-69
5237989	-321	335	-104
5238317	-323	318	-85
5238645	-460	428	-77
5238973	-548	602	-81
5239301	-712	529	-50
5239629	-624	498	3
5239957	-594	452	21
5240285	-565	603	-6
5240613	-597	545	-39
5240941	-619	473	-36
5241269	-680	501	-53
5241597	-790	532	-99
5241925	-833	537	-119
5242253	-805	465	-72
5242581	-675	402	-39
5242909	-523	346	-36
5243237	-430	403	-55
5243565	-319	409	-45
5243893	-318	383	-26
5244221	-463	409	-48
5244549	-733	506	-70
5244877	-975	427	-73
5245205	-1004	331	-37
5245533	-844	275	-20
5245861	-634	205	3
5246189	-386	176	6
5246517	-190	162	-16
5246845	3	137	-60
5247173	205	45	-62
5247501	379	24	-95
5247829	520	31	-111
5248157	547	3	-142
5248485	442	-17	-167
5248813	388	18	-140
5249141	430	9	-102
5249469	436	47	-92
5249797	379	21	-107
5250125	390	-32	-123
5250453	473	-82	-135
5250781	560	-94	-149
5251109	621	-79	-165
5251437	724	-114	-193
5251765	796	-163	-227
5252093	973	-220	-279
5252421	1035	-255	-342
5252749	1256	-225	-399
5253077	1448	-279	-455
5253405	1690	-303	-487
5253733	1747	-191	-511
5254061	1927	-235	-484
5254389	1766	-95	-452
5254717	1542	-13	-345
5255045	1094	117	-232
5255373	448	278	-165
5255701	-195	346	-102
5256029	-770	431	-117
5256357	-866	150	-51
5256685	-712	220	-87
5257013	-501	213	-69
5257341	-145	197	-48
5257669	59	176	12
5257997	59	189	55
5258325	93	270	61
5258653	25	247	72
5258981	-88	152	36
5259309	-154	259	62
5259637	-162	170	87
5259965	-132	95	127
5260293	-266	127	129
5260621	-352	105	149
5260949	-365	76	158
5261277	-292	67	167
5261605	-216	88	175
5261933	-104	85	163
5262261	-9	57	150
5262589	55	30	137
5262917	76	66	149
5263245	5	76	135
5263573	-11	86	132
5263901	-37	31	118
5264229	-43	32	113
5264557	16	-59	111
5264885	10	-22	109
5265213	10	39	116
5265541	67	-4	125
5265869	69	-27	86
5266197	83	15	87
5266525	61	-25	80
5266853	24	5	60
5267181	0	20	48
5267509	-9	20	47
5267837	-20	-22	34
5268165	-43	25	36
5268493	-34	29	33
5268821	-13	32	25
5269149	-10	37	30
5269477	-12	32	23
5269805	-8	39	-2
5270133	-21	62	-14
5270461	-22	30	-13
5270789	11	19	-24
5271117	-5	75	-40
5271445	26	47	-28
5271773	60	15	-44
5272101	20	44	-47
5272429	1	85	-31
5272757	-32	49	-24
5273085	-65	50	-12
5273413	-61	52	-9
5273741	-69	57	-15
5274069	-62	48	-14
5274397	-48	44	-1
5274725	-61	58	-7
5275053	-49	87	3
5275381	-77	88	-2
5275709	-111	84	0
5276037	-128	78	-8
5276365	-116	64	-8
5276693	-75	23	-14
5277021	-2	0	-10
5277349	15	-17	-5
5277677	50	-23	-14
5278005	48	-19	-36
5278333	-22	3	-46
5278661	-66	-56	-58
5278989	-101	6	-62
5279317	-144	66	-100
5279645	-192	108	-107
5279973	-157	152	-105
5280301	-104	132	-120
5280629	8	106	-94
5280957	93	77	-74
5281285	118	45	-62
5281613	221	310	-18
5281941	173	86	-9
5282269	52	-7	7
5282597	75	59	0
5282925	145	41	54
5283253	177	43	69
5283581	174	-11	97
5283909	112	24	135
5284237	80	28	141
5284565	65	17	165
5284893	52	-4	159
5285221	38	9	149
5285549	31	29	138
5285877	34	32	148
5286205	-10	60	139
5286533	-69	87	136
5286861	-176	113	118
5287189	-240	162	103
5287517	-222	146	102
5287845	-203	145	105
5288173	-158	127	121
5288501	-156	145	119
5288829	-152	146	116
5289157	-148	125	138
5289485	-140	123	125
5289813	-89	114	110
5290141	-73	115	118
5290469	-85	125	120
5290797	-126	137	124
5291125	-175	153	118
5291453	-223	175	105
5291781	-257	177	94
5292109	-231	162	63
5292437	-198	148	39
5292765	-123	161	23
5293093	-80	143	6
5293421	-9	143	7
5293749	-6	125	16
5294077	-13	120	25
5294405	-44	129	12
5294733	-88	146	28
5295061	-152	155	14
5295389	-206	149	-3
5295717	-216	149	12
5296045	-211	148	24
5296373	-147	133	19
5296701	-110	130	-12
5297029	-70	125	-14
5297357	-23	145	-17
5297685	1	119	-12
5298013	22	18	7
5298341	36	127	-21
5298669	5	114	-12
5298997	-17	128	-10
5299325	-10	139	13
5299653	-4	116	20
5299981	-34	143	41
5300309	-25	148	38
5300637	-23	134	28
5300965	-20	117	29
5301293	-4	127	10
5301621	27	110	3
5301949	60	122	2
5302277	68	127	-3
5302605	64	140	-13
5302933	53	127	4
5303261	18	126	22
5303589	-28	144	33
5303917	-42	126	30
5304245	-43	130	28
5304573	-56	139	28
5304901	-70	141	22
5305229	-98	154	13
5305557	-140	160	7
5305885	-171	170	-7
5306213	-167	159	-14
5306541	-176	159	-21
5306869	-180	171	-13
5307197	-188	169	-22
5307525	-178	183	-19
5307853	-178	180	-21
5308181	-185	187	-18
5308509	-194	170	-25
5308837	-202	169	-27
5309165	-180	173	-21
5309493	-142	143	-19
5309821	-156	159	-28
5310149	-140	168	-29
5310477	-159	181	-30
5310805	-178	170	-41
5311133	-207	188	-40
5311461	-236	204	-42
5311789	-224	200	-45
5312117	-143	150	-52
5312445	-117	182	-48
5312773	-138	187	-56
5313101	-118	184	-59
5313429	-103	165	-64
5313757	-96	172	-55
5314085	-117	177	-59
5314413	-136	192	-54
5314741	-127	176	-64
5315069	-73	147	-54
5315397	-45	146	-56
5315725	-30	141	-49
5316053	-5	138	-51
5316381	11	135	-34
5316709	8	141	-29
5317037	-15	164	-30
5317365	-13	151	-27
5317693	20	148	-38
5318021	39	128	-34
5318349	49	122	-26
5318677	53	130	-23
5319005	49	130	-37
5319333	65	118	-32
5319661	90	114	-44
5319989	87	125	-40
5320317	57	125	-24
5320645	66	85	-33
5320973	100	143	-37
5321301	139	128	-32
5321629	130	115	-19
5321957	94	74	-42
5322285	160	129	-57
5322613	111	97	-68
5322941	102	94	-88
5323269	122	87	-87
5323597	107	76	-105
5323925	59	102	-120
5324253	45	113	-104
5324581	89	180	-107
5324909	40	272	-102
5325237	-12	104	-95
5325565	-26	162	-91
5325893	-44	159	-80
5326221	-76	166	-83
5326549	-60	132	-85
5326877	-71	166	-81
5327205	-37	151	-72
5327533	-14	146	-78
5327861	-31	162	-58
5328189	-65	152	-52
5328517	-69	140	-36
5328845	-117	151	-31
5329173	-175	183	-20
5329501	-163	252	-15
5329829	-160	240	-7
5330157	-183	193	2
5330485	-154	173	-3
5330813	-105	202	21
5331141	-65	158	39
5331469	34	116	44
5331797	73	110	40
5332125	80	123	50
5332453	51	129	50
5332781	22	98	50
5333109	11	112	20
5333437	5	56	4
5333765	-8	-39	-10
5334093	-154	-19	24
5334421	-307	302	93
5334749	-472	150	111
5335077	-149	-101	101
5335405	362	-142	156
5335733	323	178	170
5336061	179	237	100
5336389	36	91	99
5336717	-149	118	150
5337045	-14	207	107
5337373	-75	232	117
5337701	-25	155	125
5338029	-3	269	187
5338357	-230	527	449
5338685	-508	457	617
5339013	-950	467	609
5339341	-1011	641	842
5339669	-1019	640	1099
5339997	-1010	646	1217
5340325	-984	680	1341
5340653	-993	786	1529
5340981	-1114	1052	1726
5341309	-1239	1239	1894
5341637	-1094	1387	2170
5341965	-646	1306	2399
5342293	-200	1251	2485
5342621	28	1272	2618
5342949	151	1291	2754
5343277	76	1481	2895
5343605	-402	1752	3164
5343933	-893	2105	3334
5344261	-1305	1907	3390
5344589	-1353	2102	3471
5344917	-1398	1766	3430
5345245	-1082	1850	3359
5345573	-658	1777	3422
5345901	-293	1675	3618
5346229	-43	1612	3813
5346557	-23	1467	4073
5346885	-60	1508	3968
5347213	189	988	3797
5347541	739	713	3500
5347869	1285	666	2975
5348197	1940	796	2979
5348525	1789	1146	3286
5348853	1019	1284	3801
5349181	83	1499	4130
5349509	147	1095	4569
5349837	786	633	4245
5350165	1382	66	4031
5350493	2015	-402	3888
5350821	2088	63	3577
5351149	1278	1383	3406
5351477	-88	2255	3575
5351805	-1031	1652	3948
5352133	-1333	730	3829
5352461	-1210	1444	3836
5352789	-886	1451	3182
5353117	69	1606	3092
5353445	18	924	2430
5353773	-178	1546	1473
5354101	-678	2498	430
5354429	-1337	3447	-378
5354757	-783	2883	-1539
5355085	601	1534	-2500
5355413	182	2363	-3542
5355741	1737	3877	-3098
5356069	-871	4276	-3815
5356397	-2974	3721	-4032
5356725	-5057	2109	-5039
5357053	-6053	-257	-5313
5357381	-6200	-2831	-5648
5357709	-5251	-5195	-6440
5358037	-3910	-6694	-6687
5358365	-4256	-8437	-7718
5358693	-3952	-7833	-9472
5359021	-3975	-6947	-9899
5359349	-4911	-6051	-9202
5359677	-3901	-5607	-9041
5360005	-1586	-7734	-8482
5360333	688	-5896	-6084
5360661	1969	-2260	-2531
5360989	1386	-902	-365
5361317	223	-2091	295
5361645	-672	-1367	912
5361973	-1306	-889	401
5362301	-1830	-537	-283
5362629	-1970	-806	-1376
5362957	-2091	-818	-2393
5363285	-1348	-365	-3080
5363613	-1305	-894	-3582
5363941	273	-1462	-3824
5364269	-9	-1983	-3461
5364597	287	-2650	-3012
5364925	1083	-3335	-2552
5365253	1679	-3507	-2033
5365581	3664	-4083	-1299
5365909	5733	-4746	-35
5366237	6525	-3654	1274
5366565	7046	-2834	2563
5366893	7236	-1583	4027
5367221	6926	-1430	5734
5367549	8013	-2998	7734
5367877	5929	2601	5398
5368205	7842	5194	9510
5368533	9160	9988	21891
5368861	-4009	20520	19176
5369189	474	4295	10614
5369517	2717	-6502	3946
5369845	3058	-7607	2528
5370173	107	-2002	2314
5370501	2426	-69	-1095
5370829	6432	4992	-566
5371157	4231	9459	3292
5371485	-1205	24145	7764
5371813	-10841	9660	1877
5372141	2385	-17450	4793
5372469	3183	-13656	5218
5372797	4765	-9369	-633
5373125	7249	-6329	-1005
5373453	7506	-1440	-1481
5373781	668	5788	725
5374109	-4184	9254	2134
5374437	371	7366	-2019
5374765	-301	-487	-3561
5375093	525	-4339	-3945
5375421	2034	-4117	-3115
5375749	2259	-2959	-3299
5376077	1659	-1967	-4095
5376405	-485	-2016	-5162
5376733	-1784	-693	-4793
5377061	-3058	731	-4702
5377389	-3845	1546	-4310
5377717	-4110	1487	-3809
5378045	-3997	718	-3371
5378373	-3878	140	-3071
5378701	-3599	145	-2984
5379029	-2629	365	-2897
5379357	-2573	692	-2747
5379685	-2842	970	-2734
5380013	-2504	834	-2498
5380341	-2253	625	-2371
5380669	-1857	361	-2368
5380997	-473	77	-1972
5381325	122	383	-2288
5381653	661	-656	-2111
5381981	1499	-1576	-2129
5382309	2477	-1570	-2184
5382637	2776	-1537	-2135
5382965	2968	-1294	-1838
5383293	2410	-623	-1845
5383621	1593	-772	-2171
5383949	929	-1327	-2454
5384277	178	-927	-2153
5384605	-238	-1122	-2251
5384933	-744	-1440	-2213
5385261	-471	-630	-2175
5385589	-471	-555	-2086
5385917	-463	-391	-1863
5386245	-465	-119	-1853
5386573	-385	-122	-1788
5386901	-307	-245	-1699
5387229	-275	-236	-1766
5387557	-323	-148	-1702
5387885	-319	24	-1492
5388213	-29	-399	-1232
5388541	235	-268	-1008
5388869	530	-276	-813
5389197	826	-314	-553
5389525	1092	-377	-321
5389853	889	-65	-29
5390181	347	96	31
5390509	-154	159	105
5390837	-621	110	129
5391165	-834	56	189
5391493	-914	132	177
5391821	-901	17	122
5392149	-940	160	162
5392477	-876	138	170
5392805	-825	68	162
5393133	-722	71	195
5393461	-583	-3	182
5393789	-326	46	126
5394117	-159	33	123
5394445	-188	82	79
5394773	-307	49	55
5395101	-505	36	5
5395429	-661	95	-71
5395757	-644	172	-166
5396085	-449	6	-213
5396413	-350	38	-282
5396741	-353	0	-295
5397069	-383	-36	-314
5397397	-449	-47	-365
5397725	-385	-23	-407
5398053	-302	-47	-390
5398381	-190	-120	-343
5398709	-70	-161	-288
5399037	5	-160	-267
5399365	58	-199	-271
5399693	86	-171	-248
5400021	80	-209	-190
5400349	78	-143	-163
5400677	71	-90	-112
5401005	96	-63	-67
5401333	97	-38	-10
5401661	82	-26	28
5401989	61	-2	71
5402317	5	-3	103
5402645	-52	48	116
5402973	-128	72	126
5403301	-128	95	144
5403629	-221	138	139
5403957	-290	151	134
5404285	-311	134	91
5404613	-337	107	62
5404941	-345	103	49
5405269	-308	148	62
5405597	-299	116	59
5405925	-292	128	56
5406253	-296	112	62
5406581	-302	128	64
5406909	-270	122	52
5407237	-310	164	58
5407565	-358	162	69
5407893	-421	182	59
5408221	-468	184	39
5408549	-485	166	23
5408877	-465	150	0
5409205	-400	175	-15
5409533	-329	153	-37
5409861	-204	139	-67
5410189	-126	138	-89
5410517	-60	131	-108
5410845	-34	138	-110
5411173	-42	135	-126
5411501	-51	156	-142
5411829	-47	153	-115
5412157	-110	171	-97
5412485	-143	164	-85
5412813	-149	148	-75
5413141	-95	139	-55
5413469	-18	119	-53
5413797	79	107	-53
5414125	142	122	-48
5414453	154	128	-47
5414781	144	138	-41
5415109	117	126	-53
5415437	101	109	-52
5415765	100	111	-39
5416093	87	114	-39
5416421	27	135	-27
5416749	15	135	17
5417077	-30	148	26
5417405	-66	159	39
5417733	-45	146	12
5418061	-25	149	5
5418389	-4	155	-14
5418717	13	128	-13
5419045	33	143	-25
5419373	20	143	-25
5419701	5	124	-55
5420029	-18	120	-42
5420357	-44	143	-47
5420685	-28	148	-63
5421013	-9	155	-72
5421341	6	171	-86
5421669	-24	179	-101
5421997	-65	170	-111
5422325	-116	160	-104
5422653	-164	167	-110
5422981	-154	156	-106
5423309	-126	156	-103
5423637	-40	151	-98
5423965	-11	156	-98
5424293	23	162	-93
5424621	-25	153	-91
5424949	-43	143	-81
5425277	-60	140	-93
5425605	-62	143	-93
5425933	-57	148	-84
5426261	-48	161	-120
5426589	-61	166	-105
5426917	-65	162	-108
5427245	-86	167	-120
5427573	-102	170	-127
5427901	-99	177	-131
5428229	-87	175	-118
5428557	-91	163	-128
5428885	-68	177	-117
5429213	-40	189	-110
5429541	-11	177	-117
5429869	8	183	-116
5430197	7	186	-112
5430525	10	190	-113
5430853	-2	193	-119
5431181	5	184	-130
5431509	6	187	-132
5431837	7	175	-131
5432165	1	170	-128
5432493	12	156	-116
5432821	-4	161	-118
5433149	-11	166	-115
5433477	-48	150	-100
5433805	-68	160	-101
5434133	-64	177	-99
5434461	-59	161	-95
5434789	-61	147	-105
5435117	-80	155	-89
5435445	-62	165	-97
5435773	-73	161	-88
5436101	-71	156	-85
5436429	-66	139	-87
5436757	-60	140	-96
5437085	-68	137	-92
5437413	-63	134	-89
5437741	-56	142	-91
5438069	-53	140	-82
5438397	-24	134	-75
5438725	-16	132	-82
5439053	-9	122	-86
5439381	-14	117	-73
5439709	-25	115	-65
5440037	-38	134	-67
5440365	-54	139	-60
5440693	-76	131	-73
5441021	-94	127	-66
5441349	-87	111	-65
5441677	-88	117	-56
5442005	-71	114	-69
5442333	-59	109	-53
5442661	-36	115	-58
5442989	-17	117	-63
5443317	-19	123	-70
5443645	-44	101	-69
5443973	-63	100	-64
5444301	-84	97	-70
5444629	-99	99	-67
5444957	-121	108	-77
5445285	-122	89	-66
5445613	-122	98	-72
5445941	-84	78	-74
5446269	-74	84	-74
5446597	-55	81	-85
5446925	-47	73	-66
5447253	-65	87	-58
5447581	-92	78	-62
5447909	-111	84	-39
5448237	-126	82	-39
5448565	-114	80	-22
5448893	-93	99	-27
5449221	-88	101	-19
5449549	-67	102	2
5449877	-66	127	10
5450205	-68	139	20
5450533	-69	126	22
5450861	-87	143	14
5451189	-97	103	9
5451517	-150	63	34
5451845	-92	161	0
5452173	-90	120	-14
5452501	-93	120	-22
5452829	-103	113	-39
5453157	-70	99	-44
5453485	-41	99	-62
5453813	-44	104	-90
5454141	-1	90	-114
5454469	7	91	-127
5454797	3	94	-150
5455125	-17	98	-171
5455453	-34	66	-177
5455781	-32	89	-164
5456109	-9	100	-174
5456437	32	106	-193
5456765	20	80	-180
5457093	-7	97	-178
5457421	-12	99	-188
5457749	-2	108	-170
5458077	14	109	-166
5458405	34	119	-161
5458733	55	101	-162
5459061	62	101	-144
5459389	57	79	-132
5459717	36	81	-125
5460045	109	94	-84
5460373	49	93	-72
5460701	44	115	-65
5461029	91	159	-37
5461357	115	158	6
5461685	111	142	25
5462013	194	184	65
5462341	239	181	92
5462669	268	193	127
5462997	266	202	144
5463325	223	192	155
5463653	181	184	182
5463981	143	178	181
5464309	109	175	185
5464637	89	182	177
5464965	47	212	170
5465293	12	190	145
5465621	2	205	113
5465949	11	202	98
5466277	-30	221	75
5466605	-2	211	62
5466933	19	199	61
5467261	21	184	50
5467589	26	192	41
5467917	33	181	44
5468245	36	190	36
5468573	16	175	47
5468901	0	187	50
5469229	-9	173	34
5469557	-16	165	25
5469885	-17	167	23
5470213	-15	150	11
5470541	-9	137	18
5470869	20	153	-1
5471197	6	160	0
5471525	47	151	-10
5471853	48	158	-3
5472181	47	153	-23
5472509	-9	166	-33
5472837	-33	150	-40
5473165	-64	174	-46
5473493	-100	168	-69
5473821	-102	155	-49
5474149	-123	148	-57
5474477	-132	163	-63
5474805	-117	170	-64
5475133	-120	150	-68
5475461	-96	148	-68
5475789	-115	156	-73
5476117	-116	166	-72
5476445	-127	165	-74
5476773	-149	158	-71
5477101	-168	165	-64
5477429	-166	142	-71
5477757	-174	138	-73
5478085	-205	151	-56
5478413	-204	144	-39
5478741	-219	142	-45
5479069	-224	151	-44
5479397	-224	164	-70
5479725	-188	149	-73
5480053	-157	146	-71
5480381	-129	189	-64
5480709	-97	175	-57
5481037	-79	151	-70
5481365	-72	149	-51
5481693	-70	156	-68
5482021	-31	130	-67
5482349	-40	115	-57
5482677	-42	131	-41
5483005	-65	134	-47
5483333	-93	120	-37
5483661	-102	123	-29
5483989	-94	123	-11
5484317	-94	138	-22
5484645	-53	137	-3
5484973	-10	136	-7
5485301	53	123	-6
5485629	110	121	-4
5485957	140	122	28
5486285	145	130	19
5486613	139	134	36
5486941	104	124	50
5487269	94	122	53
5487597	39	120	74
5487925	58	168	51
5488253	96	166	40
5488581	15	186	22
5488909	-15	158	33
5489237	-37	177	27
5489565	-55	182	11
5489893	-88	170	10
5490221	-126	181	3
5490549	-204	187	-5
5490877	-245	199	-20
5491205	-283	187	-38
5491533	-274	182	-63
5491861	-274	178	-85
5492189	-237	163	-90
5492517	-218	147	-100
5492845	-222	130	-114
5493173	-219	125	-122
5493501	-232	118	-119
5493829	-228	109	-135
5494157	-241	130	-146
5494485	-237	116	-147
5494813	-236	98	-150
5495141	-224	95	-154
5495469	-219	92	-160
5495797	-187	97	-162
5496125	-179	93	-177
5496453	-165	96	-177
5496781	-213	101	-178
5497109	-232	95	-182
5497437	-312	83	-190
5497765	-294	94	-189
5498093	-304	71	-199
5498421	-264	88	-186
5498749	-229	69	-192
5499077	-200	76	-188
5499405	-168	82	-176
5499733	-155	69	-180
5500061	-156	84	-159
5500389	-161	90	-151
5500717	-169	69	-135
5501045	-193	65	-128
5501373	-170	83	-142
5501701	-156	79	-133
5502029	-125	62	-130
5502357	-102	82	-141
5502685	-97	64	-141
5503013	-110	67	-157
5503341	-95	62	-163
5503669	-79	77	-166
5503997	-58	68	-189
5504325	-46	62	-200
5504653	-63	52	-202
5504981	-74	55	-207
5505309	-111	14	-214
5505637	-109	36	-217
5505965	-111	70	-228
5506293	-118	45	-230
5506621	-111	48	-239
5506949	-37	106	-248
5507277	-88	52	-237
5507605	-62	79	-224
5507933	-58	77	-234
5508261	-20	67	-218
5508589	8	66	-194
5508917	28	70	-204
5509245	33	83	-213
5509573	45	78	-189
5509901	26	95	-193
5510229	-4	100	-178
5510557	-27	112	-170
5510885	-28	112	-169
5511213	-40	108	-162
5511541	-42	105	-145
5511869	-44	69	-134
