Time Stamp	Gyroscope X	Gyroscope Y	Gyroscope Z
RAW	RAW	RAW	RAW
no units	no units	no units	no units
5543793	-50	103	-4
5544121	-43	101	-7
5544449	-13	94	11
5544777	3	85	-11
5545105	2	85	-12
5545433	-21	90	2
5545761	-39	67	5
5546089	-71	67	-4
5546417	-126	61	4
5546745	-140	61	2
5547073	-140	68	-3
5547401	-136	78	-5
5547729	-123	91	-16
5548057	-118	93	-13
5548385	-134	104	-27
5548713	-111	105	-36
5549041	-103	116	-46
5549369	-86	107	-41
5549697	-81	107	-47
5550025	-89	116	-43
5550353	-82	108	-44
5550681	-84	101	-38
5551009	-96	116	-36
5551337	-110	107	-33
5551665	-124	94	-43
5551993	-117	102	-46
5552321	-121	94	-37
5552649	-121	99	-48
5552977	-134	94	-43
5553305	-136	89	-43
5553633	-158	75	-31
5553961	-173	70	-21
5554289	-202	75	-20
5554617	-230	60	-11
5554945	-247	54	-17
5555273	-288	63	12
5555601	-375	67	37
5555929	-475	41	52
5556257	-510	27	72
5556585	-510	38	76
5556913	-550	42	68
5557241	-566	56	100
5557569	-579	47	83
5557897	-540	56	73
5558225	-471	63	51
5558553	-374	77	34
5558881	-253	80	4
5559209	-120	95	-23
5559537	-79	80	-29
5559865	-106	100	-19
5560193	-140	91	-19
5560521	-223	75	3
5560849	-231	76	-3
5561177	-210	90	-20
5561505	-136	107	-60
5561833	-65	104	-53
5562161	-28	123	-73
5562489	-41	120	-71
5562817	-85	116	-60
5563145	-107	104	-52
5563473	-117	115	-63
5563801	-110	117	-61
5564129	-107	139	-63
5564457	-111	124	-73
5564785	-120	140	-70
5565113	-153	139	-71
5565441	-158	139	-63
5565769	-173	162	-63
5566097	-139	146	-72
5566425	-93	152	-78
5566753	-76	160	-91
5567081	-75	145	-87
5567409	-56	152	-76
5567737	-30	157	-86
5568065	-16	169	-81
5568393	-8	160	-82
5568721	34	164	-74
5569049	60	168	-72
5569377	78	155	-68
5569705	101	159	-74
5570033	92	156	-74
5570361	66	153	-57
5570689	100	130	-81
5571017	170	154	-98
5571345	255	152	-97
5571673	260	160	-82
5572001	193	138	-96
5572329	88	135	-88
5572657	20	128	-69
5572985	-10	125	-68
5573313	5	149	-72
5573641	45	159	-80
5573969	25	172	-94
5574297	82	176	-105
5574625	114	152	-99
5574953	104	159	-87
5575281	46	163	-93
5575609	4	152	-89
5575937	-9	150	-102
5576265	15	149	-95
5576593	20	150	-76
5576921	-12	153	-80
5577249	-59	148	-69
5577577	-114	130	-52
5577905	-157	133	-51
5578233	-144	123	-55
5578561	-107	143	-50
5578889	-79	126	-49
5579217	-53	118	-53
5579545	-65	125	-55
5579873	-58	112	-53
5580201	-63	113	-44
5580529	-84	114	-53
5580857	-90	117	-50
5581185	-54	105	-35
5581513	-31	106	-53
5581841	-60	104	-47
5582169	-90	109	-41
5582497	-135	96	-35
5582825	-152	101	-39
5583153	-150	88	-44
5583481	-125	110	-39
5583809	-122	112	-51
5584137	-115	93	-51
5584465	-116	106	-47
5584793	-115	106	-42
5585121	-129	96	-34
5585449	-139	91	-51
5585777	-143	98	-38
5586105	-151	92	-34
5586433	-149	91	-32
5586761	-148	98	-33
5587089	-164	88	-41
5587417	-147	95	-19
5587745	-169	82	-29
5588073	-149	82	-28
5588401	-114	86	-32
5588729	-90	82	-27
5589057	-115	84	-27
5589385	-144	66	-11
5589713	-169	71	-5
5590041	-212	56	-3
5590369	-237	59	2
5590697	-250	72	7
5591025	-259	75	8
5591353	-255	75	-10
5591681	-255	80	-15
5592009	-211	81	-17
5592337	-170	78	-27
5592665	-152	104	-24
5592993	-109	96	-40
5593321	-144	109	-36
5593649	-131	123	-29
5593977	-117	115	-51
5594305	-116	119	-53
5594633	-88	118	-62
5594961	-70	124	-62
5595289	-89	117	-56
5595617	-109	116	-35
5595945	-93	124	-41
5596273	-81	127	-38
5596601	-45	125	-55
5596929	-38	124	-68
5597257	-23	126	-48
5597585	-29	124	-54
5597913	-45	109	-40
5598241	-49	113	-39
5598569	-60	116	-39
5598897	-83	115	-38
5599225	-100	106	-39
5599553	-88	126	-39
5599881	-98	119	-32
5600209	-85	111	-40
5600537	-87	120	-36
5600865	-73	128	-32
5601193	-67	126	-29
5601521	-59	136	-44
5601849	-74	144	-38
5602177	-54	103	-46
5602505	-76	139	-17
5602833	-108	163	-7
5603161	-97	149	-29
5603489	-85	159	-43
5603817	-65	125	-42
5604145	-49	102	-39
5604473	-59	119	-42
5604801	-43	137	-36
5605129	-26	142	-43
5605457	-25	147	-58
5605785	-32	153	-58
5606113	-18	141	-64
5606441	-10	133	-68
5606769	-38	155	-52
5607097	-62	156	-50
5607425	-79	153	-41
5607753	-99	142	-50
5608081	-116	148	-34
5608409	-98	134	-53
5608737	-117	129	-54
5609065	-114	125	-47
5609393	-109	148	-44
5609721	-105	131	-45
5610049	-82	139	-57
5610377	-71	143	-49
5610705	-86	145	-43
5611033	-80	154	-42
5611361	-55	154	-65
5611689	-32	156	-70
5612017	-47	139	-63
5612345	-73	142	-58
5612673	-84	144	-47
5613001	-90	123	-53
5613329	-77	117	-52
5613657	-54	135	-58
5613985	-60	149	-58
5614313	-58	154	-41
5614641	-75	142	-58
5614969	-78	140	-46
5615297	-60	147	-57
5615625	-42	139	-45
5615953	-57	133	-59
5616281	-44	141	-64
5616609	-7	160	-59
5616937	-27	154	-75
5617265	-24	159	-55
5617593	-22	145	-52
5617921	-52	127	-55
5618249	-56	144	-60
5618577	-105	136	-37
5618905	-101	126	-61
5619233	-122	123	-57
5619561	-121	138	-32
5619889	-127	128	-40
5620217	-109	145	-41
5620545	-111	152	-31
5620873	-102	136	-38
5621201	-110	138	-35
5621529	-118	134	-29
5621857	-114	136	-35
5622185	-115	129	-46
5622513	-127	112	-29
5622841	-133	114	-27
5623169	-176	124	-17
5623497	-229	95	-2
5623825	-244	101	-8
5624153	-269	89	-2
5624481	-264	106	-15
5624809	-261	105	-4
5625137	-233	111	-6
5625465	-222	132	-2
5625793	-190	106	-5
5626121	-166	106	-12
5626449	-147	136	-9
5626777	-149	138	-22
5627105	-162	125	-20
5627433	-135	117	-14
5627761	-141	127	-8
5628089	-173	144	-15
5628417	-125	113	-39
5628745	-140	98	-24
5629073	-173	124	-14
5629401	-173	124	-14
5629729	-157	113	-21
5630057	-158	121	-17
5630385	-164	135	-30
5630713	-146	151	-18
5631041	-128	142	-31
5631369	-101	144	-36
5631697	-121	139	-27
5632025	-103	160	-49
5632353	-92	147	-33
5632681	-81	156	-28
5633009	-55	154	-25
5633337	-30	142	-35
5633665	-27	137	-35
5633993	4	144	-29
5634321	14	157	-38
5634649	19	146	-25
5634977	19	160	-26
5635305	6	143	-24
5635633	8	135	-15
5635961	20	137	-39
5636289	17	135	-30
5636617	3	121	-39
5636945	-26	123	-43
5637273	-63	134	-39
5637601	-69	123	-30
5637929	-105	127	-31
5638257	-119	116	-31
5638585	-146	139	-23
5638913	-141	132	-28
5639241	-138	139	-41
5639569	-132	136	-38
5639897	-121	153	-40
5640225	-102	145	-60
5640553	-95	142	-45
5640881	-118	139	-46
5641209	-127	127	-44
5641537	-138	117	-34
5641865	-124	148	-53
5642193	-134	142	-37
5642521	-142	131	-51
5642849	-169	154	-52
5643177	-188	153	-46
5643505	-180	133	-42
5643833	-169	130	-39
5644161	-161	151	-36
5644489	-155	127	-47
5644817	-184	112	-49
5645145	-216	124	-42
5645473	-196	129	-39
5645801	-192	140	-29
5646129	-199	141	-30
5646457	-191	149	-23
5646785	-194	151	-42
5647113	-182	164	-16
5647441	-184	155	-34
5647769	-173	159	-47
5648097	-118	170	-51
5648425	-68	179	-56
5648753	-51	185	-70
5649081	-34	186	-87
5649409	-2	181	-67
5649737	2	185	-70
5650065	0	205	-65
5650393	0	229	-72
5650721	-9	223	-87
5651049	118	254	-125
5651377	219	244	-156
5651705	298	253	-157
5652033	259	238	-150
5652361	158	229	-141
5652689	67	227	-128
5653017	72	243	-122
5653345	114	273	-144
5653673	151	253	-151
5654001	181	242	-144
5654329	97	216	-134
5654657	-4	194	-111
5654985	-44	180	-89
5655313	-32	189	-84
5655641	-25	200	-76
5655969	-1	213	-78
5656297	-9	214	-74
5656625	2	215	-71
5656953	-29	226	-63
5657281	-37	215	-74
5657609	-30	195	-86
5657937	-42	206	-61
5658265	-55	194	-69
5658593	-64	194	-73
5658921	-74	183	-79
5659249	-99	177	-68
5659577	-113	185	-82
5659905	-119	171	-76
5660233	-117	164	-74
5660561	-111	166	-78
5660889	-116	160	-63
5661217	-126	173	-63
5661545	-115	175	-71
5661873	-76	174	-71
5662201	-51	168	-75
5662529	-57	185	-78
5662857	-59	159	-74
5663185	-74	166	-69
5663513	-99	150	-62
5663841	-111	165	-54
5664169	-119	143	-78
5664497	-168	135	-64
5664825	-178	142	-74
5665153	-105	138	-74
5665481	-53	161	-84
5665809	-11	165	-90
5666137	-18	159	-87
5666465	-121	133	-76
5666793	-201	108	-68
5667121	-282	106	-56
5667449	-341	89	-54
5667777	-410	86	-40
5668105	-448	94	-36
5668433	-478	96	-35
5668761	-471	81	-28
5669089	-482	88	-38
5669417	-549	86	-31
5669745	-539	75	-22
5670073	-563	74	-19
5670401	-630	87	0
5670729	-705	61	0
5671057	-819	63	28
5671385	-860	68	49
5671713	-865	67	54
5672041	-794	66	30
5672369	-650	81	25
5672697	-538	85	-4
5673025	-483	71	-10
5673353	-480	60	14
5673681	-483	45	40
5674009	-548	48	25
5674337	-516	59	29
5674665	-450	63	30
5674993	-377	79	27
5675321	-325	85	22
5675649	-271	83	18
5675977	-255	87	14
5676305	-239	81	19
5676633	-215	96	17
5676961	-192	92	9
5677289	-149	96	12
5677617	-104	108	6
5677945	-75	107	5
5678273	38	120	-12
5678601	121	134	-30
5678929	215	165	-46
5679257	233	148	-33
5679585	210	149	-28
5679913	150	149	-19
5680241	79	120	-13
5680569	17	133	-7
5680897	-10	146	7
5681225	19	132	-3
5681553	21	129	-13
5681881	11	138	-8
5682209	-59	132	18
5682537	-145	103	18
5682865	-156	105	23
5683193	-161	115	33
5683521	-125	103	14
5683849	-95	113	25
5684177	-90	99	25
5684505	-145	104	36
5684833	-212	93	44
5685161	-278	86	57
5685489	-262	88	54
5685817	-217	99	50
5686145	-161	122	39
5686473	-73	136	40
5686801	25	150	37
5687129	92	139	19
5687457	157	164	7
5687785	177	162	4
5688113	196	148	-12
5688441	213	140	-25
5688769	227	148	-22
5689097	246	148	-30
5689425	248	153	-32
5689753	235	130	-43
5690081	266	132	-55
5690409	308	134	-64
5690737	302	126	-69
5691065	286	125	-58
5691393	234	131	-46
5691721	225	112	-65
5692049	199	101	-64
5692377	205	125	-66
5692705	190	119	-67
5693033	184	113	-51
5693361	138	91	-61
5693689	95	97	-65
5694017	51	106	-61
5694345	44	121	-45
5694673	46	133	-69
5695001	84	170	-64
5695329	87	164	-71
5695657	99	172	-66
5695985	109	142	-56
5696313	121	129	-54
5696641	75	128	-41
5696969	33	127	-37
5697297	-19	141	-33
5697625	-40	154	-23
5697953	-26	146	-38
5698281	-1	151	-31
5698609	21	137	-36
5698937	18	126	-27
5699265	-12	111	-15
5699593	-16	107	-20
5699921	-22	102	-7
5700249	-9	120	-18
5700577	8	121	-24
5700905	11	123	-28
5701233	-7	107	-26
5701561	-23	131	-31
5701889	-17	134	-22
5702217	-14	148	-25
5702545	-10	154	-32
5702873	-5	139	-28
5703201	-39	144	-28
5703529	-59	136	-30
5703857	-92	143	-41
5704185	-99	127	-40
5704513	-81	117	-46
5704841	-51	126	-57
5705169	-24	133	-46
5705497	17	138	-50
5705825	26	140	-55
5706153	14	140	-49
5706481	-27	131	-49
5706809	-58	124	-34
5707137	-78	125	-40
5707465	-91	124	-35
5707793	-102	114	-46
5708121	-121	123	-25
5708449	-102	122	-35
5708777	-103	123	-45
5709105	-94	115	-53
5709433	-82	132	-45
5709761	-119	119	-39
5710089	-159	108	-40
5710417	-162	105	-21
5710745	-189	79	-20
5711073	-200	88	-21
5711401	-185	88	-19
5711729	-161	97	-19
5712057	-155	101	-37
5712385	-123	100	-39
5712713	-155	88	-26
5713041	-179	89	-20
5713369	-243	79	-3
5713697	-311	74	-10
5714025	-331	70	-13
5714353	-335	61	9
5714681	-308	82	-19
5715009	-297	94	-19
5715337	-211	104	-41
5715665	-142	108	-66
5715993	-63	110	-78
5716321	-7	118	-76
5716649	6	133	-79
5716977	33	128	-84
5717305	10	124	-81
5717633	22	124	-74
5717961	18	135	-79
5718289	33	114	-93
5718617	25	129	-98
5718945	41	122	-95
5719273	44	136	-104
5719601	24	135	-103
5719929	-18	118	-111
5720257	-54	121	-102
5720585	-129	126	-84
5720913	-149	117	-88
5721241	-165	110	-85
5721569	-154	120	-88
5721897	-141	128	-99
5722225	-133	130	-96
5722553	-148	115	-93
5722881	-189	120	-75
5723209	-210	109	-80
5723537	-244	123	-88
5723865	-240	105	-71
5724193	-236	123	-72
5724521	-232	113	-61
5724849	-188	125	-74
5725177	-169	134	-76
5725505	-172	125	-86
5725833	-134	122	-68
5726161	-135	121	-88
5726489	-149	120	-79
5726817	-169	126	-79
5727145	-187	115	-78
5727473	-203	135	-72
5727801	-231	117	-71
5728129	-350	80	-113
5728457	-251	106	-78
5728785	-239	94	-81
5729113	-196	104	-90
5729441	-157	112	-83
5729769	-182	112	-79
5730097	-188	104	-87
5730425	-196	116	-83
5730753	-179	117	-88
5731081	-160	117	-92
5731409	-136	126	-89
5731737	-132	117	-89
5732065	-128	128	-84
5732393	-96	112	-86
5732721	-69	140	-88
5733049	-50	121	-84
5733377	-25	117	-78
5733705	-33	107	-73
5734033	-48	93	-58
5734361	-74	94	-69
5734689	-120	95	-58
5735017	-120	101	-48
5735345	-142	89	-45
5735673	-167	76	-46
5736001	-190	84	-27
5736329	-201	79	-28
5736657	-245	87	-27
5736985	-264	87	-7
5737313	-299	91	0
5737641	-313	94	8
5737969	-313	94	8
5738297	-265	93	24
5738625	-357	113	18
5738953	-357	89	-9
5739281	-337	88	-7
5739609	-301	99	-6
5739937	-269	107	-18
5740265	-291	91	-21
5740593	-263	102	-34
5740921	-258	108	-37
5741249	-240	113	-48
5741577	-233	111	-49
5741905	-209	110	-39
5742233	-194	114	-54
5742561	-175	129	-58
5742889	-157	125	-60
5743217	-157	115	-74
5743545	-127	127	-60
5743873	-142	143	-71
5744201	-159	144	-62
5744529	-186	131	-68
5744857	-198	123	-63
5745185	-208	118	-57
5745513	-181	139	-52
5745841	-130	143	-49
5746169	-100	139	-61
5746497	-73	145	-46
5746825	-71	134	-47
5747153	-102	148	-67
5747481	-76	143	-62
5747809	-61	144	-52
5748137	-58	143	-58
5748465	-58	144	-59
5748793	-34	142	-67
5749121	-5	151	-69
5749449	-6	134	-57
5749777	-5	143	-53
5750105	-34	149	-49
5750433	-45	145	-61
5750761	71	149	-58
5751089	90	159	-68
5751417	130	168	-79
5751745	153	178	-70
5752073	136	165	-59
5752401	124	166	-61
5752729	103	156	-62
5753057	90	145	-59
5753385	94	150	-63
5753713	61	156	-51
5754041	71	151	-59
5754369	130	155	-69
5754697	155	177	-67
5755025	158	179	-59
5755353	93	158	-45
5755681	24	159	-39
5756009	-56	143	-22
5756337	-74	139	-31
5756665	-63	155	-36
5756993	-11	151	-41
5757321	-5	166	-44
5757649	-11	151	-31
5757977	-32	134	-27
5758305	-52	125	-26
5758633	-71	143	-16
5758961	-50	136	-23
5759289	-37	148	-33
5759617	-43	142	-23
5759945	-65	148	-32
5760273	-77	136	-27
5760601	-115	137	-22
5760929	-143	117	-15
5761257	-166	112	-5
5761585	-163	99	-17
5761913	-154	125	-18
5762241	-129	100	-18
5762569	-134	106	-14
5762897	-156	106	-1
5763225	-194	89	-16
5763553	-210	93	3
5763881	-254	102	-7
5764209	-254	76	8
5764537	-250	93	0
5764865	-194	90	34
5765193	-233	105	9
5765521	-225	105	-8
5765849	-191	114	-1
5766177	-178	109	-7
5766505	-199	117	-31
5766833	-198	101	-29
5767161	-149	110	-38
5767489	-95	135	-53
5767817	-59	133	-60
5768145	-44	137	-52
5768473	-92	137	-49
5768801	-137	136	-38
5769129	-165	128	-22
5769457	-158	152	-37
5769785	-135	148	-38
5770113	-107	154	-54
5770441	-140	160	-38
5770769	-134	156	-40
5771097	-150	131	-34
5771425	-123	123	-42
5771753	-62	137	-51
5772081	-17	164	-47
5772409	-18	152	-61
5772737	-30	157	-42
5773065	-52	165	-45
5773393	-95	168	-31
5773721	-33	151	-46
5774049	27	178	-61
5774377	59	167	-72
5774705	59	167	-61
5775033	29	146	-52
5775361	-67	138	-31
5775689	-167	137	-43
5776017	-81	148	-34
5776345	-32	147	-22
5776673	44	151	-39
5777001	73	173	-35
5777329	58	164	-17
5777657	42	146	-24
5777985	13	158	-29
5778313	-2	134	-15
5778641	-2	144	-8
5778969	-5	149	1
5779297	-22	129	-15
5779625	-34	137	-11
5779953	-21	154	-14
5780281	-20	154	-22
5780609	12	146	-25
5780937	20	136	-19
5781265	12	149	-28
5781593	-17	146	-31
5781921	-38	145	-17
5782249	-59	130	-15
5782577	-67	146	-17
5782905	-57	153	-38
5783233	-31	151	-24
5783561	-33	154	-27
5783889	-46	145	-39
5784217	-94	158	-31
5784545	-90	144	-30
5784873	-106	134	-30
5785201	-92	136	-30
5785529	-106	124	-30
5785857	-104	133	-26
5786185	-92	121	-22
5786513	-90	119	-40
5786841	-97	114	-38
5787169	-94	120	-41
5787497	-109	107	-29
5787825	-102	118	-31
5788153	-149	124	-28
5788481	-125	120	-27
5788809	-124	104	-38
5789137	-126	113	-29
5789465	-110	113	-38
5789793	-116	113	-43
5790121	-138	114	-45
5790449	-140	100	-34
5790777	-129	98	-29
5791105	-147	111	-33
5791433	-147	93	-32
5791761	-143	93	-35
5792089	-119	95	-31
5792417	-111	97	-29
5792745	-136	97	-36
5793073	-125	113	-51
5793401	-144	105	-38
5793729	-161	91	-59
5794057	-189	86	-51
5794385	-210	94	-61
5794713	-218	98	-68
5795041	-250	102	-52
5795369	-251	100	-66
5795697	-228	100	-59
5796025	-223	100	-58
5796353	-241	102	-82
5796681	-220	87	-55
5797009	-251	84	-40
5797337	-312	82	-29
5797665	-309	86	-36
5797993	-301	79	-45
5798321	-254	75	-33
5798649	-233	90	-23
5798977	-197	89	-30
5799305	-173	85	-24
5799633	-168	87	-22
5799961	-160	97	-24
5800289	-166	82	-15
5800617	-179	71	-25
5800945	-206	87	-28
5801273	-235	66	-30
5801601	-276	85	-29
5801929	-284	83	-9
5802257	-347	84	-20
5802585	-402	81	-20
5802913	-421	83	-4
5803241	-428	79	-9
5803569	-463	79	-15
5803897	-484	104	-17
5804225	-509	106	-23
5804553	-563	109	-11
5804881	-611	100	-24
5805209	-638	93	-34
5805537	-640	118	-16
5805865	-645	102	-14
5806193	-620	110	-26
5806521	-578	120	-46
5806849	-573	126	-54
5807177	-484	122	-65
5807505	-448	86	-28
5807833	-411	122	-65
5808161	-406	105	-56
5808489	-405	112	-58
5808817	-361	107	-57
5809145	-274	135	-77
5809473	-161	130	-96
5809801	-31	148	-103
5810129	76	145	-116
5810457	182	155	-132
5810785	246	146	-116
5811113	303	121	-135
5811441	316	138	-129
5811769	312	127	-129
5812097	353	125	-144
5812425	361	126	-133
5812753	379	118	-134
5813081	371	119	-120
5813409	354	101	-121
5813737	323	93	-110
5814065	272	86	-91
5814393	200	91	-81
5814721	187	100	-73
5815049	189	86	-68
5815377	216	84	-93
5815705	245	101	-84
5816033	206	108	-91
5816361	211	115	-83
5816689	197	126	-77
5817017	156	121	-87
5817345	130	106	-70
5817673	110	124	-59
5818001	98	108	-52
5818329	120	113	-61
5818657	99	126	-44
5818985	123	121	-53
5819313	144	128	-44
5819641	146	124	-49
5819969	140	121	-45
5820297	115	115	-38
5820625	102	101	-27
5820953	102	98	-27
5821281	138	103	-23
5821609	152	95	-12
5821937	136	105	-27
5822265	126	100	-16
5822593	134	102	5
5822921	147	101	-4
5823249	155	101	-9
5823577	189	114	-2
5823905	173	100	6
5824233	140	97	19
5824561	103	78	28
5824889	66	76	30
5825217	55	80	48
5825545	13	89	47
5825873	3	81	43
5826201	10	83	47
5826529	14	106	51
5826857	20	95	45
5827185	32	87	46
5827513	60	97	33
5827841	79	96	33
5828169	52	82	31
5828497	15	86	35
5828825	-14	82	51
5829153	-84	69	47
5829481	-138	54	62
5829809	-151	58	100
5830137	-241	47	112
5830465	-309	38	107
5830793	-187	37	91
5831121	-39	51	73
5831449	92	70	78
5831777	219	70	104
5832105	214	54	93
5832433	187	28	115
5832761	98	-2	128
5833089	-1	-19	136
5833417	-141	-8	163
5833745	-209	2	161
5834073	-271	-30	158
5834401	-306	-30	174
5834729	-354	-22	146
5835057	-344	-6	139
5835385	-289	45	134
5835713	-280	68	115
5836041	-281	86	87
5836369	-235	95	63
5836697	-228	101	42
5837025	-164	109	25
5837353	-125	118	5
5837681	-59	133	19
5838009	-179	131	-9
5838337	-213	110	-11
5838665	-178	115	-20
5838993	-131	110	-11
5839321	-58	128	-13
5839649	-12	141	-23
5839977	-10	123	-16
5840305	-12	110	-17
5840633	-26	88	10
5840961	-139	87	18
5841289	-211	93	32
5841617	-205	80	30
5841945	-180	79	13
5842273	-173	88	-7
5842601	-143	104	-40
5842929	-108	96	-59
5843257	-141	91	-78
5843585	-215	72	-68
5843913	-348	68	-64
5844241	-469	70	-61
5844569	-546	69	-56
5844897	-618	51	-61
5845225	-666	80	-52
5845553	-668	87	-60
5845881	-714	96	-71
5846209	-753	86	-59
5846537	-777	86	-67
5846865	-788	60	-82
5847193	-763	119	-66
5847521	-789	109	-67
5847849	-752	101	-95
5848177	-732	108	-94
5848505	-730	109	-114
5848833	-753	110	-107
5849161	-813	90	-96
5849489	-879	79	-76
5849817	-959	52	-68
5850145	-1002	70	-62
5850473	-1029	63	-43
5850801	-1028	41	-50
5851129	-1019	45	-43
5851457	-1004	49	-20
5851785	-1056	53	-35
5852113	-1087	20	-14
5852441	-1146	20	3
5852769	-1247	30	19
5853097	-1341	-5	43
5853425	-1453	23	72
5853753	-1514	13	87
5854081	-1549	20	103
5854409	-1575	29	96
5854737	-1620	14	102
5855065	-1586	1	127
5855393	-1649	-8	125
5855721	-1670	-1	166
5856049	-1761	-4	168
5856377	-1864	-17	200
5856705	-1935	-44	167
5857033	-1730	-40	181
5857361	-1589	-19	179
5857689	-1415	10	173
5858017	-1251	29	142
5858345	-1173	38	136
5858673	-1173	38	136
5859001	-1096	35	136
5859329	-985	63	119
5859657	-917	55	122
5859985	-846	70	137
5860313	-774	70	144
5860641	-741	86	153
5860969	-654	73	148
5861297	-612	94	158
5861625	-517	101	158
5861953	-402	112	143
5862281	-251	127	130
5862609	-69	151	118
5862937	121	177	106
5863265	255	196	106
5863593	307	180	97
5863921	377	193	103
5864249	387	197	120
5864577	413	186	103
5864905	499	197	109
5865233	591	208	92
5865561	737	231	72
5865889	829	240	74
5866217	903	245	72
5866545	926	238	58
5866873	930	259	85
5867201	892	254	95
5867529	854	224	117
5867857	849	236	113
5868185	807	206	115
5868513	745	186	137
5868841	672	182	176
5869169	570	175	241
5869497	420	185	349
5869825	236	237	510
5870153	-53	187	578
5870481	-308	124	576
5870809	-453	88	518
5871137	-561	89	469
5871465	-629	73	422
5871793	-591	102	349
5872121	-530	186	250
5872449	-58	177	210
5872777	274	261	148
5873105	603	297	99
5873433	778	306	62
5873761	824	274	9
5874089	779	237	-14
5874417	656	208	-33
5874745	496	169	-38
5875073	355	144	-46
5875401	346	150	-66
5875729	360	155	-84
5876057	404	188	-88
5876385	378	185	-67
5876713	337	174	-57
5877041	246	157	-68
5877369	137	145	-60
5877697	-14	110	-40
5878025	-129	126	-33
5878353	-236	119	-11
5878681	-339	124	6
5879009	-418	112	49
5879337	-449	114	44
5879665	-413	134	47
5879993	-366	157	31
5880321	-287	184	5
5880649	-196	184	-26
5880977	-128	202	-38
5881305	-92	206	-69
5881633	-66	193	-107
5881961	-14	192	-110
5882289	7	184	-129
5882617	52	196	-138
5882945	99	221	-155
5883273	184	213	-177
5883601	302	227	-194
5883929	367	238	-192
5884257	391	244	-201
5884585	364	238	-187
5884913	340	261	-211
5885241	356	268	-234
5885569	381	292	-258
5885897	514	312	-274
5886225	579	319	-290
5886553	609	329	-297
5886881	606	313	-293
5887209	539	299	-286
5887537	425	300	-269
5887865	349	290	-249
5888193	268	278	-236
5888521	185	277	-227
5888849	197	267	-237
5889177	263	284	-240
5889505	332	301	-248
5889833	395	299	-256
5890161	377	307	-236
5890489	312	286	-232
5890817	253	282	-203
5891145	225	276	-210
5891473	230	277	-204
5891801	261	276	-206
5892129	230	266	-174
5892457	203	256	-154
5892785	148	240	-122
5893113	104	215	-116
5893441	112	210	-134
5893769	121	212	-131
5894097	178	213	-137
5894425	199	220	-116
5894753	232	214	-139
5895081	258	190	-134
5895409	304	226	-137
5895737	329	226	-131
5896065	277	220	-102
5896393	239	209	-95
5896721	124	193	-84
5897049	61	168	-87
5897377	9	164	-74
5897705	43	148	-66
5898033	22	156	-69
5898361	18	168	-82
5898689	39	160	-92
5899017	63	164	-92
5899345	36	169	-71
5899673	27	165	-72
5900001	-14	155	-62
5900329	-15	169	-75
5900657	-37	150	-75
5900985	-53	154	-84
5901313	-82	140	-78
5901641	-111	141	-68
5901969	-127	140	-72
5902297	-150	147	-75
5902625	-135	146	-71
5902953	-137	156	-92
5903281	-129	145	-87
5903609	-108	157	-86
5903937	-132	144	-99
5904265	-193	132	-83
5904593	-231	136	-67
5904921	-265	112	-75
5905249	-292	125	-76
5905577	-306	132	-54
5905905	-337	109	-53
5906233	-363	105	-50
5906561	-399	102	-33
5906889	-438	91	-22
5907217	-480	99	1
5907545	-500	90	-5
5907873	-535	92	4
5908201	-571	88	18
5908529	-620	72	34
5908857	-634	81	32
5909185	-612	88	40
5909513	-577	89	37
5909841	-521	83	39
5910169	-478	100	40
5910497	-422	103	42
5910825	-405	79	55
5911153	-415	82	84
5911481	-395	71	96
5911809	-431	63	123
5912137	-453	91	145
5912465	-490	82	158
5912793	-504	84	172
5913121	-449	123	184
5913449	-337	136	173
5913777	-150	168	133
5914105	38	210	125
5914433	220	205	110
5914761	305	214	117
5915089	346	192	132
5915417	291	160	130
5915745	193	185	133
5916073	66	162	142
5916401	-5	165	162
5916729	-77	193	156
5917057	-93	203	155
5917385	-74	217	152
5917713	-29	237	142
5918041	60	211	145
5918369	72	208	147
5918697	64	204	151
5919025	20	216	174
5919353	-14	225	188
5919681	-7	257	210
5920009	-89	294	204
5920337	-142	344	197
5920665	-107	401	161
5920993	62	406	131
5921321	323	460	132
5921649	619	548	93
5921977	819	541	-62
5922305	1301	520	-117
5922633	1519	563	-128
5922961	1755	506	-141
5923289	1801	491	-178
5923617	1680	458	-170
5923945	1388	402	-110
5924273	1071	372	-63
5924601	841	362	-53
5924929	646	343	-50
5925257	472	334	-39
5925585	415	321	-28
5925913	406	336	-26
5926241	436	349	-34
5926569	400	322	-49
5926897	424	336	-90
5927225	453	352	-87
5927553	434	346	-112
5927881	403	310	-130
5928209	446	280	-141
5928537	429	265	-134
5928865	330	266	-100
5929193	196	230	-85
5929521	77	190	-76
5929849	3	198	-77
5930177	-36	151	-98
5930505	-29	161	-123
5930833	-29	155	-116
5931161	-70	142	-141
5931489	-152	117	-133
5931817	-230	96	-129
5932145	-333	69	-118
5932473	-394	49	-103
5932801	-447	63	-109
5933129	-434	68	-103
5933457	-373	73	-125
5933785	-289	81	-142
5934113	-265	88	-130
5934441	-316	78	-105
5934769	-470	81	-88
5935097	-646	43	-31
5935425	-856	38	1
5935753	-1000	14	19
5936081	-1047	4	22
5936409	-1042	19	10
5936737	-912	35	-7
5937065	-761	41	-53
5937393	-607	63	-56
5937721	-561	64	-47
5938049	-658	68	-15
5938377	-777	49	11
5938705	-918	36	22
5939033	-975	17	13
5939361	-902	44	-22
5939689	-649	80	-93
5940017	-407	86	-137
5940345	-202	98	-150
5940673	-145	117	-158
5941001	-253	101	-140
5941329	-371	68	-125
5941657	-477	58	-98
5941985	-529	63	-92
5942313	-444	64	-110
5942641	-291	97	-145
5942969	-131	125	-165
5943297	-30	135	-160
5943625	-82	113	-142
5943953	-192	100	-92
5944281	-315	105	-63
5944609	-360	116	-61
5944937	-337	124	-61
5945265	-240	118	-114
5945593	-91	143	-144
5945921	144	180	-168
5946249	234	162	-171
5946577	252	181	-142
5946905	189	145	-116
5947233	111	118	-78
5947561	49	115	-92
5947889	75	117	-103
5948217	155	102	-93
5948545	178	110	-81
5948873	194	121	-74
5949201	208	128	-70
5949529	248	106	-36
5949857	257	134	10
5950185	208	64	3
5950513	200	38	-33
5950841	243	55	-88
5951169	312	79	-59
5951497	356	45	-26
5951825	317	16	-1
5952153	195	27	47
5952481	139	54	105
5952809	113	48	142
5953137	253	66	172
5953465	415	129	275
5953793	391	131	348
5954121	164	-41	297
5954449	83	-269	89
5954777	211	-90	75
5955105	36	-215	3
5955433	-56	-173	-28
5955761	-223	-266	-73
5956089	-336	-406	-274
5956417	-371	-367	-356
5956745	-495	-354	-395
5957073	-754	-487	-513
5957401	-1335	-470	-623
5957729	-1662	-436	-671
5958057	-1749	-335	-600
5958385	-1704	-341	-628
5958713	-1790	-307	-694
5959041	-1785	-276	-868
5959369	-1835	-149	-1164
5959697	-1317	-203	-1565
5960025	-1081	-121	-1860
5960353	-1298	146	-2181
5960681	-1019	489	-2369
5961009	-956	699	-2261
5961337	-873	630	-2271
5961665	-503	553	-2120
5961993	-303	504	-1747
5962321	279	783	-1626
5962649	785	880	-1992
5962977	1244	1150	-2454
5963305	1868	1304	-2892
5963633	1895	1089	-2876
5963961	1614	1345	-2666
5964289	912	1398	-2032
5964617	-43	1377	-1915
5964945	-429	1369	-1826
5965273	-699	1338	-1888
5965601	-210	1048	-2213
5965929	559	895	-2385
5966257	1526	942	-2289
5966585	2425	622	-2288
5966913	1761	357	-2480
5967241	679	466	-2691
5967569	148	756	-2648
5967897	-343	1045	-2443
5968225	-761	1276	-2759
5968553	-1047	1462	-2929
5968881	-1231	1345	-2951
5969209	-1122	1215	-2913
5969537	-1007	1196	-2826
5969865	-1046	939	-3032
5970193	-1336	587	-3130
5970521	-1998	562	-3351
5970849	-1944	702	-3300
5971177	-1767	988	-3137
5971505	-1492	836	-3045
5971833	-945	701	-3102
5972161	492	838	-2314
5972489	1342	731	-1427
5972817	1319	550	-517
5973145	1007	144	454
5973473	547	-660	823
5973801	246	-958	1748
5974129	-135	-501	2623
5974457	-602	-815	3452
5974785	-150	-1911	3618
5975113	101	-1994	4298
5975441	380	-2117	4571
5975769	411	-2646	5109
5976097	477	-2634	5089
5976425	1909	-2605	6118
5976753	2486	-2566	6649
5977081	3334	-2326	8789
5977409	6627	-4619	11317
5977737	13830	-5071	13114
5978065	9882	-3137	10712
5978393	-7696	-4490	3086
5978721	-7696	-4490	3086
5979049	-16514	-3818	-6999
5979377	-10025	338	-7772
5979705	-4858	2766	-8805
5980033	-1274	2360	-8633
5980361	188	2253	-7283
5980689	1340	1298	-4827
5981017	1953	977	-2075
5981345	2792	595	327
5981673	3896	190	2075
5982001	3670	219	3425
5982329	3035	-632	4059
5982657	1489	-480	3703
5982985	810	-299	3758
5983313	1665	11	3347
5983641	2009	23	2789
5983969	2064	250	2273
5984297	2255	-62	1680
5984625	2536	-108	1486
5984953	2404	-270	1328
5985281	1468	-429	1365
5985609	-484	-546	679
5985937	-2666	-838	-464
5986265	-3550	-688	-1997
5986593	-2372	-599	-3587
5986921	3840	-3456	-5449
5987249	4167	-4297	-11306
5987577	-4847	200	-16514
5987905	-8141	8862	-14629
5988233	-153	6635	-10936
5988561	399	-1585	-4918
5988889	-6629	-809	-4371
5989217	-9443	210	-3937
5989545	-3039	4457	-3434
5989873	1499	2289	-790
5990201	-2849	644	1839
5990529	-2491	-1472	780
5990857	3422	-729	1809
5991185	1171	-689	5500
5991513	-5712	-4558	-1401
5991841	-11818	-742	-1854
5992169	-8213	-854	-2578
5992497	-4344	-182	-275
5992825	4145	1941	2217
5993153	7347	3001	2570
5993481	4938	2683	2256
5993809	5230	2053	2234
5994137	4938	502	2487
5994465	4303	-13	2996
5994793	3068	213	3890
5995121	1944	18	4277
5995449	1368	-400	4090
5995777	1431	-1123	3296
5996105	1283	-491	2522
5996433	1013	-555	2071
5996761	882	-610	1476
5997089	212	-206	1314
5997417	-533	-940	1125
5997745	-1535	-599	1061
5998073	-1902	-209	823
5998401	-1933	20	721
5998729	-1400	389	515
5999057	-238	712	425
5999385	811	745	341
5999713	1642	582	76
6000041	1788	165	202
6000369	1011	153	413
6000697	-244	32	744
6001025	-894	-45	1014
6001353	-1320	-249	1128
6001681	-761	-277	1038
6002009	436	-83	916
6002337	1570	194	715
6002665	2548	312	617
6002993	2546	448	580
6003321	2437	372	616
6003649	1892	294	573
6003977	1089	125	643
6004305	418	-199	733
6004633	-314	-77	943
6004961	-533	-226	874
6005289	-753	-202	904
6005617	-649	-48	870
6005945	-676	46	838
6006273	-659	-6	894
6006601	-875	89	1049
6006929	-1128	139	1115
6007257	-1324	53	1200
6007585	-1265	16	1147
6007913	-1117	-40	1006
6008241	-874	62	904
6008569	-695	130	801
6008897	-498	184	696
6009225	-652	188	601
6009553	-565	114	499
6009881	-425	121	319
6010209	-302	173	97
6010537	-125	172	55
6010865	-106	293	87
6011193	-206	247	92
6011521	-227	223	45
6011849	-197	165	12
6012177	-148	228	-107
6012505	19	227	-235
6012833	102	233	-268
6013161	-1	163	-288
6013489	-26	103	-285
6013817	-213	97	-214
6014145	-265	109	-170
6014473	-394	116	-140
6014801	-417	107	-137
6015129	-374	119	-81
6015457	-449	160	17
6015785	-445	150	72
6016113	-240	82	84
6016441	-223	174	82
6016769	-324	167	94
6017097	-532	163	53
6017425	-568	167	47
6017753	-433	128	76
6018081	-110	105	54
6018409	121	91	-13
6018737	279	56	-90
6019065	283	117	-94
6019393	281	155	-80
6019721	366	127	-60
6020049	553	99	-62
6020377	723	149	-75
6020705	843	204	-110
6021033	883	203	-148
6021361	837	174	-130
6021689	665	141	-69
6022017	445	85	-30
6022345	186	62	36
6022673	-20	61	91
6023001	-127	91	103
6023329	-121	133	86
6023657	-119	182	56
6023985	-119	180	34
6024313	-134	193	41
6024641	-220	169	29
6024969	-219	148	29
6025297	-236	141	11
6025625	-174	176	12
6025953	-145	191	11
6026281	-113	227	10
6026609	-94	214	-13
6026937	-86	217	-21
6027265	-77	202	-29
6027593	-117	199	-24
6027921	-132	192	-13
6028249	-157	183	-9
6028577	-170	188	5
6028905	-138	170	19
6029233	-99	176	34
6029561	-116	116	24
6029889	-116	150	68
6030217	-130	171	54
6030545	-131	160	50
6030873	-118	151	61
6031201	-97	156	63
6031529	-80	154	54
6031857	-80	152	70
6032185	-106	142	70
6032513	-122	138	71
6032841	-137	125	69
6033169	-119	147	57
6033497	-79	167	56
6033825	-40	169	34
6034153	0	187	21
6034481	3	168	21
6034809	-44	168	35
6035137	-77	163	41
6035465	-122	159	44
6035793	-127	164	23
6036121	-95	161	27
6036449	-51	168	16
6036777	-26	169	6
6037105	-13	179	-2
6037433	-3	175	20
6037761	7	149	18
6038089	-14	142	18
6038417	-33	145	22
6038745	-30	135	26
6039073	0	137	13
6039401	50	163	8
6039729	84	153	2
6040057	86	149	7
6040385	70	147	12
6040713	76	114	21
6041041	76	130	18
6041369	95	137	8
6041697	135	162	-8
6042025	200	157	-33
6042353	231	171	-44
6042681	193	159	-31
6043009	151	151	-31
6043337	35	137	-38
6043665	75	140	-40
6043993	35	143	-34
6044321	14	147	-37
6044649	-19	157	-31
6044977	-33	153	-43
6045305	-65	153	-52
6045633	-105	155	-36
6045961	-101	158	-59
6046289	-154	137	-89
6046617	-59	152	-62
6046945	-66	164	-72
6047273	-35	143	-62
6047601	-39	161	-57
6047929	-63	154	-63
6048257	-52	146	-59
6048585	-30	150	-63
6048913	-23	170	-52
6049241	-34	144	-51
6049569	-62	130	-33
6049897	-79	137	-28
6050225	-96	132	-29
6050553	-96	123	-38
6050881	-90	121	-37
6051209	-103	130	-20
6051537	-104	131	-20
6051865	-124	119	-22
6052193	-123	128	-31
6052521	-130	138	-25
6052849	-127	111	-21
6053177	-142	119	-21
6053505	-162	127	-17
6053833	-173	135	-8
6054161	-151	137	-11
6054489	-128	123	-14
6054817	-104	139	-8
6055145	-73	140	-12
6055473	-56	130	-4
6055801	-76	118	15
6056129	-102	113	25
6056457	-122	102	47
6056785	-112	121	56
6057113	-101	115	57
6057441	-87	110	38
6057769	-95	124	45
6058097	-88	119	40
6058425	-102	111	55
6058753	-107	123	57
6059081	-107	117	55
6059409	-117	120	40
6059737	-111	130	36
6060065	-108	137	20
6060393	-95	155	18
6060721	-90	147	-24
6061049	-76	153	-20
6061377	-67	158	-23
6061705	-77	149	-36
6062033	-103	157	-26
6062361	-102	164	-44
6062689	-91	164	-45
6063017	-85	183	-43
6063345	-66	195	-52
6063673	-54	194	-52
6064001	-27	189	-64
6064329	-34	188	-38
6064657	-18	186	-32
6064985	-21	183	-26
6065313	-32	191	-27
6065641	-36	180	-28
6065969	-28	175	-16
6066297	-52	184	-29
6066625	-20	196	-28
6066953	9	184	-32
6067281	45	184	-40
6067609	67	185	-25
6067937	68	195	-45
6068265	45	186	-40
6068593	-2	185	-29
6068921	-9	172	-39
6069249	-30	175	-36
6069577	-33	179	-49
6069905	-23	192	-69
6070233	-9	176	-83
6070561	-15	184	-98
6070889	-53	187	-87
6071217	-97	165	-68
6071545	-119	157	-74
6071873	-179	143	-70
6072201	-163	149	-68
6072529	-151	143	-67
6072857	-182	133	-66
6073185	-188	152	-64
6073513	-204	123	-72
6073841	-187	138	-86
6074169	-180	144	-83
6074497	-132	165	-77
6074825	-87	159	-75
6075153	-32	157	-85
6075481	-35	163	-81
6075809	-66	151	-76
6076137	-106	126	-78
6076465	-149	112	-55
6076793	-203	122	-37
6077121	-183	105	-46
6077449	-166	119	-52
6077777	-109	129	-48
6078105	-68	133	-67
6078433	0	139	-61
6078761	-27	126	-56
6079089	-45	98	-45
6079417	-111	100	-26
6079745	-148	107	-20
6080073	-149	100	-15
6080401	-126	93	-27
6080729	-122	106	-19
6081057	-87	100	-23
6081385	-57	113	-17
6081713	-60	97	-12
6082041	-86	106	-20
6082369	-90	101	-14
6082697	-94	109	-9
6083025	-91	109	-18
6083353	-72	97	2
6083681	-52	107	-22
6084009	-14	98	-27
6084337	18	116	-33
6084665	36	92	-26
6084993	22	100	-21
6085321	17	109	-21
6085649	28	112	-41
6085977	3	107	-30
6086305	-6	98	-28
6086633	-38	85	-19
6086961	-50	95	-26
6087289	-44	87	-31
6087617	-38	96	-22
6087945	-15	106	-33
6088273	-16	121	-31
6088601	-10	114	-50
6088929	-3	108	-45
6089257	19	112	-58
6089585	-4	98	-50
6089913	-15	86	-65
6090241	-20	103	-53
6090569	-40	104	-49
6090897	-38	100	-51
6091225	-40	100	-48
6091553	-15	111	-69
6091881	-8	99	-68
6092209	-34	95	-76
6092537	-76	85	-66
6092865	-97	71	-53
6093193	-119	57	-58
6093521	-123	64	-59
6093849	-103	81	-70
6094177	-68	77	-93
6094505	-56	86	-79
6094833	-53	73	-84
6095161	-82	70	-79
6095489	-104	77	-74
6095817	-116	68	-76
6096145	-104	55	-71
6096473	-106	52	-68
6096801	-96	70	-78
6097129	-66	68	-91
6097457	-35	74	-65
6097785	-21	67	-75
6098113	-19	45	-50
6098441	-31	54	-67
6098769	-48	43	-60
6099097	-40	38	-64
6099425	-77	56	-53
6099753	-69	55	-57
6100081	-53	39	-66
6100409	-48	37	-72
6100737	-48	47	-63
6101065	-79	17	-60
6101393	-90	9	-50
6101721	-109	12	-68
6102049	-117	-5	-77
6102377	-75	11	-87
6102705	-75	11	-87
6103033	-30	7	-84
6103361	5	11	-84
6103689	76	8	-98
6104017	98	14	-102
6104345	88	6	-98
6104673	82	-16	-84
6105001	61	-20	-70
6105329	-20	-30	-67
6105657	-50	-49	-39
6105985	-89	-60	-59
6106313	-97	-51	-26
6106641	-97	-67	-29
6106969	-66	-59	-30
6107297	8	-49	-26
6107625	55	-53	-38
6107953	123	-41	-33
6108281	151	-46	-35
6108609	148	-57	-28
6108937	144	-50	-11
6109265	134	-67	-16
6109593	168	-70	-22
6109921	177	-82	-43
6110249	175	-85	-67
6110577	167	-94	-37
6110905	141	-101	-49
6111233	120	-123	-48
6111561	135	-125	-45
6111889	90	-146	-41
6112217	97	-148	-39
6112545	90	-156	-56
6112873	225	-172	13
6113201	69	-154	-33
6113529	60	-179	-36
6113857	50	-204	-26
6114185	26	-202	-33
6114513	7	-206	-25
6114841	-2	-214	-30
6115169	10	-244	-32
6115497	28	-237	-28
6115825	8	-241	-18
6116153	-16	-260	-7
6116481	-40	-260	-5
6116809	-76	-266	-3
6117137	-80	-282	-9
6117465	-67	-279	17
6117793	-2	-259	79
6118121	-24	-314	94
6118449	-61	-334	107
6118777	-145	-310	202
6119105	-359	-338	300
6119433	-619	-427	50
6119761	-1083	-533	141
6120089	-1291	-502	200
6120417	-1180	-501	207
6120745	-893	-401	155
6121073	-550	-267	115
6121401	-289	-184	99
6121729	-89	-112	99
6122057	-22	-97	114
6122385	-13	-110	150
6122713	3	-111	156
6123041	151	-72	140
6123369	284	-60	51
6123697	513	-14	-13
6124025	641	35	-78
6124353	697	49	-107
6124681	685	27	-135
6125009	618	4	-155
6125337	486	18	-158
6125665	426	29	-159
6125993	417	31	-201
6126321	545	45	-250
6126649	657	91	-316
6126977	811	146	-362
6127305	795	153	-356
6127633	760	208	-341
6127961	745	195	-331
6128289	789	180	-366
6128617	853	178	-402
6128945	928	137	-392
6129273	893	139	-393
6129601	833	125	-389
6129929	746	93	-419
6130257	580	41	-424
6130585	397	13	-399
6130913	293	-7	-379
6131241	197	-29	-406
6131569	192	-45	-473
6131897	318	-22	-545
6132225	569	35	-628
6132553	926	132	-709
6132881	1284	282	-706
6133209	1480	408	-708
6133537	1369	533	-555
6133865	986	625	-287
6134193	414	669	-25
6134521	-470	621	170
6134849	-1588	606	262
6135177	-2762	575	264
6135505	-3490	704	292
6135833	-3425	1053	469
6136161	-2678	1349	542
6136489	-1283	1396	525
6136817	347	1406	470
6137145	1500	1462	355
6137473	2027	1461	382
6137801	1396	1461	609
6138129	218	1461	1023
6138457	-1411	1305	1229
6138785	-2804	1158	1395
6139113	-3667	979	1571
6139441	-3840	836	1603
6139769	-3429	708	1578
6140097	-2895	940	1628
6140425	-2600	712	1501
6140753	-2325	680	1423
6141081	-1826	529	1391
6141409	-1537	412	1448
6141737	-1328	176	1615
6142065	-1157	76	1917
6142393	-967	-147	2227
6142721	-1002	-342	2430
6143049	-1345	-401	2400
6143377	-1778	-489	2211
6143705	-2325	-563	1794
6144033	-2907	-163	1088
6144361	-2762	235	262
6144689	-1738	479	-71
6145017	-577	843	250
6145345	577	1044	760
6145673	1159	772	1110
6146001	947	652	907
6146329	1133	726	496
6146657	1633	832	305
6146985	2067	934	200
6147313	1977	833	112
6147641	1734	632	-17
6147969	1410	563	-37
6148297	1066	540	6
6148625	419	499	9
6148953	-97	451	25
6149281	-546	380	-2
6149609	-769	399	7
6149937	-794	372	-39
6150265	-691	381	-123
6150593	-567	408	-208
6150921	-458	403	-275
6151249	-381	388	-328
6151577	-336	399	-387
6151905	-359	383	-390
6152233	-445	368	-393
6152561	-605	357	-319
6152889	-737	316	-339
6153217	-883	280	-335
6153545	-960	254	-349
6153873	-986	272	-327
6154201	-871	314	-336
6154529	-836	327	-361
6154857	-915	291	-421
6155185	-936	284	-457
6155513	-874	257	-573
6155841	-736	246	-710
6156169	-515	275	-856
6156497	-366	231	-1095
6156825	-284	194	-1415
6157153	-465	160	-1817
6157481	-837	61	-2199
6157809	-1245	-105	-2593
6158137	-1213	-147	-3088
6158465	-1343	-94	-3300
6158793	-1753	15	-3850
6159121	-1396	249	-4462
6159449	-900	662	-4813
6159777	32	1062	-5046
6160105	1080	1420	-4986
6160433	1717	1725	-4724
6160761	2535	1764	-4278
6161089	3234	1381	-3887
6161417	4041	952	-3646
6161745	4703	825	-3259
6162073	5425	861	-2787
6162401	5812	878	-2594
6162729	5874	558	-2539
6163057	5632	-383	-2108
6163385	4965	-1278	-1279
6163713	3318	-1645	-952
6164041	1957	-2204	-715
6164369	1025	-2628	-470
6164697	482	-2882	-216
6165025	385	-3067	-38
6165353	558	-3310	72
6165681	840	-3551	147
6166009	1127	-3725	189
6166337	1226	-3834	301
6166665	1032	-3946	421
6166993	451	-4161	451
6167321	197	-3937	655
6167649	-131	-3966	752
6167977	-351	-3881	879
6168305	-447	-3906	994
6168633	-460	-3966	1042
6168961	-423	-3997	1089
6169289	-216	-3936	1101
6169617	-29	-3791	1085
6169945	169	-3531	959
6170273	216	-3243	866
6170601	532	-2945	802
6170929	826	-2739	737
6171257	932	-2614	702
6171585	950	-2670	723
6171913	657	-2598	769
6172241	234	-2465	821
6172569	-35	-2348	910
6172897	-149	-2180	982
6173225	-373	-1916	1157
6173553	-1012	-1641	1339
6173881	-2117	-1273	1429
6174209	-2683	-879	1562
6174537	-2881	-587	1658
6174865	-3338	-131	1522
6175193	-3365	483	1137
6175521	-2359	1055	707
6175849	-1584	1775	548
6176177	-998	2329	435
6176505	-380	2536	385
6176833	98	2686	261
6177161	750	3105	186
6177489	1421	3262	40
6177817	2214	2773	-111
6178145	2926	1969	-135
6178473	2438	1374	-125
6178801	157	1138	41
6179129	-2435	1198	127
6179457	-3880	1294	238
6179785	-4721	1454	52
6180113	-4253	1760	122
6180441	-3072	2189	123
6180769	-1870	2295	240
6181097	-1026	1813	314
6181425	-863	1370	363
6181753	-1766	1168	269
6182081	-3090	933	200
6182409	-4295	846	141
6182737	-5130	776	138
6183065	-5576	877	7
6183393	-5411	748	135
6183721	-5130	816	-28
6184049	-4487	861	-306
6184377	-3769	743	-398
6184705	-3186	608	-382
6185033	-2741	560	-486
6185361	-2184	628	-623
6185689	-1794	626	-722
6186017	-1175	586	-877
6186345	-442	654	-965
6186673	191	638	-1054
6187001	575	549	-1106
6187329	573	448	-1169
6187657	365	339	-1185
6187985	42	280	-1239
6188313	-372	211	-1263
6188641	-600	139	-1308
6188969	-733	50	-1278
6189297	-796	-136	-1268
6189625	-712	-242	-1246
6189953	-626	-343	-1208
6190281	-589	-476	-1212
6190609	-515	-553	-1260
6190937	-464	-625	-1317
6191265	-415	-627	-1358
6191593	-391	-617	-1370
6191921	-315	-608	-1461
6192249	-405	-611	-1546
6192577	-445	-661	-1678
6192905	-285	-660	-1865
6193233	152	-695	-1959
6193561	615	-756	-2066
6193889	1071	-862	-2080
6194217	1371	-916	-2192
6194545	1673	-973	-2378
6194873	2258	-890	-2478
6195201	2555	-865	-2584
6195529	2747	-759	-2715
6195857	2757	-757	-2651
6196185	2679	-735	-2522
6196513	2763	-818	-2435
6196841	2860	-688	-2408
6197169	2927	-818	-2268
6197497	3022	-1044	-2066
6197825	3091	-1003	-2016
6198153	2936	-1165	-1720
6198481	2608	-1143	-1512
6198809	2231	-1138	-1330
6199137	2125	-1084	-1121
6199465	2153	-993	-872
6199793	2093	-934	-558
6200121	1992	-894	-336
6200449	1763	-786	-152
6200777	1539	-676	6
6201105	1259	-586	170
6201433	989	-507	381
6201761	730	-414	594
6202089	465	-405	792
6202417	239	-323	926
6202745	70	-288	1011
6203073	-203	-351	923
6203401	-233	-197	1035
6203729	-429	-169	986
6204057	-511	-129	993
6204385	-552	-59	916
6204713	-504	-9	889
6205041	-416	27	801
6205369	-199	90	744
6205697	-26	173	693
6206025	172	197	612
6206353	282	226	621
6206681	306	211	661
6207009	223	218	666
6207337	66	250	674
6207665	-105	277	685
6207993	-208	316	645
6208321	-512	255	387
6208649	-292	363	494
6208977	-258	436	436
6209305	-163	437	392
6209633	-87	474	346
6209961	-13	485	300
6210289	41	462	334
6210617	-57	444	380
6210945	-172	410	445
6211273	-338	328	510
6211601	-481	262	570
6211929	-547	242	589
6212257	-712	170	616
6212585	-916	99	611
6212913	-1179	114	612
6213241	-1380	61	620
6213569	-1582	133	641
6213897	-1342	160	635
6214225	-930	107	649
6214553	-541	115	585
6214881	-218	109	473
6215209	-30	218	331
6215537	199	408	179
6215865	349	537	137
6216193	588	560	140
6216521	881	650	172
6216849	960	859	236
6217177	1139	685	163
6217505	1492	535	91
6217833	1914	329	64
6218161	2347	37	156
6218489	3022	-61	154
6218817	3247	-360	132
6219145	3358	-546	153
6219473	3552	-643	221
6219801	3980	-751	269
6220129	4497	-901	370
6220457	5327	-1147	646
6220785	5779	-1350	851
6221113	6057	-1775	1112
6221441	6338	-2065	1313
6221769	6972	-2486	1355
6222097	7585	-2580	1471
6222425	8417	-2649	1565
6222753	9696	-2629	1430
6223081	11094	-2411	1472
6223409	12070	-2160	1317
6223737	12113	-1999	792
6224065	12339	-1622	259
6224393	13581	-683	-618
6224721	15574	934	-1538
6225049	18576	2807	-2059
6225377	20315	4189	-1974
6225705	22306	5403	-2375
6226033	24608	6404	-2609
6226361	26691	6487	-2897
6226689	27725	6532	-3069
6227017	27027	5518	-3393
6227345	24948	5173	-4317
6227673	21792	4999	-5716
6228001	18603	4986	-6661
6228329	15952	5009	-7358
6228657	13740	5097	-7771
6228985	11692	4970	-7867
6229313	9937	4602	-7533
6229641	7972	3959	-7782
6229969	7010	3892	-6697
6230297	6251	3351	-6139
6230625	5861	3125	-5796
6230953	5124	2840	-5248
6231281	4686	2882	-4666
6231609	4385	3134	-4244
6231937	4023	3097	-3675
6232265	4232	2824	-2954
6232593	4328	2393	-2452
6232921	4568	2258	-1996
6233249	4460	2013	-1551
6233577	4473	1935	-1236
6233905	4473	1935	-1236
6234233	4583	1889	-932
6234561	4299	1759	-606
6234889	4286	1715	-321
6235217	4256	1645	-114
6235545	3845	1547	38
6235873	3095	1269	175
6236201	2131	1087	127
6236529	1256	1064	-119
6236857	760	974	-308
6237185	383	989	-467
6237513	458	1080	-614
6237841	737	1217	-693
6238169	925	1280	-739
6238497	1112	1329	-772
6238825	1288	1458	-820
6239153	1317	1503	-945
6239481	1769	1416	-826
6239809	1673	1432	-1010
6240137	1859	1422	-1145
6240465	1611	1366	-1313
6240793	1319	1216	-1551
6241121	1005	1182	-1781
6241449	503	1320	-2045
6241777	129	1286	-2370
6242105	-188	1250	-2588
6242433	-484	1275	-2779
6242761	-645	1204	-2890
6243089	-949	1218	-2877
6243417	-1473	1046	-2928
6243745	-1818	809	-3101
6244073	-2106	728	-3275
6244401	-1665	576	-3424
6244729	-975	373	-3463
6245057	-309	53	-3410
6245385	307	-209	-3422
6245713	733	-536	-3490
6246041	1055	-809	-3551
6246369	1507	-891	-3590
6246697	1818	-958	-3658
6247025	1897	-1043	-3724
6247353	1565	-1253	-3779
6247681	705	-1279	-3891
6248009	-429	-980	-3992
6248337	-1800	-394	-4329
6248665	-3065	269	-5252
6248993	-3331	972	-6242
6249321	-4453	1226	-7193
6249649	-5070	1955	-7728
6249977	-3234	2264	-7372
6250305	-378	1504	-6032
6250633	5320	2067	-5150
6250961	12095	3603	-3960
6251289	1939	6945	1029
6251617	-3785	-2354	-4657
6251945	-8595	-689	-5359
6252273	-7915	-1469	-5032
6252601	-5846	759	-3190
6252929	-3740	1061	-2609
6253257	-4824	706	-2863
6253585	-3463	-339	-3768
6253913	-611	214	-4320
6254241	871	1858	-4178
6254569	424	1978	-3448
6254897	-920	1113	-3077
6255225	-1548	1042	-3067
6255553	-963	1200	-3378
6255881	228	1523	-3603
6256209	1681	1806	-3600
6256537	2298	1792	-3533
6256865	2059	1741	-3449
6257193	1900	1738	-3372
6257521	1573	1497	-3405
6257849	1364	1368	-3318
6258177	1239	1182	-3224
6258505	1098	993	-3236
6258833	1114	687	-3078
6259161	1228	607	-3035
6259489	1573	550	-2861
6259817	2022	447	-2451
6260145	2366	479	-2199
6260473	2618	577	-2046
6260801	3184	451	-2024
6261129	3801	779	-2037
6261457	4352	786	-2124
6261785	4970	1000	-2171
6262113	5972	653	-2522
6262441	6882	613	-2917
6262769	8044	880	-3356
6263097	9076	570	-3782
6263425	9832	476	-3947
6263753	10247	942	-3615
6264081	10022	1041	-3086
6264409	9333	396	-2554
6264737	7683	-892	-2977
6265065	5892	-1481	-3056
6265393	4396	-2171	-2791
6265721	3131	-2663	-2548
6266049	2193	-2348	-2243
6266377	1397	-1749	-1975
6266705	1629	-2044	-1672
6267033	2516	-2824	-1251
6267361	2946	-2852	-211
6267689	2103	-2735	1270
6268017	85	-3565	3072
6268345	-2568	-3010	4176
6268673	-4230	-1949	4513
6269001	-7459	-1301	4286
6269329	-5433	-101	3260
6269657	-2995	668	1825
6269985	1329	1573	645
6270313	6760	1907	-247
6270641	9977	1897	-108
6270969	11663	2208	-408
6271297	12263	2024	-346
6271625	11787	2067	-764
6271953	9958	1800	-417
6272281	8120	1431	-14
6272609	5957	967	346
6272937	4188	244	760
6273265	3108	-136	1147
6273593	1944	-452	1129
6273921	1202	-470	1198
6274249	778	-411	1038
6274577	26	-526	775
6274905	-831	-557	571
6275233	-1811	32	785
6275561	-2290	72	567
6275889	-2784	6	53
6276217	-1843	260	-187
6276545	-956	387	-476
6276873	-244	440	-703
6277201	-190	494	-964
6277529	-726	388	-1108
6277857	-1375	176	-1203
6278185	-2075	-177	-1283
6278513	-2697	-218	-1519
6278841	-3207	-197	-1775
6279169	-3864	-42	-1906
6279497	-4607	-102	-2155
6279825	-5721	-96	-2491
6280153	-6645	129	-2617
6280481	-7512	112	-2663
6280809	-7746	-89	-2973
6281137	-8257	-738	-2930
6281465	-8895	-1037	-2889
6281793	-9777	-1423	-2492
6282121	-10980	-1958	-1620
6282449	-11887	-2963	-727
6282777	-12843	-4210	215
6283105	-13640	-5604	864
6283433	-14687	-6992	1748
6283761	-15257	-7905	2977
6284089	-15608	-8728	5761
6284417	-17293	-9772	9322
6284745	-19160	-10585	11843
6285073	-19838	-11541	12354
6285401	-20462	-9805	10760
6285729	-19202	-6884	6902
6286057	-14881	-4527	3840
6286385	-11662	-2055	3067
6286713	-8726	-1044	4014
6287041	-6795	-1461	5634
6287369	-4538	-968	6026
6287697	-4803	1267	4321
6288025	-2337	3339	3413
6288353	912	3560	3400
6288681	2824	4358	3971
6289009	4003	5588	4030
6289337	4629	5112	4056
6289665	4518	3787	4133
6289993	2927	2468	3276
6290321	-77	902	3004
6290649	-2841	790	3326
6290977	-4155	466	3322
6291305	-4030	33	2924
6291633	-3418	706	2199
6291961	-2547	242	1817
6292289	-1412	932	1576
6292617	149	1245	851
6292945	163	1001	627
6293273	-191	701	843
6293601	-837	415	1183
6293929	-2025	0	1320
6294257	-1228	-497	2000
6294585	-5700	-42	2217
6294913	-6608	-1129	1660
6295241	-6954	-1505	1058
6295569	-6470	-1505	655
6295897	-5691	-1615	386
6296225	-4904	-1562	456
6296553	-4850	-1722	805
6296881	-5130	-1825	1161
6297209	-5462	-2193	633
6297537	-4993	-2704	191
6297865	-4380	-2952	175
6298193	-3979	-2839	266
6298521	-3676	-2928	247
6298849	-3874	-2516	524
6299177	-3890	-2764	595
6299505	-3884	-3043	633
6299833	-3792	-3234	656
6300161	-3872	-3728	762
6300489	-3884	-4194	771
6300817	-4125	-4423	871
6301145	-4725	-4740	1013
6301473	-5465	-5046	1122
6301801	-6194	-5664	1046
6302129	-7114	-7228	626
6302457	-8613	-9142	122
6302785	-10554	-10913	-342
6303113	-12913	-12795	-624
6303441	-15019	-14196	-368
6303769	-16440	-15449	-254
6304097	-18121	-16576	272
6304425	-19003	-18458	531
6304753	-20527	-19942	707
6305081	-21989	-21368	801
6305409	-22922	-22321	1220
6305737	-23875	-22681	1797
6306065	-24970	-23080	2104
6306393	-25781	-23969	2759
6306721	-25490	-23921	3265
6307049	-24297	-22832	3890
6307377	-22316	-21303	4472
6307705	-19910	-19192	4745
6308033	-17322	-17137	4560
6308361	-14984	-14948	4357
6308689	-13258	-12965	4456
6309017	-11673	-10602	4519
6309345	-9791	-8376	4257
6309673	-7720	-6091	3947
6310001	-5646	-3710	3731
6310329	-2983	-2140	3402
6310657	129	-343	2904
6310985	2802	729	2192
6311313	4537	1530	1579
6311641	5670	2105	1077
6311969	5992	2538	580
6312297	5990	2748	305
6312625	5975	2454	117
6312953	5879	1617	176
6313281	5393	368	397
6313609	3918	-533	371
6313937	1510	-907	317
6314265	-1769	-1255	648
6314593	-3808	-1625	635
6314921	-4696	-1143	679
6315249	-4192	-718	160
6315577	-2555	331	-290
6315905	-853	1120	-684
6316233	803	882	-974
6316561	1601	729	-1240
6316889	1962	662	-1343
6317217	1717	563	-1385
6317545	1656	940	-1376
6317873	2329	1214	-1033
6318201	3626	1503	-509
6318529	5829	1697	-439
6318857	8944	623	-164
6319185	11203	234	572
6319513	11445	-462	947
6319841	9217	-915	1865
6320169	4352	-1562	2989
6320497	-663	-1907	3466
6320825	-4798	-1655	3536
6321153	-6959	-1848	3676
6321481	-8467	-1853	2788
6321809	-10994	-1283	2548
6322137	-13365	-1601	1893
6322465	-13121	-825	2008
6322793	-10827	334	3310
6323121	-5217	1711	3537
6323449	2137	2679	2348
6323777	6620	7750	1398
6324105	4489	15717	7176
6324433	1407	3197	1604
6324761	-5495	-2985	-1929
6325089	-9005	-2510	-2982
6325417	-10185	1430	-790
6325745	-8375	3660	1291
6326073	-7196	3878	1969
6326401	-5350	3124	1454
6326729	-5277	2123	1177
6327057	-4840	1802	732
6327385	-3622	2332	638
6327713	-4180	1762	831
6328041	-5737	968	930
6328369	-6577	1185	818
6328697	-6395	805	571
6329025	-5251	742	645
6329353	-4408	403	809
6329681	-4124	244	878
6330009	-4511	521	988
6330337	-5209	360	789
6330665	-5421	281	736
6330993	-5022	704	544
6331321	-3967	1083	181
6331649	-2544	1179	75
6331977	-797	1654	-98
6332305	-150	2062	-37
6332633	59	2041	-10
6332961	-391	2099	-31
6333289	-788	1952	-2
6333617	-999	1522	-54
6333945	-106	732	-92
6334273	-1132	862	130
6334601	-1596	826	-108
6334929	-1732	900	-81
6335257	-2064	898	-181
6335585	-1968	538	-257
6335913	-2037	289	-188
6336241	-2105	250	-126
6336569	-2153	173	-67
6336897	-2287	-91	17
6337225	-2385	-231	51
6337553	-2507	-249	43
6337881	-2571	-269	25
6338209	-2566	-312	-84
6338537	-2378	-350	-199
6338865	-2134	-394	-354
6339193	-1950	-407	-456
6339521	-1852	-331	-484
6339849	-1810	-333	-531
6340177	-1666	-338	-722
6340505	-1407	-389	-917
6340833	-1210	-354	-1042
6341161	-1013	-313	-1108
6341489	-903	-305	-1191
6341817	-794	-355	-1260
6342145	-768	-397	-1289
6342473	-647	-444	-1323
6342801	-449	-425	-1294
6343129	-391	-211	-1303
6343457	-238	-131	-1295
6343785	-24	-93	-1333
6344113	143	-69	-1391
6344441	320	-40	-1482
6344769	564	57	-1655
6345097	933	94	-1778
6345425	1420	177	-1896
6345753	1990	204	-1895
6346081	2444	193	-1821
6346409	2654	-41	-1723
6346737	2533	-537	-1856
6347065	2292	-1093	-2062
6347393	1765	-1550	-2343
6347721	1004	-2362	-2963
6348049	553	-3431	-3779
6348377	118	-3834	-3977
6348705	-1663	-2876	-3762
6349033	-3275	-2018	-3755
6349361	-2316	-2109	-5435
6349689	-245	-2643	-6707
6350017	1294	-2946	-7504
6350345	529	-2780	-7590
6350673	-2551	-3546	-7543
6351001	-6909	-4910	-7982
6351329	-10232	-5001	-8248
6351657	-10724	-4454	-7332
6351985	-10689	-2792	-4291
6352313	-6877	-3986	-499
6352641	-6308	-4594	3658
6352969	-7905	-5958	6205
6353297	-9095	-5966	9939
6353625	-7512	-5347	11905
6353953	-3236	-5383	12850
6354281	1598	-5348	14058
6354609	5982	-4062	15878
6354937	6693	-3413	17492
6355265	5018	-3318	18773
6355593	2240	-3416	19813
6355921	-102	-3368	20610
6356249	-1142	-3158	21169
6356577	-1070	-2751	21376
6356905	-649	-2694	21348
6357233	-930	-2571	21412
6357561	-1699	-2425	21348
6357889	-2228	-2375	20747
6358217	-2840	-3023	19907
6358545	-3026	-3690	19370
6358873	-3009	-3598	18623
6359201	-2919	-3985	17851
6359529	-3154	-3727	16775
6359857	-2646	-3739	14985
6360185	-2447	-3437	12540
6360513	-3473	-2681	10001
6360841	-4586	-1783	6916
6361169	-5386	-752	3678
6361497	-5507	447	859
6361825	-5507	447	859
6362153	-4465	1400	-1698
6362481	8838	1551	-4788
6362809	-3403	4628	-5712
6363137	-12242	9157	-4879
6363465	-24292	-3972	-9978
6363793	-14730	332	-9349
6364121	-9511	2034	-6185
6364449	-4788	1562	-3612
6364777	-6604	3052	-3871
6365105	-6034	2995	-3624
6365433	-5101	4013	-4314
6365761	-1755	3801	-4364
6366089	-174	3173	-5273
6366417	1053	1876	-4392
6366745	1413	2350	-2751
6367073	-154	2324	-1831
6367401	-1397	1904	-1953
6367729	-2038	1654	-1897
6368057	-2489	1507	-1541
6368385	-2745	1416	-1299
6368713	-2214	1394	-1474
6369041	-1419	1570	-1518
6369369	-1362	1182	-1536
6369697	-2270	668	-1411
6370025	-3905	229	-1258
6370353	-4064	-370	-1147
6370681	-4762	-393	-1317
6371009	-4949	-452	-1058
6371337	-4721	-378	-1088
6371665	-4646	-575	-983
6371993	-4065	-501	-1221
6372321	-3461	88	-1199
6372649	-2676	421	-1356
6372977	-1794	617	-1402
6373305	-1237	727	-1251
6373633	-1554	534	-1403
6373961	-421	1005	-954
6374289	189	891	-839
6374617	917	939	-813
6374945	1246	988	-806
6375273	1510	920	-682
6375601	1365	965	-552
6375929	1141	707	-388
6376257	1046	507	-229
6376585	730	416	-171
6376913	920	210	79
6377241	1000	147	148
6377569	1548	133	82
6377897	2047	320	44
6378225	2572	736	206
6378553	2904	455	156
6378881	3185	427	235
6379209	3342	412	406
6379537	3379	262	671
6379865	3271	43	883
6380193	3163	-322	1163
6380521	2577	-768	1238
6380849	1973	-714	1155
6381177	1774	-509	1323
6381505	1795	-641	1533
6381833	1942	-764	1765
6382161	2326	-807	2076
6382489	2691	-826	2397
6382817	3485	-987	2694
6383145	4357	-1020	3029
6383473	5158	-1460	3555
6383801	6067	-1540	4089
6384129	6859	-2028	4752
6384457	7419	-2856	5231
6384785	7390	-3547	5784
6385113	6719	-2975	6049
6385441	6681	-1645	5821
6385769	8509	117	5368
6386097	11898	902	5158
6386425	16221	720	4850
6386753	20298	940	4457
6387081	22977	1111	4341
6387409	23753	373	3653
6387737	22842	-637	1450
6388065	20483	-760	-328
6388393	16440	-1581	-2418
6388721	12824	-1643	-5225
6389049	10297	-1123	-7580
6389377	9875	-725	-8658
6389705	10401	-533	-9257
6390033	9822	-1115	-9529
6390361	7743	-2664	-9661
6390689	5560	-3931	-8883
6391017	3846	-4449	-8561
6391345	2300	-4674	-8315
6391673	1865	-4714	-8019
6392001	2194	-4994	-7683
6392329	3151	-5106	-7621
6392657	3997	-5095	-7738
6392985	4374	-5588	-7885
6393313	4450	-5880	-7621
6393641	4658	-5896	-7458
6393969	5158	-5912	-7280
6394297	5839	-5405	-6925
6394625	6540	-5204	-6529
6394953	7047	-4992	-6084
6395281	7114	-4807	-5806
6395609	6968	-4751	-5652
6395937	6444	-4796	-5794
6396265	6241	-4406	-5951
6396593	5696	-3487	-6058
6396921	5702	-3012	-6193
6397249	6004	-2258	-6216
6397577	5438	-1516	-6226
6397905	5254	-1307	-5827
6398233	6627	-601	-4940
6398561	8235	644	-3201
6398889	8073	2305	540
6399217	6455	3667	3581
6399545	6409	2805	3253
6399873	8537	5256	1285
6400201	11981	7006	-1668
6400529	20739	6225	-2094
6400857	12782	10320	4463
6401185	-1671	-1209	366
6401513	-9637	-7084	-4399
6401841	-11521	-518	-4079
6402169	-10948	825	-1774
6402497	-5153	2081	-811
6402825	-2235	1771	-401
6403153	-1801	1645	-304
6403481	-1346	2104	-683
6403809	79	2438	-1261
6404137	2792	3654	-2025
6404465	4591	3965	-2665
6404793	5555	4161	-2815
6405121	5636	4122	-3042
6405449	6298	4172	-3511
6405777	6857	4263	-4074
6406105	6912	4813	-4396
6406433	6926	4860	-4627
6406761	5845	5049	-4819
6407089	5656	5502	-4979
6407417	6034	5525	-5368
6407745	6180	6218	-5703
6408073	6975	5567	-6078
6408401	7567	5538	-6296
6408729	7423	5012	-6267
6409057	7177	4431	-6024
6409385	6133	3757	-5514
6409713	3654	3229	-4691
6410041	379	2486	-3557
6410369	-2311	1784	-3023
6410697	-4836	1336	-2320
6411025	-9136	555	-2247
6411353	-9057	-9	-2886
6411681	-8642	1087	-3277
6412009	-6245	1850	-3250
6412337	-3760	1915	-3029
6412665	-2836	1913	-2811
6412993	-2788	1324	-2324
6413321	-2737	1472	-2135
6413649	-1627	2105	-2017
6413977	-426	2517	-2277
6414305	329	2968	-2278
6414633	98	2494	-2486
6414961	-947	1857	-2404
6415289	-2445	1547	-2418
6415617	-2703	1147	-2255
6415945	-2606	1023	-2362
6416273	-1945	955	-2532
6416601	-1039	994	-2767
6416929	-96	1385	-3075
6417257	743	1520	-3272
6417585	1260	1711	-3430
6417913	1860	2033	-3492
6418241	2144	1867	-3514
6418569	2092	1982	-3527
6418897	1835	2023	-3708
6419225	1783	2138	-3856
6419553	2109	2171	-4052
6419881	2946	2532	-4333
6420209	3870	1952	-4173
6420537	4294	1693	-4101
6420865	3564	1254	-4002
6421193	2585	1192	-3917
6421521	2300	1140	-3744
6421849	2132	976	-3681
6422177	2376	708	-3645
6422505	3213	699	-3846
6422833	4175	908	-3873
6423161	5384	1105	-4070
6423489	6699	1182	-4274
6423817	7690	1223	-4456
6424145	8334	1492	-4640
6424473	8895	1241	-5209
6424801	9365	738	-5737
6425129	9601	816	-6268
6425457	9472	1005	-6275
6425785	8863	1463	-5891
6426113	7675	564	-5957
6426441	6310	676	-5692
6426769	5387	671	-5437
6427097	5523	365	-5197
6427425	5915	445	-4828
6427753	6167	481	-4452
6428081	5607	546	-3958
6428409	4270	516	-3350
6428737	3971	770	-2630
6429065	4690	1265	-1796
6429393	5842	1924	-707
6429721	7757	2394	117
6430049	9075	2664	1551
6430377	9304	2348	3249
6430705	6011	1903	4944
6431033	1129	1979	5365
6431361	-1015	1341	3992
6431689	-333	918	2307
6432017	690	1364	1138
6432345	3164	2852	1479
6432673	3765	3548	1981
6433001	2631	3220	1600
6433329	3254	2689	1308
6433657	5526	2735	593
6433985	8006	1684	-279
6434313	9315	363	-923
6434641	8178	-661	-686
6434969	6255	-1010	351
6435297	3165	-1047	1342
6435625	126	-1332	2088
6435953	-1794	-1474	1908
6436281	-2424	-1009	1368
6436609	-2650	333	1296
6436937	-3031	912	1219
6437265	-2793	344	704
6437593	-2333	-9	182
6437921	-2930	-355	17
6438249	-4131	-400	-125
6438577	-5683	-687	-724
6438905	-5719	252	-1660
6439233	-3608	1321	-3045
6439561	-1382	1304	-3791
6439889	1086	475	-4191
6440217	2397	245	-4570
6440545	1552	-526	-5028
6440873	1091	-835	-4973
6441201	-60	-794	-4867
6441529	-1270	-1211	-5173
6441857	-2054	-1677	-5672
6442185	-2869	-2058	-6179
6442513	-3659	-2671	-6766
6442841	-3856	-3507	-7643
6443169	-4744	-3709	-8757
6443497	-6624	-3297	-9809
6443825	-8416	-2609	-9907
6444153	-8821	-2832	-10217
6444481	-9714	-4293	-9833
6444809	-12203	-4889	-7983
6445137	-15819	-4916	-6478
6445465	-20270	-5790	-6361
6445793	-23354	-6468	-5948
6446121	-19053	-5307	-4802
6446449	-12223	-3591	-1928
6446777	-6960	-1749	1323
6447105	-3355	-1102	4970
6447433	-632	-1277	8233
6447761	788	-1355	9779
6448089	2444	-1576	10972
6448417	3325	-1643	12683
6448745	3585	-1631	14237
6449073	4263	-2078	15569
6449401	4118	-2011	16133
6449729	3863	-1767	16010
6450057	2688	-1226	15580
6450385	2174	-459	15089
6450713	2373	-114	14971
6451041	2338	-106	15651
6451369	2269	-305	16011
6451697	1997	162	16348
6452025	-1427	-1250	17957
6452353	-2696	-3157	17926
6452681	-2230	-3746	17346
6453009	-769	-3012	17881
6453337	739	-2788	17857
6453665	2338	-2618	17151
6453993	3465	-2577	16884
6454321	4084	-2691	16955
6454649	3431	-3080	17002
6454977	2756	-3584	16707
6455305	1703	-3542	16508
6455633	755	-3690	16088
6455961	-85	-3560	15346
6456289	-905	-3434	14343
6456617	-2844	-2917	11975
6456945	-3936	-2935	9018
6457273	-4083	-2084	6190
6457601	-3273	-724	3962
6457929	-2423	182	1475
6458257	-2223	1619	-1223
6458585	-2266	2587	-3600
6458913	-519	3619	-5415
6459241	21278	3558	-6424
6459569	6833	10611	-218
6459897	-11078	995	-2974
6460225	-17667	-3769	-14341
6460553	-15537	1337	-14415
6460881	-13323	3329	-9903
6461209	-9279	1835	-5423
6461537	-6139	1840	-4006
6461865	-4726	3202	-5734
6462193	-3249	4394	-7188
6462521	-9	5026	-7345
6462849	3095	6179	-7802
6463177	3579	5546	-7381
6463505	4204	5589	-7049
6463833	3725	4174	-6433
6464161	1261	3536	-5637
6464489	-1249	2407	-4685
6464817	-3165	1212	-4172
6465145	-5014	860	-3895
6465473	-5411	1591	-3473
6465801	-5561	1122	-2801
6466129	-5047	1148	-2281
6466457	-3218	1062	-2395
6466785	-1099	1405	-2656
6467113	768	1900	-2762
6467441	1692	2095	-2894
6467769	1795	1879	-2912
6468097	724	1532	-2466
6468425	-1356	1473	-2208
6468753	-2875	1390	-1969
6469081	-3378	1340	-1832
6469409	-2719	1334	-1910
6469737	-1675	965	-1962
6470065	-593	845	-2193
6470393	-245	814	-2329
6470721	-290	723	-2507
6471049	-636	458	-2565
6471377	-991	374	-2646
6471705	-1282	377	-2668
6472033	-1210	506	-2789
6472361	-860	700	-3029
6472689	-255	930	-3379
6473017	394	1170	-3679
6473345	782	1500	-3961
6473673	1323	1820	-4207
6474001	1892	1844	-4485
6474329	2595	2158	-4529
6474657	3150	2284	-4479
6474985	3536	2307	-4430
6475313	3754	2347	-4418
6475641	3870	2296	-4566
6475969	4086	2329	-4749
6476297	4193	2414	-4839
6476625	4415	2511	-4896
6476953	4756	2739	-4985
6477281	5235	2797	-5223
6477609	5944	2943	-5484
6477937	6772	3019	-5804
6478265	7611	3046	-5973
6478593	8286	2983	-6075
6478921	8707	2795	-6259
6479249	8521	2564	-6494
6479577	7838	3113	-6100
6479905	7085	3274	-5523
6480233	6524	2441	-5247
6480561	6825	1435	-5108
6480889	6985	1123	-4759
6481217	7301	2194	-3984
6481545	7571	2623	-3410
6481873	8515	2585	-2645
6482201	9990	2395	-1755
6482529	11167	2603	-784
6482857	11824	2383	-174
6483185	12479	1759	-308
6483513	13702	1523	-296
6483841	13875	1590	127
6484169	11346	1797	527
6484497	6205	1051	232
6484825	2388	471	117
6485153	1407	722	-147
6485481	3219	606	-458
6485809	4999	662	-546
6486137	5237	1457	-289
6486465	4229	1997	-445
6486793	3756	2252	-728
6487121	4502	2214	-1452
6487449	5942	2464	-2086
6487777	7126	3111	-2283
6488105	8800	3462	-1931
6488433	9787	3180	-1367
6488761	9570	2580	-984
6489089	8558	2087	-775
6489417	7339	1640	-521
6489745	6153	1154	-349
6490073	4544	460	-26
6490401	3076	-223	309
6490729	1359	-922	687
6491057	-585	-1167	1105
6491385	-2223	-1095	1416
6491713	-3051	-917	1517
6492041	-2861	-493	1510
6492369	-1861	-63	1252
6492697	-556	350	946
6493025	578	682	756
6493353	1232	933	558
6493681	1400	884	325
6494009	2197	73	260
6494337	1209	901	398
6494665	559	792	678
6494993	-264	399	929
6495321	-1424	357	1115
6495649	-2611	302	1040
6495977	-3142	366	925
6496305	-3161	464	755
6496633	-2860	597	502
6496961	-2371	731	363
6497289	-1607	937	406
6497617	-1236	960	355
6497945	-700	938	201
6498273	-208	1013	71
6498601	261	969	7
6498929	411	1054	-242
6499257	465	1256	-526
6499585	671	1281	-873
6499913	1181	1530	-1202
6500241	1181	1530	-1202
6500569	2029	1720	-1334
6500897	3457	2006	-1673
6501225	5496	1183	-1710
6501553	6731	300	-1598
6501881	7490	749	-1825
6502209	7700	593	-1798
6502537	7077	201	-1883
6502865	6688	-149	-1818
6503193	7290	-311	-1685
6503521	8705	-368	-1265
6503849	9922	-526	-729
6504177	10506	-894	-99
6504505	10231	-1195	292
6504833	10002	-1793	497
6505161	10313	-2042	747
6505489	11016	-2245	792
6505817	12071	-2106	1243
6506145	13379	-1877	1452
6506473	15410	-1302	1657
6506801	16452	-1089	2341
6507129	15530	-832	2591
6507457	15088	114	2239
6507785	13719	789	1332
6508113	14255	2138	-272
6508441	19834	3465	-1954
6508769	27155	4459	-5659
6509097	32767	4200	-8816
6509425	32767	4279	-11173
6509753	32767	5334	-12255
6510081	32767	5975	-12892
6510409	27026	5412	-12890
6510737	19273	3659	-13223
6511065	14873	2415	-14451
6511393	14162	1939	-15163
6511721	14324	1633	-15262
6512049	13819	750	-15404
6512377	12949	37	-15077
6512705	11786	-573	-15239
6513033	10150	-1182	-14812
6513361	8469	-1310	-14254
6513689	7157	-1333	-13834
6514017	6281	-1397	-13326
6514345	5777	-1664	-12750
6514673	5146	-1342	-12401
6515001	5150	-1185	-11188
6515329	5324	-455	-10401
6515657	5788	-654	-9882
6515985	6580	-245	-9123
6516313	7536	245	-8566
6516641	9095	1160	-7945
6516969	9899	1978	-7151
6517297	9954	2493	-6404
6517625	10702	2863	-5561
6517953	11426	3162	-4459
6518281	11810	3241	-3366
6518609	11927	3148	-2500
6518937	11736	3378	-1613
6519265	10786	3731	-896
6519593	10195	4073	-196
6519921	9823	4555	439
6520249	8722	4533	742
6520577	7773	4643	417
6520905	7749	4661	-295
6521233	7851	4319	-1421
6521561	8593	4683	-2501
6521889	9206	5706	-3255
6522217	9676	6532	-3616
6522545	9304	7219	-3986
6522873	8912	6942	-4446
6523201	8898	6655	-5039
6523529	9522	6558	-5293
6523857	10177	6132	-5647
6524185	13709	6060	-6163
6524513	21108	5609	-2799
6524841	13117	7423	373
6525169	10744	3967	-9383
6525497	4949	6392	-9983
6525825	2735	4985	-8136
6526153	2478	4816	-6726
6526481	4103	5742	-6196
6526809	5833	6592	-6802
6527137	7378	7644	-7899
6527465	9105	7315	-7973
6527793	9054	6395	-7883
6528121	8170	3791	-5987
6528449	6327	3564	-4242
6528777	2752	3652	-3313
6529105	-1269	2327	-3628
6529433	-4922	1240	-4144
6529761	-5703	767	-4366
6530089	-6831	1067	-4705
6530417	-7632	1454	-4680
6530745	-6427	2093	-4298
6531073	-4115	1978	-3953
6531401	-1854	1813	-4039
6531729	45	1625	-4408
6532057	1452	1749	-4857
6532385	2063	2141	-5098
6532713	2378	2106	-5182
6533041	1639	2130	-5008
6533369	66	1629	-4605
6533697	-2041	1740	-4385
6534025	-2701	1423	-4087
6534353	-2823	1394	-4055
6534681	-1634	1475	-3998
6535009	-1101	1737	-3921
6535337	171	2038	-4157
6535665	1295	2354	-4298
6535993	2161	2254	-4293
6536321	2164	2028	-4172
6536649	1460	1715	-4180
6536977	1190	1269	-4131
6537305	-56	1042	-4143
6537633	-336	1095	-3855
6537961	-695	910	-3535
6538289	-718	696	-3392
6538617	-364	529	-3301
6538945	285	700	-3050
6539273	735	575	-2917
6539601	1316	19	-3010
6539929	1606	232	-2726
6540257	2284	345	-2579
6540585	3050	682	-2583
6540913	3789	934	-2512
6541241	4749	1049	-2633
6541569	5908	1018	-2755
6541897	7292	1108	-3000
6542225	8582	905	-3285
6542553	9774	501	-3703
6542881	10491	1337	-4046
6543209	11792	1377	-4289
6543537	13217	1471	-4474
6543865	14482	1350	-4296
6544193	14488	1186	-3901
6544521	11789	114	-3312
6544849	7987	-1161	-3089
6545177	4812	-1365	-2932
6545505	3629	-642	-2731
6545833	3385	-343	-2371
6546161	3488	-503	-2219
6546489	3758	-361	-1750
6546817	4269	28	-883
6547145	4954	565	-225
6547473	5435	341	600
6547801	4162	528	1211
6548129	1802	194	1879
6548457	-676	235	2449
6548785	-2392	418	2011
6549113	-2991	2172	1468
6549441	212	3662	200
6549769	4012	4292	-1277
6550097	8172	3478	-2807
6550425	13118	2157	-3531
6550753	16760	2986	-2847
6551081	16811	2710	-1283
6551409	14621	1295	-837
6551737	10080	545	-303
6552065	6558	-138	152
6552393	5610	215	428
6552721	4505	-288	615
6553049	3621	-453	920
6553377	1937	-229	967
6553705	537	-590	855
6554033	-325	-170	853
6554361	-799	139	949
6554689	-934	-120	877
6555017	-1538	353	706
6555345	-1835	467	554
6555673	-1518	321	366
6556001	-1067	185	157
6556329	-553	152	171
6556657	-769	13	185
6556985	-765	-149	87
6557313	-849	-181	105
6557641	-748	-152	41
6557969	-988	-63	-105
6558297	-1256	24	-249
6558625	-1570	171	-576
6558953	-1535	483	-1119
6559281	-956	783	-1667
6559609	-197	1056	-2279
6559937	1106	1254	-2420
6560265	721	1096	-3046
6560593	-125	1055	-3359
6560921	-1502	1119	-3847
6561249	-2562	1245	-4081
6561577	-3133	1293	-3983
6561905	-3785	1202	-3818
6562233	-4806	660	-3855
6562561	-6335	-161	-3540
6562889	-7548	-635	-3410
6563217	-8747	-1093	-3142
6563545	-10145	-1826	-2606
6563873	-11321	-3130	-1802
6564201	-11931	-4426	-923
6564529	-12363	-5495	182
6564857	-12988	-6513	1572
6565185	-13627	-7710	2886
6565513	-14501	-8849	4237
6565841	-14524	-10271	5364
6566169	-14249	-11642	6497
6566497	-16441	-12188	7144
6566825	-19283	-11484	7395
6567153	-21187	-10401	6928
6567481	-21847	-9322	6394
6567809	-20439	-7675	5771
6568137	-16555	-5506	5246
6568465	-12515	-3434	4972
6568793	-9143	-1618	4795
6569121	-6080	226	4140
6569449	-3153	1771	2911
6569777	285	2623	1800
6570105	3290	2757	1152
6570433	5892	2800	1196
6570761	6454	2997	2221
6571089	4371	2163	2345
6571417	1248	1025	2227
6571745	-1425	-215	1831
6572073	-4345	-914	1378
6572401	-6933	-995	1526
6572729	-7013	-826	1194
6573057	-5893	-1057	1265
6573385	-3449	-663	844
6573713	-427	-349	578
6574041	1865	603	358
6574369	2223	842	206
6574697	1368	61	261
6575025	-599	-632	300
6575353	-1787	-778	-131
6575681	-2361	-1223	-236
6576009	-2491	-2094	-49
6576337	-3540	-980	-403
6576665	-1646	-1994	180
6576993	-3033	-1739	-20
6577321	-2632	-1475	-232
6577649	-2358	-1657	-347
6577977	-2452	-1424	-669
6578305	-2598	-2092	-773
6578633	-2793	-2551	-583
6578961	-3450	-2231	-417
6579289	-2914	-2367	-206
6579617	-2609	-2766	-57
6579945	-2376	-2777	1
6580273	-2310	-2806	120
6580601	-1973	-2637	59
6580929	-1627	-2589	-86
6581257	-1455	-2811	-285
6581585	-1656	-3036	-492
6581913	-1909	-3067	-384
6582241	-1974	-3138	-319
6582569	-1997	-3296	-322
6582897	-1823	-3210	-347
6583225	-1486	-3143	-388
6583553	-992	-3220	-369
6583881	-407	-3317	-219
6584209	-89	-3436	-90
6584537	-94	-3578	-40
6584865	-182	-3626	69
6585193	-172	-3809	266
6585521	-90	-4185	520
6585849	2	-4421	1027
6586177	647	-4583	1523
6586505	460	-4791	1748
6586833	771	-4641	1894
6587161	1268	-4632	1945
6587489	1683	-4766	1868
6587817	2013	-5359	1705
6588145	2220	-6034	1305
6588473	1827	-6762	849
6588801	905	-7855	106
6589129	-150	-8813	-373
6589457	-2229	-9320	-480
6589785	-4930	-10161	-509
6590113	-6871	-10567	-709
6590441	-8393	-9883	-916
6590769	-8647	-9830	-1349
6591097	-8180	-9229	-1912
6591425	-7427	-7697	-2435
6591753	-7195	-6259	-2029
6592081	-6602	-4850	-1793
6592409	-5183	-4789	-2577
6592737	-5021	-5422	-2577
6593065	-8271	-4558	-1883
6593393	-13420	-3166	-368
6593721	-16895	-1178	921
6594049	-19155	-1188	1963
6594377	-18560	99	3545
6594705	-14845	436	5487
6595033	-9222	409	6877
6595361	-3507	764	8602
6595689	-1110	769	10353
6596017	-63	796	11893
6596345	-686	403	13139
6596673	-1672	168	15013
6597001	-2499	-783	16515
6597329	-3705	-1291	17823
6597657	-5311	-2043	19193
6597985	-6822	-2934	20399
6598313	-7885	-3868	21807
6598641	-9691	-4510	22771
6598969	-12156	-5224	23184
6599297	-14457	-6372	23379
6599625	-16209	-6871	23336
6599953	-16375	-7100	22649
6600281	-16682	-8646	22042
6600609	-15498	-10023	20993
6600937	-15154	-10834	20813
6601265	-14163	-10781	19534
6601593	-13055	-10425	17719
6601921	-12529	-8880	14823
6602249	-11722	-6747	10810
6602577	-11164	-4272	7217
6602905	-9703	-1677	4105
6603233	-8723	-714	69
6603561	-6134	276	-2809
6603889	-3571	1405	-5342
6604217	-3795	2193	-7563
6604545	-6584	4039	-7890
6604873	-4579	3882	-6340
6605201	-679	3397	-3468
6605529	-3226	4829	-2454
6605857	-7500	2514	-3953
6606185	-6966	2349	-5307
6606513	-4855	3698	-3471
6606841	-3260	3196	-3384
6607169	44	3597	-2542
6607497	770	4112	-1915
6607825	177	3362	-1458
6608153	-480	2318	-1458
6608481	-672	1532	-1126
6608809	-2191	1163	-815
6609137	-3310	520	-679
6609465	-3881	250	-718
6609793	-3977	205	-626
6610121	-4269	118	-689
6610449	-5797	363	-1013
6610777	-4582	119	-489
6611105	-4788	180	-947
6611433	-4448	435	-1186
6611761	-3567	620	-1454
6612089	-2712	891	-1503
6612417	-2155	994	-1614
6612745	-904	398	-1245
6613073	-866	1051	-1295
6613401	-313	1085	-1101
6613729	132	1325	-1114
6614057	549	1254	-1123
6614385	944	1134	-949
6614713	1289	1034	-799
6615041	1452	928	-700
6615369	1378	960	-642
6615697	1127	951	-561
6616025	1004	902	-494
6616353	1040	765	-488
6616681	971	753	-558
6617009	1089	776	-571
6617337	986	761	-526
6617665	1254	602	-342
6617993	1207	475	-243
6618321	904	473	-241
6618649	536	369	-110
6618977	307	255	55
6619305	171	-82	167
6619633	94	-380	206
6619961	25	-641	316
6620289	39	-813	484
6620617	375	-888	614
6620945	893	-956	987
6621273	962	-1115	1235
6621601	1125	-1185	1508
6621929	1716	-1334	1896
6622257	2287	-1540	2495
6622585	2322	-1652	3052
6622913	2260	-1741	3477
6623241	3244	-1711	3886
6623569	4285	-1738	4277
6623897	5141	-1668	4600
6624225	6125	-1886	4590
6624553	6797	-1699	4624
6624881	7377	-1360	4577
6625209	8099	-564	4324
6625537	9535	505	4106
6625865	12087	1429	3752
6626193	15260	2353	3532
6626521	18462	2876	3533
6626849	21344	2743	3621
6627177	22818	2162	3726
6627505	23627	947	3038
6627833	21904	-265	1884
6628161	18964	-608	580
6628489	14864	-1678	-1095
6628817	10879	-2694	-3172
6629145	8196	-2208	-4488
6629473	6692	-2641	-5290
6629801	5464	-2904	-5515
6630129	3733	-4029	-5951
6630457	1887	-4738	-5965
6630785	166	-5023	-6119
6631113	-872	-5553	-5906
6631441	-651	-5540	-5874
6631769	297	-4919	-6108
6632097	1630	-4405	-5983
6632425	2521	-4443	-5946
6632753	3776	-4322	-5791
6633081	4668	-4255	-5627
6633409	5450	-4357	-5331
6633737	5668	-4195	-4981
6634065	5917	-3990	-4509
6634393	6260	-4053	-4154
6634721	5781	-4033	-3797
6635049	4743	-3765	-3356
6635377	3360	-3561	-2930
6635705	2179	-3487	-2531
6636033	2057	-3349	-2235
6636361	2716	-3196	-1965
6636689	3096	-2956	-1097
6637017	1389	-1892	612
6637345	-228	-1281	2254
6637673	268	-859	2600
6638001	875	-323	1633
6638329	436	1054	-1571
6638657	2207	2520	-2935
6638985	2826	3070	-2667
6639313	7169	2910	-1195
6639641	7050	5121	202
6639969	-7578	2159	2874
6640297	-10033	-3926	-3383
6640625	-8465	-8	-2177
6640953	-6878	1946	-2337
6641281	-2556	2104	-1819
6641609	228	1836	-1053
6641937	890	2054	-754
6642265	194	1288	-376
6642593	192	1170	-798
6642921	552	1522	-873
6643249	1119	1628	-651
6643577	1178	1702	-497
6643905	1298	1666	-625
6644233	1280	1846	-967
6644561	1894	2011	-1399
6644889	2664	2304	-1863
6645217	3423	2707	-2394
6645545	4092	3037	-2818
6645873	4630	3257	-3065
6646201	5229	3317	-3205
6646529	5462	3495	-3478
6646857	5515	3890	-3986
6647185	5443	4524	-4256
6647513	5188	5027	-4472
6647841	5210	5391	-5021
6648169	5259	5233	-5778
6648497	6055	5343	-6027
6648825	6653	5301	-6026
6649153	6800	5305	-6262
6649481	6774	5149	-6465
6649809	6793	4611	-6869
6650137	6663	4360	-7105
6650465	6481	4016	-7008
6650793	5854	3632	-6503
6651121	4916	3440	-5871
6651449	3489	3112	-5361
6651777	1678	2551	-4752
6652105	1678	2551	-4752
6652433	-881	2307	-3720
6652761	-3746	1812	-2618
6653089	-7012	1357	-2616
6653417	-9231	66	-3039
6653745	-7853	-249	-3537
6654073	-7017	517	-4026
6654401	-6203	206	-4003
6654729	-4124	1100	-3934
6655057	-2562	1494	-3837
6655385	-1866	1038	-3628
6655713	-1994	1040	-3420
6656041	-2813	944	-3290
6656369	-3370	1095	-3069
6656697	-4344	538	-3078
6657025	-4615	774	-2553
6657353	-4463	512	-2972
6657681	-4543	627	-2887
6658009	-4445	1031	-2589
6658337	-3895	888	-2506
6658665	-3085	690	-2648
6658993	-2438	541	-2608
6659321	-1890	691	-2700
6659649	-1495	841	-2801
6659977	-1393	666	-2864
6660305	-1389	1253	-2704
6660633	-1483	997	-2659
6660961	-1480	1053	-2851
6661289	-1381	812	-2953
6661617	-1294	1055	-2946
6661945	-447	1133	-2841
6662273	99	1102	-2856
6662601	703	1072	-2941
6662929	1309	1225	-2687
6663257	1426	1249	-2670
6663585	1715	1049	-2781
6663913	2471	1260	-2883
6664241	3549	1522	-2852
6664569	4727	1835	-2885
6664897	5739	2081	-3132
6665225	6147	2656	-3527
6665553	7415	2844	-4016
6665881	8801	2881	-4546
6666209	10228	2981	-5090
6666537	11919	3132	-5719
6666865	13378	3486	-6123
6667193	14077	3978	-5920
6667521	13812	3376	-4908
6667849	11954	1528	-4303
6668177	9748	513	-3940
6668505	7318	889	-3312
6668833	4228	475	-2619
6669161	1822	767	-2551
6669489	1071	1690	-2601
6669817	1631	2477	-2745
6670145	3471	2820	-2055
6670473	5265	3232	-1249
6670801	6690	3383	-368
6671129	8996	3908	672
6671457	11187	4186	2248
6671785	10822	3396	4076
6672113	7263	2308	4921
6672441	5091	636	4528
6672769	-8904	-2859	-647
6673097	-10430	-2548	-5843
6673425	1359	1121	-554
6673753	3716	1373	2279
6674081	2966	-2379	3111
6674409	1205	-1389	2607
6674737	1137	-640	1392
6675065	4168	328	789
6675393	6979	1107	303
6675721	9099	1415	385
6676049	8497	1036	175
6676377	6491	465	124
6676705	3342	-222	235
6677033	532	-701	98
6677361	-1212	-731	-167
6677689	-1870	-706	-761
6678017	-2167	91	-1164
6678345	-2905	255	-1882
6678673	-3661	-76	-2473
6679001	-3653	-346	-3123
6679329	-3142	-439	-3490
6679657	-2646	-645	-3810
6679985	-1961	-1236	-4190
6680313	-1631	-1576	-4575
6680641	-1178	-1781	-4990
6680969	-1013	-2015	-5516
6681297	-1167	-2421	-6020
6681625	-1694	-2319	-6667
6681953	-1832	-2107	-7316
6682281	-1995	-2105	-8117
6682609	-2123	-2018	-9020
6682937	-1674	-2461	-9768
6683265	-2835	-2872	-10442
6683593	-3028	-3560	-10350
6683921	-3470	-3987	-8889
6684249	-6821	-3586	-7598
6684577	-12360	-2088	-7416
6684905	-15004	-3880	-7069
6685233	-17482	-4526	-6227
6685561	-13285	-2759	-4108
6685889	-7848	-745	-1504
6686217	-4354	417	1208
6686545	-1990	861	4902
6686873	-414	1619	7460
6687201	-129	1461	9381
6687529	-592	1412	10898
6687857	-954	1302	12327
6688185	-543	770	13823
6688513	707	216	15330
6688841	2429	185	16786
6689169	3631	577	17824
6689497	2966	326	18830
6689825	1842	-368	19283
6690153	-245	-979	19585
6690481	-1921	-1475	19994
6690809	-2897	-2056	20486
6691137	-3821	-2629	20982
6691465	-4365	-3466	21540
6691793	-4617	-4694	21826
6692121	-3734	-4370	20920
6692449	-4993	-5559	21806
6692777	-5021	-6369	21978
6693105	-4605	-7873	22170
6693433	2552	-9166	21910
6693761	-5632	-6066	21349
6694089	-12338	-5511	15283
6694417	-12868	-5185	9663
6694745	-9180	-4841	7816
6695073	-4917	-2669	6697
6695401	-2742	554	5850
6695729	981	1270	4933
6696057	3276	1018	3360
6696385	4749	370	-581
6696713	4510	2328	-4678
6697041	4215	4323	-8649
6697369	2619	5585	-8869
6697697	1902	6006	-7712
6698025	3157	5116	-7970
6698353	4000	4484	-7527
6698681	3029	3990	-6707
6699009	2302	3630	-6186
6699337	3247	1186	-5716
6699665	2561	3158	-5642
6699993	1339	3989	-6078
6700321	557	3298	-6200
6700649	225	3405	-6368
6700977	-13	5054	-6736
6701305	801	6605	-6709
6701633	2013	7859	-6578
6701961	4250	8789	-6570
6702289	7353	10106	-6400
6702617	9383	10445	-5893
6702945	11194	10017	-5802
6703273	11205	9446	-5181
6703601	10111	9116	-4438
6703929	9079	8670	-3553
6704257	7868	7601	-2916
6704585	6283	5960	-2183
6704913	5474	3119	-2223
6705241	4957	-1474	-2774
6705569	1864	-5361	-2134
6705897	-8974	-8484	-5244
6706225	-18515	-5368	-5156
6706553	-22183	-2294	-3129
6706881	-18327	-511	-1692
6707209	-8353	817	-2029
6707537	1303	-526	-3847
6707865	4932	-46	-5398
6708193	4185	1244	-5005
6708521	1526	1401	-4830
6708849	346	1503	-4255
6709177	131	1394	-3810
6709505	466	1400	-3462
6709833	716	1340	-3127
6710161	1078	1214	-2790
6710489	592	1274	-2568
6710817	718	1261	-2323
6711145	596	1090	-2226
6711473	104	846	-2080
6711801	-177	512	-2010
6712129	-456	136	-1992
6712457	-340	98	-1964
6712785	-26	50	-2040
6713113	494	222	-2121
6713441	715	463	-2397
6713769	1315	514	-2124
6714097	1136	395	-2305
6714425	845	454	-2199
6714753	762	251	-2103
6715081	757	-196	-2276
6715409	1222	-278	-2420
6715737	1930	-127	-2606
6716065	2417	33	-2957
6716393	2865	37	-3210
6716721	3536	363	-3447
6717049	4184	787	-3604
6717377	4951	881	-3589
6717705	5721	491	-3823
6718033	6394	430	-4203
6718361	6985	806	-4481
6718689	7995	1827	-4715
6719017	9805	2607	-5194
6719345	12908	3082	-5936
6719673	16840	4130	-6751
6720001	20434	5641	-7213
6720329	23802	6703	-8124
6720657	26913	8877	-9217
6720985	30129	11006	-10411
6721313	32561	13077	-11607
6721641	32767	14617	-12494
6721969	32767	15941	-11663
6722297	32767	14333	-11766
6722625	29504	12743	-11909
6722953	24601	14175	-10093
6723281	20767	17487	-7500
6723609	20327	20417	-5056
6723937	21740	21388	-1996
6724265	24130	20125	700
6724593	25415	19384	1794
6724921	26436	19437	701
6725249	25680	19029	-1433
6725577	23186	18075	-2648
6725905	19337	16073	-2061
6726233	16376	13103	100
6726561	13667	10281	1732
6726889	11067	7383	2759
6727217	9121	4856	3110
6727545	7702	2450	3014
6727873	7285	383	2369
6728201	11454	-1472	2343
6728529	6005	5502	4793
6728857	2115	3170	3888
6729185	-3630	-4532	4191
6729513	-3248	663	2930
6729841	956	3259	1883
6730169	6754	1685	1155
6730497	10634	1064	1202
6730825	9509	525	1043
6731153	6044	525	1102
6731481	2932	201	704
6731809	712	-44	816
6732137	-2316	1755	9
6732465	-116	321	570
6732793	-221	529	571
6733121	-418	434	963
6733449	-190	276	946
6733777	69	437	728
6734105	405	-218	415
6734433	536	-13	128
6734761	533	-386	-66
6735089	192	-156	-170
6735417	-276	-424	-259
6735745	-907	-565	-259
6736073	-1470	-679	-173
6736401	-1854	-722	-136
6736729	-2039	-627	-58
6737057	-2101	-362	-71
6737385	-1901	-30	-128
6737713	-1442	19	-248
6738041	-876	11	-428
6738369	-459	-11	-582
6738697	-229	18	-578
6739025	-306	265	-476
6739353	-245	137	-354
6739681	-336	98	-360
6740009	-439	71	-402
6740337	-387	51	-462
6740665	-266	30	-494
6740993	-223	145	-512
6741321	-180	129	-539
6741649	-254	69	-553
6741977	-310	78	-492
6742305	-438	87	-419
6742633	-565	63	-341
6742961	-724	59	-324
6743289	-732	42	-336
6743617	-684	-51	-292
6743945	-711	-108	-264
6744273	-339	71	-206
6744601	-613	-199	-376
6744929	-892	82	-86
6745257	-1190	125	102
6745585	-1444	75	143
6745913	-1508	-45	286
6746241	-1536	-161	447
6746569	-1364	-297	570
6746897	-1180	-397	782
6747225	-1298	-418	1023
6747553	-1537	-307	1197
6747881	-1597	-436	1429
6748209	-2004	-270	1601
6748537	-2089	-347	1679
6748865	-2070	-506	1703
6749193	-1925	-498	1778
6749521	-1589	-388	1746
6749849	-1086	-315	1732
6750177	-679	-266	1701
6750505	-162	-225	1724
6750833	3	81	1843
6751161	151	-39	1854
6751489	133	-86	1795
6751817	-42	-51	1967
6752145	-56	-217	1938
6752473	15	-203	1830
6752801	118	-197	1810
6753129	679	-278	1879
6753457	1182	-305	2015
6753785	1831	-296	2008
6754113	2398	-211	2038
6754441	3576	-359	2250
6754769	4055	-679	2536
6755097	4493	-630	2703
6755425	5142	-461	3124
6755753	5676	-307	3168
6756081	6537	-284	3272
6756409	7406	-571	3876
6756737	8599	-1364	4551
6757065	9148	-1866	4851
6757393	8773	-1562	4728
6757721	8879	-883	4291
6758049	9997	-151	3611
6758377	11690	127	3128
6758705	14694	375	2872
6759033	17251	720	3096
6759361	18211	45	3175
6759689	16256	-1433	2083
6760017	11854	-2693	-524
6760345	7434	-3958	-2837
6760673	3173	-2468	-5342
6761001	2532	-1159	-5912
6761329	3658	-1005	-6072
6761657	5489	-852	-6220
6761985	6459	-1638	-6494
6762313	6964	-2228	-7065
6762641	6179	-2725	-7156
6762969	4721	-2893	-6799
6763297	3443	-2846	-6532
6763625	2699	-2797	-6352
6763953	2508	-2749	-6454
6764281	2997	-2373	-6349
6764609	3510	-1903	-6105
6764937	4113	-1441	-5823
6765265	4981	-1204	-5571
6765593	5664	-894	-5291
6765921	6248	-531	-5065
6766249	6884	-272	-4808
6766577	7015	139	-4478
6766905	6717	454	-3924
6767233	5855	1009	-3388
6767561	5363	1113	-2818
6767889	4990	1136	-2554
6768217	4751	739	-2264
6768545	4788	212	-2000
6768873	4506	-108	-1986
6769201	3901	-503	-2001
6769529	2555	-466	-2199
6769857	1187	125	-1917
6770185	232	452	-1127
6770513	-556	308	-496
6770841	-512	562	-384
6771169	-654	1618	-838
6771497	-342	1408	-1332
6771825	830	1570	-2010
6772153	2119	2384	-2287
6772481	2610	2549	-2399
6772809	2370	2199	-2477
6773137	1594	1748	-2134
6773465	734	1741	-1716
6773793	-67	2093	-1377
6774121	-396	2164	-1535
6774449	548	2149	-1685
6774777	1996	2262	-1353
6775105	-452	1663	-1234
6775433	-1533	1633	-2071
6775761	-1602	1916	-1816
6776089	-1207	1710	-955
6776417	-1084	895	-758
6776745	-1269	714	-948
6777073	-855	958	-1038
6777401	-630	970	-1047
6777729	-205	1026	-1285
6778057	213	816	-770
6778385	690	965	-691
6778713	854	914	-604
6779041	829	1083	-694
6779369	646	1175	-710
6779697	320	1133	-691
6780025	-41	1024	-652
6780353	-406	988	-580
6780681	-631	1069	-508
6781009	-736	1166	-475
6781337	-635	1218	-489
6781665	-371	1146	-551
6781993	-62	1092	-571
6782321	238	1142	-590
6782649	475	1260	-533
6782977	600	1324	-425
6783305	690	1412	-376
6783633	689	1478	-288
6783961	721	1466	-216
6784289	753	1516	-161
6784617	849	1547	-123
6784945	1031	1615	-108
6785273	1191	1743	-135
6785601	1249	1738	1
6785929	884	1417	445
6786257	91	1637	688
6786585	-155	2185	791
6786913	-400	2737	810
6787241	-122	3232	379
6787569	-218	4040	-401
6787897	-524	4714	-1273
6788225	1255	4439	-1921
6788553	2641	4633	-2231
6788881	3352	4750	-2293
6789209	4728	4578	-2562
6789537	6421	4332	-2903
6789865	8320	4202	-3388
6790193	10043	4546	-3835
6790521	11101	5296	-3998
6790849	11485	5882	-3985
6791177	11537	6157	-4306
6791505	11149	5937	-4346
6791833	10244	5440	-4196
6792161	8860	5057	-3658
6792489	6390	4519	-2908
6792817	4175	4162	-2262
6793145	2301	3697	-1741
6793473	8	3302	-1516
6793801	-2325	3150	-2179
6794129	-2592	3070	-2864
6794457	-1091	3204	-2977
6794785	1150	2756	-3188
6795113	2793	1814	-3500
6795441	2872	1314	-3243
6795769	2058	1742	-3170
6796097	1115	1763	-2946
6796425	657	1352	-2761
6796753	1081	1282	-2642
6797081	1508	1357	-2598
6797409	1709	1475	-2603
6797737	1801	1357	-2422
6798065	1879	1615	-2283
6798393	1459	1743	-2005
6798721	1100	1770	-1829
6799049	1143	1715	-1617
6799377	1860	1779	-1527
6799705	2480	1923	-1496
6800033	3241	2110	-1570
6800361	4176	2291	-1726
6800689	4865	2376	-1707
6801017	5237	2490	-1595
6801345	5294	2491	-1609
6801673	5323	2408	-1546
6802001	5374	2281	-1632
6802329	5373	2193	-1747
6802657	5331	2194	-1833
6802985	5347	2180	-1822
6803313	5366	2173	-1698
6803641	4929	2013	-1684
6803969	4554	1542	-1752
6804297	4085	1358	-1774
6804625	3764	1225	-1816
6804953	3406	1004	-1959
6805281	3143	638	-2157
6805609	2850	499	-2250
6805937	2721	537	-2348
6806265	2670	532	-2468
6806593	2853	358	-2683
6806921	3006	240	-2780
6807249	3006	240	-2780
6807577	3142	282	-2873
6807905	3095	320	-2958
6808233	2953	373	-3107
6808561	3056	548	-3241
6808889	3496	832	-3312
6809217	4403	887	-3331
6809545	5430	788	-3416
6809873	6266	812	-3460
6810201	6746	839	-3486
6810529	6990	896	-3528
6810857	7047	916	-3615
6811185	6981	1082	-3835
6811513	7437	1330	-4103
6811841	8204	1669	-4270
6812169	9122	1528	-4307
6812497	10227	1339	-4324
6812825	11066	1097	-4199
6813153	11608	1037	-4228
6813481	11913	921	-4344
6813809	11717	1231	-4605
6814137	11888	2335	-4904
6814465	13073	3641	-4852
6814793	14770	4827	-4777
6815121	16403	5333	-4792
6815449	17252	5824	-4947
6815777	17870	6485	-5284
6816105	18347	7672	-5401
6816433	19848	9217	-5200
6816761	22083	10694	-4855
6817089	24752	11952	-4463
6817417	27269	12544	-3898
6817745	28417	12666	-3311
6818073	28329	12809	-2844
6818401	26288	12829	-2340
6818729	23050	13062	-1638
6819057	19412	12802	-1148
6819385	16274	12394	-709
6819713	14550	11850	-251
6820041	13810	11356	257
6820369	13359	10358	570
6820697	13195	9299	757
6821025	12939	7925	844
6821353	12181	6843	996
6821681	11182	5362	758
6822009	9710	3317	909
6822337	7914	2109	953
6822665	5399	1678	1019
6822993	3088	1177	941
6823321	1800	974	967
6823649	1292	1204	801
6823977	1624	1406	589
6824305	2284	1745	334
6824633	2231	1951	198
6824961	2602	1399	173
6825289	2266	1152	-165
6825617	1948	1126	-132
6825945	1588	1005	-85
6826273	1209	777	-62
6826601	988	597	-56
6826929	699	579	-173
6827257	321	647	-244
6827585	136	535	-213
6827913	176	428	-187
6828241	237	507	-136
6828569	153	443	-57
6828897	14	415	-75
6829225	-90	291	-120
6829553	-185	145	-159
6829881	-261	116	-212
6830209	-322	80	-227
6830537	-420	17	-226
6830865	-450	-7	-204
6831193	-387	-24	-208
6831521	-301	-93	-190
6831849	-246	-141	-210
6832177	-276	-177	-203
6832505	-292	-142	-208
6832833	-395	-159	-145
6833161	-663	-223	-117
6833489	-750	-253	-62
6833817	-861	-324	-44
6834145	-954	-400	24
6834473	-1119	-479	67
6834801	-1245	-505	64
6835129	-1165	-506	6
6835457	-1043	-484	-31
6835785	-865	-449	2
6836113	-700	-440	66
6836441	-668	-440	122
6836769	-849	-474	180
6837097	-1084	-529	287
6837425	-1442	-569	384
6837753	-1741	-656	509
6838081	-1928	-683	609
6838409	-1940	-801	712
6838737	-1856	-921	694
6839065	-1416	-1382	607
6839393	-1403	-1531	744
6839721	-1358	-1785	846
6840049	-1424	-2234	810
6840377	-1786	-2791	821
6840705	-2212	-3425	914
6841033	-3046	-4041	1137
6841361	-4259	-4521	1510
6841689	-5570	-4856	1876
6842017	-6166	-5096	2091
6842345	-6614	-5289	1958
6842673	-6831	-5057	1905
6843001	-7327	-4820	2113
6843329	-8038	-4885	2307
6843657	-8610	-5921	2425
6843985	-9417	-6475	2550
6844313	-9867	-6995	2701
6844641	-10320	-7656	2851
6844969	-11253	-7949	2827
6845297	-12877	-7915	2783
6845625	-15133	-7681	2611
6845953	-17506	-7402	2310
6846281	-19299	-6983	2060
6846609	-19870	-6906	1873
6846937	-18383	-6371	1441
6847265	-16617	-5854	1083
6847593	-16261	-5476	1071
6847921	-17066	-5170	1371
6848249	-18223	-5145	1785
6848577	-18500	-4941	2163
6848905	-17609	-4361	2831
6849233	-16057	-3824	3808
6849561	-14841	-3450	4797
6849889	-14088	-3139	5100
6850217	-14112	-2258	4960
6850545	-14179	-638	4090
6850873	-13274	1181	3440
6851201	-10247	2905	3309
6851529	-6172	3749	3203
6851857	-1472	3694	3368
6852185	2037	3561	3618
6852513	4136	3177	4517
6852841	7928	1561	4877
6853169	4228	7187	9061
6853497	-8319	6461	8747
6853825	-15629	-9399	-1089
6854153	-18540	-2661	-2181
6854481	-13977	5657	-1320
6854809	-8979	4053	145
6855137	-3196	-3389	2175
6855465	-1776	-94	1800
6855793	-3165	392	1627
6856121	-3343	-106	1384
6856449	-3097	131	1168
6856777	-3689	-934	1174
6857105	-4286	-586	1263
6857433	-4572	-653	1555
6857761	-4317	-243	1470
6858089	-3378	-222	1525
6858417	-2648	-62	1221
6858745	-2474	41	788
6859073	-1578	-724	1168
6859401	-2215	-73	691
6859729	-2883	-390	647
6860057	-3317	-592	574
6860385	-3376	-678	461
6860713	-2903	-872	393
6861041	-2196	-946	413
6861369	-1486	-993	280
6861697	-1101	-684	212
6862025	-918	-537	270
6862353	-735	-578	200
6862681	-681	-606	156
6863009	-710	-433	101
6863337	-516	-523	-39
6863665	-135	-403	-102
6863993	255	-297	31
6864321	585	-210	36
6864649	754	-67	-67
6864977	989	-44	-114
6865305	1059	-205	-15
6865633	1266	-307	-292
6865961	1872	-442	-602
6866289	1658	-229	-570
6866617	1965	63	-554
6866945	2365	210	-621
6867273	2713	308	-716
6867601	2769	542	-694
6867929	2934	756	-723
6868257	2842	759	-813
6868585	2915	781	-807
6868913	2689	749	-795
6869241	2502	642	-752
6869569	2567	558	-704
6869897	3028	577	-664
6870225	3801	565	-551
6870553	4190	768	-371
6870881	4107	798	-273
6871209	3580	851	-207
6871537	2608	836	-72
6871865	2116	766	40
6872193	1952	722	153
6872521	2279	683	295
6872849	2358	724	412
6873177	2799	844	556
6873505	3433	744	608
6873833	3347	661	654
6874161	2942	799	695
6874489	2549	974	826
6874817	2398	907	962
6875145	2446	707	1157
6875473	2365	565	1324
6875801	2354	327	1220
6876129	2371	79	1073
6876457	2188	42	911
6876785	2015	-185	825
6877113	1349	-275	754
6877441	684	-459	679
6877769	274	-665	593
6878097	106	-861	495
6878425	171	-1113	429
6878753	118	-1276	438
6879081	-113	-1303	498
6879409	-316	-1366	438
6879737	-579	-1612	400
6880065	-618	-1824	313
6880393	-788	-1883	280
6880721	-906	-1820	233
6881049	-1306	-1848	335
6881377	-1963	-1911	527
6881705	-2664	-2447	465
6882033	-3367	-3231	448
6882361	-4020	-4227	312
6882689	-5031	-5101	214
6883017	-6034	-5977	124
6883345	-7239	-6196	274
6883673	-8342	-6121	587
6884001	-9084	-5783	927
6884329	-8342	-5231	1017
6884657	-6746	-4435	1079
6884985	-4948	-3157	1146
6885313	-3303	-1512	1516
6885641	-2393	-394	2171
6885969	-1610	-1202	1923
6886297	-1383	-2761	1509
6886625	-2317	-3973	1537
6886953	-4344	-3824	1916
6887281	-6333	-3294	2369
6887609	-6864	-3193	2448
6887937	-6092	-2842	2340
6888265	-4069	-2590	1947
6888593	-2265	-2340	1857
6888921	-947	-2146	1659
6889249	-295	-1794	1713
6889577	24	-1550	1562
6889905	227	-1783	1396
6890233	-191	-1880	1453
6890561	-1096	-1918	1770
6890889	-2112	-2583	1876
6891217	-3188	-3121	1937
6891545	-3657	-4245	1702
6891873	-4095	-6115	1107
6892201	-4299	-9160	786
6892529	-4909	-11623	233
6892857	-7963	-11214	-289
6893185	-11226	-11319	216
6893513	-13006	-10977	275
6893841	-12650	-9599	190
6894169	-11859	-7752	58
6894497	-10429	-7863	-43
6894825	-10191	-7512	152
6895153	-10664	-7676	716
6895481	-11485	-7546	1303
6895809	-11360	-7550	1117
6896137	-11107	-7822	652
6896465	-12712	-8087	-164
6896793	-14431	-7856	-424
6897121	-15350	-7198	164
6897449	-15966	-6609	1234
6897777	-16766	-5569	1918
6898105	-16799	-4978	2174
6898433	-16248	-4720	2704
6898761	-15245	-4793	3400
6899089	-13789	-4282	3980
6899417	-11954	-3678	4518
6899745	-10314	-2746	5423
6900073	-8930	-3380	5959
6900401	-8101	-3841	6678
6900729	-8296	-3983	7650
6901057	-8866	-4363	8555
6901385	-9407	-4546	9442
6901713	-9900	-4437	10299
6902041	-10521	-4429	11198
6902369	-11127	-4427	11984
6902697	-11707	-4777	12745
6903025	-12033	-5017	13424
6903353	-12211	-5361	13953
6903681	-12306	-5477	14404
6904009	-12427	-5675	14693
6904337	-12672	-6240	14783
6904665	-12967	-6353	14877
6904993	-13008	-6642	14940
6905321	-13024	-6755	15066
6905649	-13085	-7082	15107
6905977	-13239	-7126	15224
6906305	-13011	-7100	15292
6906633	-12577	-7194	15297
6906961	-11797	-6976	15374
6907289	-11057	-6471	15554
6907617	-10454	-5999	15566
6907945	-10065	-5803	15366
6908273	-8995	-6048	14788
6908601	-8444	-5588	14338
6908929	-7058	-5481	13836
6909257	-6279	-5514	13012
6909585	-5525	-5372	12065
6909913	-4861	-5050	11051
6910241	-4755	-4700	9465
6910569	-5178	-3907	8304
6910897	-6625	-2743	7026
6911225	-7048	-2004	5289
6911553	-7668	-765	3939
6911881	-7854	24	2493
6912209	-8254	213	696
6912537	-6488	1235	-1004
6912865	-688	2462	-2439
6913193	5224	2921	-3212
6913521	-1884	832	-3356
6913849	-8467	3897	-5679
6914177	-8465	3148	-8908
6914505	-7544	3951	-7110
6914833	-5609	3487	-6186
6915161	77	3405	-4676
6915489	1370	3836	-4859
6915817	643	5000	-5692
6916145	-602	3991	-5634
6916473	-644	4091	-5730
6916801	-809	4862	-5628
6917129	-1936	4583	-5534
6917457	-3433	4238	-4408
6917785	-4376	3273	-3542
6918113	-4743	2460	-3013
6918441	-4040	1691	-2505
6918769	-3311	1285	-2521
6919097	-2079	632	-2366
6919425	-1042	1238	-2534
6919753	-596	1167	-2628
6920081	-714	1118	-2719
6920409	-939	1073	-2695
6920737	-1383	983	-2762
6921065	-1952	708	-2697
6921393	-2517	695	-2605
6921721	-2540	601	-2463
6922049	-2314	533	-2454
6922377	-1789	539	-2243
6922705	-1570	807	-2043
6923033	-1244	982	-1717
6923361	-1157	1119	-1574
6923689	-1114	1058	-1456
6924017	-1265	1008	-1218
6924345	-1662	736	-1047
6924673	-1768	369	-1087
6925001	-1904	306	-956
6925329	-1492	164	-883
6925657	-793	54	-1058
6925985	-447	-106	-934
6926313	23	44	-885
6926641	558	392	-1012
6926969	871	431	-1004
6927297	1214	529	-912
6927625	1315	551	-739
6927953	1165	680	-503
6928281	773	594	-222
6928609	409	685	10
6928937	36	818	83
6929265	-2	814	120
6929593	27	801	177
6929921	252	740	76
6930249	458	858	19
6930577	564	745	-2
6930905	627	722	-93
6931233	745	693	-156
6931561	1001	601	-213
6931889	1060	516	-247
6932217	1052	452	-291
6932545	1105	419	-247
6932873	895	256	-242
6933201	750	147	-233
6933529	479	6	-178
6933857	222	-68	-124
6934185	-20	-103	-80
6934513	-127	-114	-42
6934841	-160	-222	-23
6935169	-200	-320	-11
6935497	-223	-450	40
6935825	-252	-623	100
6936153	-475	-774	192
6936481	-739	-975	274
6936809	-897	-1088	323
6937137	-706	-1061	365
6937465	-263	-1032	472
6937793	222	-1022	615
6938121	599	-1089	877
6938449	767	-1211	1071
6938777	680	-1322	1198
6939105	492	-1361	1350
6939433	212	-1417	1543
6939761	74	-1421	1652
6940089	163	-1212	1715
6940417	448	-1093	1765
6940745	902	-965	1654
6941073	1513	-792	1587
6941401	2102	-699	1515
6941729	2479	-713	1516
6942057	2558	-608	1623
6942385	2318	-665	1824
6942713	1803	-637	1998
6943041	1339	-741	2239
6943369	1025	-856	2444
6943697	1047	-820	2576
6944025	1168	-989	2631
6944353	1194	-1297	2731
6944681	1343	-1635	2798
6945009	1340	-1997	2770
6945337	1468	-2360	2706
6945665	1513	-2541	2897
6945993	1586	-2572	2997
6946321	2106	-2635	3246
6946649	2394	-2933	3735
6946977	2904	-3023	4028
6947305	3516	-3268	4459
6947633	3817	-3451	4882
6947961	3363	-3863	5096
6948289	2935	-4229	5538
6948617	2643	-4698	5808
6948945	2344	-4713	6012
6949273	3788	-4839	5974
6949601	4809	-3236	6278
6949929	3959	-2171	5807
6950257	6022	-2137	4938
6950585	7292	-1305	4558
6950913	9352	-274	4880
6951241	13092	390	5738
6951569	16022	1423	5782
6951897	17351	2653	2294
6952225	18325	2654	-3301
6952553	18271	1221	-7548
6952881	15032	317	-9199
6953209	9519	-555	-10170
6953537	4501	-211	-11162
6953865	1541	664	-11755
6954193	-57	790	-12154
6954521	43	1208	-12480
6954849	959	1505	-13175
6955177	2492	1597	-13593
6955505	4218	1883	-14372
6955833	5788	2247	-15131
6956161	6637	2492	-15184
6956489	7347	2192	-14851
6956817	7281	1948	-14737
6957145	6815	2040	-14438
6957473	5910	1948	-14297
6957801	5486	2005	-14407
6958129	4457	2248	-14294
6958457	3690	2531	-13896
6958785	2982	2657	-13702
6959113	3052	2761	-13357
6959441	3067	2842	-12969
6959769	3135	2929	-12607
6960097	3438	2955	-12290
6960425	3917	2558	-11843
6960753	3891	2764	-11236
6961081	4056	2555	-10845
6961409	4416	2394	-10559
6961737	4882	2242	-10206
6962065	5191	2292	-9752
6962393	5399	2325	-9294
6962721	5318	2403	-8900
6963049	4942	2511	-8345
6963377	4432	2720	-7847
6963705	4892	2758	-7258
6964033	4892	2758	-7258
6964361	4928	2789	-6773
6964689	4802	2761	-6138
6965017	5079	2744	-5564
6965345	5515	2763	-4991
6965673	5732	2848	-4234
6966001	5726	2772	-3461
6966329	5335	2778	-2565
6966657	4762	2934	-1554
6966985	3862	3108	-452
6967313	3077	3109	596
6967641	2894	3399	1967
6967969	3332	3821	3373
6968297	5045	4273	5056
6968625	6308	4210	6795
6968953	6715	3933	7380
6969281	5080	4817	6025
6969609	4826	4407	3463
6969937	5104	4161	3028
6970265	3306	4391	3868
6970593	2287	4537	3944
6970921	2542	3992	3418
6971249	2668	3991	2903
6971577	2212	3383	2590
6971905	1591	3137	2398
6972233	1338	3474	2462
6972561	1357	3271	2524
6972889	1850	3340	2754
6973217	2177	2920	2880
6973545	2361	2166	2777
6973873	1952	1502	2991
6974201	-1150	715	2835
6974529	-5010	101	2817
6974857	-7611	744	2406
6975185	-7375	1587	2498
6975513	-4779	1942	2372
6975841	-2204	2126	1795
6976169	-898	1259	1880
6976497	-429	1152	1516
6976825	-559	719	1417
6977153	-865	437	1412
6977481	-1230	117	1399
6977809	-1265	94	1317
6978137	-933	136	1124
6978465	-450	402	892
6978793	-12	138	680
6979121	119	45	457
6979449	11	-116	362
6979777	-53	-157	289
6980105	46	-117	225
6980433	121	-27	112
6980761	172	-172	155
6981089	178	-145	166
6981417	179	-109	183
6981745	320	-77	156
6982073	509	-123	65
6982401	733	-165	10
6982729	878	-206	-50
6983057	1074	-260	-123
6983385	1023	-226	-140
6983713	930	-220	-162
6984041	875	-222	-150
6984369	774	-174	-151
6984697	712	-163	-84
6985025	710	-169	-46
6985353	777	-194	53
6985681	901	-106	37
6986009	1054	-101	82
6986337	1187	-53	78
6986665	1204	-18	115
6986993	1175	-8	120
6987321	1095	-6	150
6987649	964	-12	198
6987977	783	-21	195
6988305	639	-43	217
6988633	512	-81	238
6988961	373	-88	301
6989289	314	-83	282
6989617	293	-124	272
6989945	387	-112	205
6990273	329	-85	255
6990601	350	-98	252
6990929	327	-142	216
6991257	258	-108	205
6991585	245	-140	202
6991913	235	-140	222
6992241	254	-118	203
6992569	248	-40	145
6992897	176	-14	100
6993225	182	50	38
6993553	119	63	24
6993881	86	59	-3
6994209	22	75	-34
6994537	7	89	-51
6994865	12	61	-60
6995193	5	75	-71
6995521	75	80	-62
6995849	84	64	-84
6996177	85	72	-94
6996505	55	73	-108
6996833	-19	96	-101
6997161	-211	101	-79
6997489	-354	140	-60
6997817	-496	184	-29
6998145	-573	197	-13
6998473	-598	202	-69
6998801	-470	235	-99
6999129	-324	262	-102
6999457	-192	273	-88
6999785	-195	238	-67
7000113	-260	237	-39
7000441	-365	156	-27
7000769	-479	162	1
7001097	-552	133	2
7001425	-514	129	-20
7001753	-430	153	-46
7002081	-337	172	-77
7002409	-219	185	-98
7002737	-155	186	-107
7003065	-143	170	-99
7003393	-161	135	-87
7003721	-218	131	-85
7004049	-247	147	-84
7004377	-233	148	-98
7004705	-164	182	-119
7005033	-139	185	-131
7005361	-92	182	-118
7005689	-88	178	-123
7006017	-67	154	-96
7006345	-26	154	-94
7006673	41	164	-102
7007001	70	154	-89
7007329	96	149	-64
7007657	92	133	-67
7007985	42	139	-36
7008313	-45	128	5
7008641	-64	130	3
7008969	-58	127	14
7009297	5	135	20
7009625	87	140	-3
7009953	105	146	-4
7010281	117	132	0
7010609	71	115	2
7010937	-12	99	15
7011265	-110	99	17
7011593	-200	97	19
7011921	-214	99	-5
7012249	-210	127	-36
7012577	-138	138	-58
7012905	-77	150	-71
7013233	-26	142	-68
7013561	-29	133	-65
7013889	-56	149	-55
7014217	-83	137	-44
7014545	-100	133	-40
7014873	-124	129	-22
7015201	-141	149	-30
7015529	-195	147	-16
7015857	-230	157	-17
7016185	-261	181	-11
7016513	-259	178	-11
7016841	-289	167	-9
7017169	-320	165	-28
7017497	-374	164	-13
7017825	-389	188	-29
7018153	-356	193	-50
7018481	-256	206	-68
7018809	-192	193	-68
7019137	-123	216	-73
7019465	-60	195	-91
7019793	-47	180	-90
7020121	-124	169	-83
7020449	-201	147	-47
7020777	-315	144	-55
7021105	-417	157	-59
7021433	-451	177	-95
7021761	-500	250	-134
7022089	-571	169	-186
7022417	-172	181	-107
7022745	-58	89	-25
7023073	-182	-106	-20
7023401	-312	-113	-167
7023729	250	125	-442
7024057	703	432	-829
7024385	1556	510	-1040
7024713	2358	498	-1030
7025041	2681	223	-844
7025369	2781	66	-817
7025697	2654	-221	-571
7026025	2477	-310	-455
7026353	2059	-408	-253
7026681	1651	-589	-157
7027009	1349	-882	-97
7027337	1205	-1137	-40
7027665	1282	-1409	-30
7027993	1359	-1628	26
7028321	1349	-1853	59
7028649	1097	-1940	83
7028977	971	-2032	89
7029305	847	-2033	79
7029633	882	-1860	-32
7029961	1123	-1715	-105
7030289	1412	-1673	17
7030617	1689	-1549	50
7030945	1625	-1261	-71
7031273	1426	-857	-266
7031601	1389	-496	-471
7031929	1568	-246	-612
7032257	1880	189	-901
7032585	2322	868	-1116
7032913	2247	1504	-1419
7033241	2196	2230	-1685
7033569	2914	3030	-1915
7033897	3835	3401	-1999
7034225	3638	3916	-2068
7034553	2788	4594	-1864
7034881	1735	5018	-1508
7035209	163	5160	-1084
7035537	-1267	5242	-734
7035865	-2112	5161	-388
7036193	-2482	5096	-104
7036521	-2729	5001	23
7036849	-2849	5026	134
7037177	-2950	4981	210
7037505	-3390	4905	293
7037833	-3899	4900	413
7038161	-4308	4927	568
7038489	-4542	5085	632
7038817	-4902	5214	718
7039145	-4763	5268	836
7039473	-4383	4571	1034
7039801	-4200	3213	1241
7040129	-4502	2817	1214
7040457	-4730	2069	1410
7040785	-5388	1505	1962
7041113	-5790	1488	2456
7041441	-5606	1439	2925
7041769	-4682	1594	3471
7042097	-3170	1776	4105
7042425	-1251	1626	4435
7042753	874	993	4377
7043081	2920	245	3631
7043409	4047	217	2214
7043737	3675	575	174
7044065	1381	1316	-218
7044393	-387	1764	750
7044721	-705	1044	1588
7045049	-1628	448	1245
7045377	-1616	483	1202
7045705	-479	477	899
7046033	1102	1205	789
7046361	1398	1534	914
7046689	1235	852	903
7047017	1083	527	908
7047345	717	599	912
7047673	29	651	933
7048001	-916	498	973
7048329	-1874	405	1115
7048657	-2183	445	962
7048985	-2144	397	1026
7049313	-1415	338	779
7049641	-652	490	472
7049969	-203	446	255
7050297	138	336	146
7050625	299	234	70
7050953	245	197	-22
7051281	198	208	-147
7051609	130	236	-107
7051937	165	256	-91
7052265	235	380	-120
7052593	520	524	-113
7052921	670	502	-155
7053249	442	403	-8
7053577	-463	298	212
7053905	-1359	26	248
7054233	-2484	-133	381
7054561	-3080	-210	505
7054889	-3014	-325	432
7055217	-2640	-255	341
7055545	-1502	-181	229
7055873	-591	84	56
7056201	159	198	-4
7056529	239	219	57
7056857	-52	55	182
7057185	-168	-63	274
7057513	-262	-242	367
7057841	-26	-239	442
7058169	289	-205	494
7058497	500	-102	545
7058825	432	-81	678
7059153	272	-71	760
7059481	-71	-98	796
7059809	-313	-141	827
7060137	-355	-97	870
7060465	-161	-108	857
7060793	96	-91	831
7061121	406	-71	830
7061449	552	-72	894
7061777	598	-97	959
7062105	649	-128	1014
7062433	620	-182	1095
7062761	534	-299	1180
7063089	342	-301	1230
7063417	197	-264	1291
7063745	175	-236	1339
7064073	272	-221	1377
7064401	487	-178	1422
7064729	648	-137	1461
7065057	756	-148	1473
7065385	635	-185	1518
7065713	439	-223	1546
7066041	249	-263	1543
7066369	126	-335	1492
7066697	128	-320	1419
7067025	234	-319	1319
7067353	327	-274	1232
7067681	416	-253	1224
7068009	444	-233	1187
7068337	416	-261	1161
7068665	383	-230	1162
7068993	281	-169	1148
7069321	169	-229	1121
7069649	245	-189	1026
7069977	414	-63	964
7070305	578	-42	935
7070633	666	21	924
7070961	725	112	907
7071289	804	124	885
7071617	724	122	841
7071945	543	-9	819
7072273	252	-105	800
7072601	-58	-141	778
7072929	-101	-158	764
7073257	-210	-160	736
7073585	-268	-76	728
7073913	-170	-35	727
7074241	-59	25	677
7074569	34	87	629
7074897	190	143	581
7075225	335	162	562
7075553	412	92	493
7075881	297	82	472
7076209	135	30	459
7076537	-56	16	482
7076865	-216	37	465
7077193	-360	51	428
7077521	-410	87	385
7077849	-341	91	344
7078177	-335	140	323
7078505	-213	175	276
7078833	-132	198	220
7079161	-46	246	155
7079489	49	292	103
7079817	80	296	46
7080145	65	327	11
7080473	45	335	-23
7080801	8	314	-65
7081129	-50	337	-117
7081457	-30	392	-175
7081785	145	447	-220
7082113	338	526	-345
7082441	546	649	-418
7082769	779	699	-548
7083097	1046	716	-690
7083425	958	740	-645
7083753	674	617	-587
7084081	423	532	-584
7084409	-60	467	-541
7084737	-411	373	-571
7085065	-541	362	-603
7085393	-594	409	-637
7085721	-528	409	-719
7086049	-290	475	-717
7086377	-136	474	-762
7086705	-100	419	-807
7087033	-170	341	-824
7087361	-312	282	-803
7087689	-462	269	-799
7088017	-508	275	-809
7088345	-500	290	-868
7088673	-469	351	-896
7089001	-426	374	-945
7089329	-411	374	-946
7089657	-432	340	-965
7089985	-418	258	-962
7090313	-426	239	-976
7090641	-444	259	-988
7090969	-467	222	-1015
7091297	-503	196	-1020
7091625	-536	187	-1055
7091953	-460	218	-1102
7092281	-318	293	-1153
7092609	-122	308	-1181
7092937	79	334	-1211
7093265	143	335	-1221
7093593	115	360	-1240
7093921	107	360	-1268
7094249	77	334	-1291
7094577	45	305	-1330
7094905	61	351	-1358
7095233	110	370	-1359
7095561	113	346	-1322
7095889	39	312	-1347
7096217	-49	279	-1340
7096545	-121	223	-1369
7096873	-141	255	-1376
7097201	-160	232	-1352
7097529	-222	210	-1328
7097857	-416	196	-1312
7098185	-587	144	-1267
7098513	-699	108	-1258
7098841	-694	56	-1257
7099169	-656	75	-1233
7099497	-432	133	-1249
7099825	-242	170	-1223
7100153	-79	127	-1204
7100481	-10	102	-1192
7100809	-97	81	-1158
7101137	-322	44	-1079
7101465	-454	48	-1001
7101793	-550	-1	-950
7102121	-648	-51	-904
7102449	-740	-52	-833
7102777	-849	-107	-770
7103105	-999	-150	-712
7103433	-961	-173	-738
7103761	-659	-150	-763
7104089	-291	-126	-763
7104417	54	-49	-716
7104745	304	-23	-705
7105073	400	-47	-714
7105401	374	-95	-719
7105729	170	-99	-635
7106057	46	-185	-629
7106385	-42	-171	-598
7106713	-105	-178	-577
7107041	-143	-194	-561
7107369	-120	-181	-544
7107697	-168	-193	-518
7108025	-186	-171	-510
7108353	-232	-174	-477
7108681	-268	-202	-455
7109009	-324	-184	-454
7109337	-378	-209	-452
7109665	-427	-210	-441
7109993	-440	-230	-432
7110321	-442	-208	-420
7110649	-412	-207	-411
7110977	-344	-184	-401
7111305	-275	-141	-372
7111633	-169	-47	-294
7111961	-77	35	-178
7112289	-98	34	-156
7112617	-93	37	-189
7112945	-177	-13	-123
7113273	-267	-106	-48
7113601	-352	-101	5
7113929	-444	-32	48
7114257	-456	4	81
7114585	-606	-49	107
7114913	-787	-86	182
7115241	-956	-194	243
7115569	-1154	-276	301
7115897	-1271	-285	321
7116225	-1359	-343	321
7116553	-1354	-332	316
7116881	-1332	-312	315
7117209	-1174	-255	283
7117537	-938	-182	232
7117865	-717	-145	201
7118193	-515	-76	177
7118521	-340	-30	180
7118849	-239	-4	153
7119177	-233	-9	124
7119505	-232	-29	136
7119833	-293	-62	142
7120161	-318	-81	130
7120489	-326	-75	107
7120817	-301	-26	108
7121145	-252	21	98
7121473	-165	39	82
7121801	-69	93	71
7122129	18	117	81
7122457	58	137	70
7122785	91	149	53
7123113	76	157	54
7123441	50	141	76
7123769	13	147	96
7124097	-61	147	90
7124425	-81	138	103
7124753	-137	151	102
7125081	-165	169	110
7125409	-153	164	111
7125737	-144	197	124
7126065	-167	200	116
7126393	-160	211	91
7126721	-177	221	104
7127049	-192	255	93
7127377	-232	290	89
7127705	-265	286	96
7128033	-329	267	104
7128361	-376	250	114
7128689	-477	209	77
7129017	-346	240	112
7129345	-312	252	95
7129673	-254	263	106
7130001	-222	271	117
7130329	-228	281	123
7130657	-261	263	119
7130985	-268	250	101
7131313	-334	254	100
7131641	-316	264	109
7131969	-241	250	84
7132297	-197	248	35
7132625	-103	250	-9
7132953	-34	289	-41
7133281	6	278	-50
7133609	38	266	-72
7133937	-20	248	-73
7134265	-15	247	-82
7134593	21	260	-92
7134921	53	266	-101
7135249	112	269	-120
7135577	112	269	-120
7135905	126	294	-135
7136233	101	259	-151
7136561	86	277	-149
7136889	38	274	-135
7137217	-7	266	-121
7137545	-54	274	-111
7137873	-58	274	-118
7138201	-57	273	-114
7138529	-39	284	-116
7138857	-26	272	-93
7139185	-39	276	-115
7139513	-16	267	-115
7139841	31	282	-96
7140169	40	276	-108
7140497	28	259	-86
7140825	20	262	-64
7141153	5	260	-61
7141481	6	254	-62
7141809	28	249	-42
7142137	42	248	-42
7142465	43	242	-33
7142793	41	219	-32
7143121	21	214	-23
7143449	34	203	-23
7143777	28	205	-11
7144105	22	203	-16
7144433	32	191	-13
7144761	20	176	-10
7145089	14	184	-5
7145417	-2	172	0
7145745	-39	174	7
7146073	-43	178	2
7146401	-32	183	-3
7146729	-39	175	-15
7147057	-19	177	-5
7147385	-38	203	3
7147713	-30	207	11
7148041	-10	216	36
7148369	48	231	12
7148697	52	255	22
7149025	117	273	-14
7149353	194	288	-59
7149681	248	289	-69
7150009	333	314	-101
7150337	243	267	-55
7150665	77	206	1
7150993	-105	168	36
7151321	-228	124	65
7151649	-271	132	39
7151977	-203	161	28
7152305	-81	218	3
7152633	62	221	-12
7152961	163	231	-10
7153289	143	220	22
7153617	116	225	42
7153945	50	195	79
7154273	3	185	96
7154601	-44	190	102
7154929	35	188	74
7155257	139	245	24
7155585	368	321	-38
7155913	575	330	-69
7156241	656	337	-77
7156569	641	297	-72
7156897	543	280	-31
7157225	409	251	-21
7157553	264	230	-4
7157881	197	237	7
7158209	183	233	-17
7158537	285	252	-51
7158865	436	310	-92
7159193	545	359	-129
7159521	606	366	-117
7159849	568	334	-106
7160177	463	302	-71
7160505	306	254	-55
7160833	144	244	-38
7161161	86	242	-46
7161489	71	260	-87
7161817	130	288	-100
7162145	200	316	-119
7162473	223	294	-131
7162801	173	298	-129
7163129	26	241	-97
7163457	-85	224	-70
7163785	-141	200	-70
7164113	-143	209	-102
7164441	-83	222	-129
7164769	25	242	-138
7165097	105	231	-138
7165425	103	218	-119
7165753	8	181	-90
7166081	-114	153	-65
7166409	-165	134	-40
7166737	-168	124	-43
7167065	-112	141	-44
7167393	-57	157	-57
7167721	-9	171	-74
7168049	-3	169	-67
7168377	-48	159	-60
7168705	-94	160	-43
7169033	-148	145	-35
7169361	-196	132	-26
7169689	-231	114	-13
7170017	-244	114	-18
7170345	-220	123	-17
7170673	-188	119	-17
7171001	-140	135	-19
7171329	-124	139	-37
7171657	-155	134	-25
7171985	-179	129	-14
7172313	-155	151	-30
7172641	-96	147	-41
7172969	0	186	-61
7173297	66	196	-70
7173625	64	189	-74
7173953	53	156	-66
7174281	-7	151	-38
7174609	-48	143	-33
7174937	-16	165	-36
7175265	40	170	-45
7175593	161	183	-70
7175921	237	182	-69
7176249	248	197	-62
7176577	213	196	-63
7176905	141	180	-33
7177233	52	157	-17
7177561	-29	126	-22
7177889	-66	127	-14
7178217	-60	118	-30
7178545	-4	152	-49
7178873	42	163	-49
7179201	81	174	-61
7179529	35	170	-62
7179857	-22	153	-52
7180185	-77	143	-62
7180513	-99	127	-50
7180841	-109	141	-70
7181169	-87	145	-58
7181497	-116	142	-72
7181825	-173	141	-78
7182153	-237	105	-59
7182481	-281	79	-57
7182809	-329	90	-53
7183137	-320	101	-58
7183465	-279	112	-61
7183793	-227	119	-78
7184121	-145	124	-82
7184449	-120	121	-89
7184777	-133	120	-69
7185105	-160	101	-71
7185433	-204	96	-67
7185761	-252	81	-53
7186089	-262	98	-53
7186417	-258	89	-43
7186745	-223	85	-55
7187073	-226	91	-54
7187401	-220	90	-46
7187729	-230	86	-54
7188057	-226	82	-43
7188385	-222	85	-49
7188713	-224	76	-25
7189041	-202	84	-55
7189369	-166	87	-32
7189697	-137	97	-47
7190025	-109	91	-32
7190353	-66	92	-28
7190681	-26	97	-40
7191009	-26	104	-31
7191337	-25	79	-34
7191665	-35	75	-34
7191993	-46	85	-24
7192321	-78	75	-34
7192649	-66	67	-20
7192977	-44	71	-28
7193305	-9	72	-35
7193633	21	58	-21
7193961	24	69	1
7194289	24	81	4
7194617	-6	70	0
7194945	-14	62	7
7195273	-71	51	26
7195601	-93	38	39
7195929	-114	49	35
7196257	-100	33	54
7196585	-85	51	49
7196913	-66	56	41
7197241	-61	67	47
7197569	-70	60	37
7197897	-43	49	60
7198225	-46	61	48
7198553	-38	58	45
7198881	-35	64	38
7199209	-74	50	57
7199537	-92	59	64
7199865	-115	58	68
7200193	-130	40	71
7200521	-119	57	57
7200849	-116	47	39
7201177	-92	67	28
7201505	-60	67	30
7201833	-67	78	12
7202161	-117	70	14
7202489	-112	82	4
7202817	-104	74	-5
7203145	-68	111	-11
7203473	-44	107	-39
7203801	-26	109	-38
7204129	-18	96	-32
7204457	-27	96	-42
7204785	-89	94	-31
7205113	-126	78	-27
7205441	-145	77	-12
7205769	-138	76	-33
7206097	-91	84	-37
7206425	-14	79	-51
7206753	2	49	-63
7207081	15	57	-62
7207409	4	45	-72
7207737	21	73	-71
7208065	-25	81	-69
7208393	-78	72	-66
7208721	-57	54	-60
7209049	11	23	-55
7209377	32	42	-17
7209705	-74	53	8
7210033	-112	-1	-23
7210361	-80	3	-97
7210689	2	38	-93
7211017	230	109	13
7211345	459	197	122
7211673	332	229	199
7212001	101	159	170
7212329	-323	9	53
7212657	-449	-83	9
7212985	-468	-70	80
7213313	-511	-241	-185
7213641	-809	-622	-508
7213969	-1149	-529	-670
7214297	-1155	-488	-821
7214625	-864	-436	-813
7214953	-827	-499	-969
7215281	-841	-505	-1090
7215609	-939	-383	-1191
7215937	-916	-201	-1129
7216265	-866	-129	-1099
7216593	-827	-68	-1164
7216921	-577	57	-1397
7217249	41	247	-1523
7217577	374	350	-1737
7217905	671	584	-2133
7218233	1164	963	-2511
7218561	1636	1224	-2569
7218889	2226	1290	-2617
7219217	2435	1408	-2799
7219545	2567	1392	-2992
7219873	2370	1347	-3111
7220201	1840	1336	-3179
7220529	1702	1342	-3134
7220857	1218	1591	-2929
7221185	987	1575	-2603
7221513	1001	1531	-2081
7221841	1054	1663	-1972
7222169	1297	1827	-1928
7222497	1519	1725	-2196
7222825	1015	1471	-2610
7223153	661	1078	-2507
7223481	111	979	-2190
7223809	-94	1155	-1861
7224137	-119	1195	-1163
7224465	466	952	-1095
7224793	1390	875	-1589
7225121	1996	378	-2043
7225449	2768	653	-2505
7225777	2527	969	-2489
7226105	1369	1060	-2458
7226433	-285	1254	-2347
7226761	-1349	1217	-2406
7227089	-1379	1195	-2832
7227417	-526	1257	-2840
7227745	-302	999	-2570
7228073	-980	804	-2372
7228401	-1661	840	-2278
7228729	-1178	1277	-2044
7229057	-162	1004	-1640
7229385	697	345	-450
7229713	482	-296	938
7230041	70	409	1559
7230369	-335	1260	1848
7230697	46	1263	2032
7231025	776	643	2493
7231353	1499	-1121	2554
7231681	1274	-2067	3007
7232009	1329	-2813	3435
7232337	-9	-3911	3132
7232665	-177	-4411	3543
7232993	1814	-4396	4716
7233321	1942	-2928	5803
7233649	3117	-2519	6715
7233977	6072	-3519	7341
7234305	11009	-4077	9543
7234633	12487	-4174	10066
7234961	5526	-3273	7493
7235289	-4688	-3720	1370
7235617	-9772	-2944	-3535
7235945	-7752	-1760	-5372
7236273	-4471	-993	-5742
7236601	-1383	-402	-4671
7236929	840	227	-3496
7237257	1679	-91	-1842
7237585	2019	-479	-823
7237913	1567	-1123	397
7238241	723	-1623	1233
7238569	407	-1417	1723
7238897	751	-1312	1825
7239225	1201	-1175	1857
7239553	641	-1274	1784
7239881	263	-1273	1738
7240209	-204	-1446	1814
7240537	-500	-1691	1574
7240865	-1186	-1925	1180
7241193	-2071	-1996	118
7241521	-2259	-2209	-770
7241849	-2113	-1833	-1816
7242177	-2355	-1901	-3118
7242505	1297	-3400	-4780
7242833	-4920	-5442	-8103
7243161	-6727	-3982	-15324
7243489	-13862	6654	-16182
7243817	-2643	9340	-11746
7244145	6699	2455	-8923
7244473	4708	-1844	-6320
7244801	560	2835	-5558
7245129	403	3787	-4956
7245457	1775	4760	-3696
7245785	2306	3579	-3192
7246113	1783	252	-4739
7246441	1451	32	-2719
7246769	737	1207	-964
7247097	-1585	-1160	249
7247425	-1968	-428	1306
7247753	-334	1221	2503
7248081	1767	2009	3368
7248409	1036	699	4708
7248737	-3195	-2955	1068
7249065	-7190	-2294	-789
7249393	-5458	-323	-465
7249721	-1440	652	1475
7250049	1660	783	3157
7250377	3393	344	4352
7250705	4452	-37	3878
7251033	4191	-281	3422
7251361	4437	-489	2903
7251689	4704	-307	2851
7252017	4522	-121	3094
7252345	4012	-119	3650
7252673	3054	3	3885
7253001	1869	-244	3602
7253329	1178	-453	3273
7253657	398	112	2624
7253985	-79	582	2357
7254313	-158	212	2229
7254641	-255	-148	2240
7254969	137	-158	1971
7255297	320	52	2070
7255625	455	-195	2108
7255953	354	-391	2151
7256281	102	-512	2184
7256609	-195	-300	2161
7256937	-332	-72	2104
7257265	-213	299	1978
7257593	-171	362	1704
7257921	324	169	1313
7258249	250	37	1051
7258577	319	117	859
7258905	57	164	690
7259233	193	49	631
7259561	600	-69	565
7259889	926	-160	617
7260217	1407	-572	566
7260545	850	-796	637
7260873	398	-635	1193
7261201	-173	-340	1234
7261529	-707	-326	1319
7261857	-1438	-411	1621
7262185	-2413	-605	1853
7262513	-3975	-1395	1926
7262841	-5675	-1702	1580
7263169	-7157	-1673	1337
7263497	-7239	-1388	1093
7263825	-6286	-929	586
7264153	-4828	-605	113
7264481	-3578	-371	-314
7264809	-2502	-156	-604
7265137	-2279	-413	-245
7265465	-2907	-440	202
7265793	-4376	-580	657
7266121	-4927	-427	638
7266449	-4822	0	347
7266777	-3038	302	258
7267105	-814	587	76
7267433	693	775	-94
7267761	1429	1171	-288
7268089	1699	1335	-276
7268417	1713	1298	-136
7268745	1523	1162	-109
7269073	1435	1181	-182
7269401	1396	1110	-158
7269729	1561	1097	-26
7270057	1906	1113	127
7270385	1825	1142	353
7270713	1742	1187	462
7271041	1437	1125	598
7271369	896	1081	716
7271697	497	958	720
7272025	388	840	726
7272353	741	710	563
7272681	802	688	453
7273009	798	678	357
7273337	695	722	302
7273665	534	684	285
7273993	401	611	178
7274321	261	538	15
7274649	247	505	-81
7274977	366	455	-173
7275305	511	442	-233
7275633	537	424	-247
7275961	535	415	-240
7276289	423	399	-238
7276617	359	369	-181
7276945	310	374	-129
7277273	254	365	-80
7277601	177	363	-27
7277929	98	323	-35
7278257	-35	292	-45
7278585	-190	251	-42
7278913	-386	215	-42
7279241	-535	178	-37
7279569	-633	148	-47
7279897	-667	154	-68
7280225	-651	161	-72
7280553	-609	158	-93
7280881	-525	168	-106
7281209	-482	151	-104
7281537	-507	86	-127
7281865	-480	163	-109
7282193	-417	175	-84
7282521	-333	171	-120
7282849	-197	195	-141
7283177	-98	215	-142
7283505	-153	178	-113
7283833	-282	122	-76
7284161	-463	92	-23
7284489	-532	74	-18
7284817	-457	100	-45
7285145	-305	114	-55
7285473	-133	126	-76
7285801	-17	130	-68
7286129	54	125	-69
7286457	29	107	-85
7286785	-31	75	-76
7287113	-69	76	-72
7287441	-94	81	-73
7287769	-59	96	-64
7288097	20	138	-64
7288425	178	160	-100
7288753	321	191	-129
7289081	396	211	-142
7289409	448	200	-148
7289737	407	191	-134
7290065	343	177	-122
7290393	241	173	-95
7290721	136	159	-87
7291049	98	131	-88
7291377	75	155	-68
7291705	56	147	-87
7292033	32	157	-59
7292361	42	138	-67
7292689	72	147	-75
7293017	99	158	-59
7293345	132	157	-72
7293673	165	184	-52
7294001	248	173	-87
7294329	382	171	-131
7294657	391	194	-118
7294985	325	157	-84
7295313	180	116	-55
7295641	58	101	-29
7295969	-30	75	-40
7296297	-43	70	-26
7296625	1	64	-43
7296953	8	80	-12
7297281	-26	81	-25
7297609	-45	58	-21
7297937	-68	46	-21
7298265	-64	64	-16
7298593	-60	82	-4
7298921	-47	90	-17
7299249	-19	65	-34
7299577	-4	67	-37
7299905	-25	60	-39
7300233	-63	59	-30
7300561	-105	55	-18
7300889	-99	52	-18
7301217	-90	42	-31
7301545	-28	64	-39
7301873	50	57	-44
7302201	54	53	-63
7302529	48	79	-31
7302857	11	53	-32
7303185	-38	37	-30
7303513	-55	31	-32
7303841	-63	34	-28
7304169	-45	39	-19
7304497	-34	46	-16
7304825	-8	47	-27
7305153	8	44	-24
7305481	41	65	-15
7305809	47	48	-7
7306137	35	43	9
7306465	51	54	6
7306793	64	57	7
7307121	64	57	7
7307449	61	62	-2
7307777	81	70	3
7308105	55	83	8
7308433	72	78	-9
7308761	40	79	-3
7309089	45	86	22
7309417	110	94	-18
7309745	193	122	-43
7310073	247	133	-47
7310401	246	152	-32
7310729	195	128	-28
7311057	161	122	-24
7311385	164	133	-23
7311713	209	137	-35
7312041	229	160	-47
7312369	183	138	-30
7312697	161	143	-11
7313025	111	123	-4
7313353	85	132	0
7313681	78	134	-3
7314009	102	133	-14
7314337	118	149	-8
7314665	129	156	-26
7314993	97	149	-20
7315321	105	150	-9
7315649	74	151	-4
7315977	40	166	4
7316305	35	146	-1
7316633	12	145	-1
7316961	-7	145	15
7317289	-48	143	12
7317617	-68	134	28
7317945	-70	135	42
7318273	-58	145	32
7318601	-59	143	38
7318929	-30	143	25
7319257	-20	149	23
7319585	-21	150	33
7319913	-31	141	22
7320241	-38	142	37
7320569	-58	136	31
7320897	-74	139	37
7321225	-91	141	42
7321553	-84	127	34
7321881	-77	137	29
7322209	-93	120	25
7322537	-106	117	27
7322865	-133	118	2
7323193	-152	130	17
7323521	-167	133	8
7323849	-187	115	-9
7324177	-209	115	-8
7324505	-227	120	-9
7324833	-260	119	0
7325161	-259	118	7
7325489	-218	92	8
7325817	-189	114	4
7326145	-116	137	-11
7326473	-25	145	-14
7326801	40	148	-11
7327129	68	143	11
7327457	75	128	18
7327785	71	136	34
7328113	80	124	45
7328441	102	115	51
7328769	116	109	68
7329097	114	99	90
7329425	89	89	108
7329753	29	81	116
7330081	-10	83	144
7330409	-45	64	146
7330737	-55	71	147
7331065	-51	58	144
7331393	-64	51	157
7331721	-76	55	127
7332049	-65	57	121
7332377	-74	63	139
7332705	-73	68	121
7333033	-28	95	111
7333361	9	106	79
7333689	66	116	69
7334017	101	102	58
7334345	114	101	53
