Time Stamp	Gyroscope X	Gyroscope Y	Gyroscope Z
RAW	RAW	RAW	RAW
no units	no units	no units	no units
3280103	9	163	-28
3280431	40	133	-49
3280759	54	101	-79
3281087	0	112	-88
3281415	-33	81	-92
3281743	-40	60	-112
3282071	-46	58	-137
3282399	-35	79	-151
3282727	-43	118	-169
3283055	-26	143	-170
3283383	-23	137	-183
3283711	-59	150	-184
3284039	-17	173	-179
3284367	32	126	-177
3284695	76	103	-156
3285023	68	104	-160
3285351	81	72	-157
3285679	48	90	-146
3286007	24	110	-126
3286335	21	64	-95
3286663	79	74	-110
3286991	4	66	-98
3287319	-134	18	-88
3287647	-96	-17	-73
3287975	22	113	-79
3288303	50	188	-67
3288631	30	196	-69
3288959	-21	180	-46
3289287	-32	213	-33
3289615	-83	194	-15
3289943	-118	159	-13
3290271	-121	155	1
3290599	-138	150	-11
3290927	-126	127	-2
3291255	-74	166	0
3291583	-80	206	16
3291911	-101	190	20
3292239	-97	166	45
3292567	-84	183	39
3292895	-111	196	46
3293223	-102	187	57
3293551	-74	176	55
3293879	-113	201	51
3294207	-143	220	46
3294535	-117	226	39
3294863	-73	214	17
3295191	-2	195	19
3295519	49	159	15
3295847	73	130	4
3296175	55	121	0
3296503	66	113	0
3296831	100	124	-10
3297159	133	142	-26
3297487	158	152	-50
3297815	153	144	-44
3298143	96	167	-46
3298471	32	154	-39
3298799	38	197	-43
3299127	22	191	-15
3299455	-48	174	-12
3299783	-75	193	-24
3300111	12	149	-74
3300439	313	74	-70
3300767	187	122	-43
3301095	49	145	-1
3301423	-116	5	37
3301751	-123	174	23
3302079	66	212	-19
3302407	-13	123	-18
3302735	84	257	-25
3303063	170	357	-20
3303391	143	285	-46
3303719	97	231	-35
3304047	42	181	-18
3304375	-8	131	-2
3304703	-28	125	-15
3305031	-55	155	-41
3305359	-86	142	-34
3305687	-89	136	-43
3306015	-93	136	-49
3306343	-39	178	-58
3306671	0	206	-62
3306999	33	193	-63
3307327	42	162	-49
3307655	29	161	-42
3307983	36	169	-52
3308311	76	166	-39
3308639	67	167	-34
3308967	57	223	-33
3309295	62	266	-21
3309623	140	292	-51
3309951	42	241	-65
3310279	-66	150	-29
3310607	-45	196	-21
3310935	82	274	-36
3311263	38	279	-37
3311591	2	225	-35
3311919	3	228	-17
3312247	91	283	-23
3312575	80	279	-24
3312903	29	266	-9
3313231	11	220	-19
3313559	-41	191	-19
3313887	-77	203	-12
3314215	-77	201	-3
3314543	-124	163	-21
3314871	-118	159	-9
3315199	-133	214	2
3315527	-118	225	1
3315855	-81	202	18
3316183	-103	208	37
3316511	-81	227	42
3316839	-79	239	41
3317167	-74	243	51
3317495	-56	220	45
3317823	-11	196	24
3318151	17	179	28
3318479	11	164	14
3318807	-11	169	-8
3319135	-37	141	-13
3319463	-29	155	-26
3319791	-24	203	-18
3320119	-8	208	-47
3320447	-1	227	-45
3320775	10	251	-46
3321103	3	245	-46
3321431	10	247	-52
3321759	16	215	-52
3322087	-27	174	-36
3322415	-32	165	-39
3322743	-40	156	-43
3323071	-46	122	-28
3323399	-10	118	-21
3323727	25	89	-2
3324055	25	89	2
3324383	18	94	6
3324711	-19	135	23
3325039	-84	153	40
3325367	-147	161	16
3325695	-214	149	-1
3326023	-102	80	-42
3326351	223	63	-49
3326679	8	83	-9
3327007	-15	25	36
3327335	-212	-93	75
3327663	-154	41	32
3327991	-44	-5	14
3328319	-69	14	12
3328647	27	120	12
3328975	53	162	-6
3329303	-5	102	-2
3329631	-31	79	11
3329959	-54	9	11
3330287	-70	-30	7
3330615	-77	-68	11
3330943	-47	-73	4
3331271	-67	-49	-24
3331599	-35	-24	-5
3331927	-1	-1	-7
3332255	27	5	-12
3332583	39	-20	-1
3332911	20	-3	0
3333239	20	-36	23
3333567	-4	-64	14
3333895	-31	-119	30
3334223	-61	-109	40
3334551	-76	-117	14
3334879	-115	-92	25
3335207	-61	-107	25
3335535	9	-119	14
3335863	-26	-146	2
3336191	-106	-261	11
3336519	-23	-234	47
3336847	78	-130	49
3337175	10	-113	11
3337503	-45	-103	4
3337831	-36	-106	-15
3338159	-38	-73	7
3338487	-41	-90	-30
3338815	-118	-97	-10
3339143	-170	-89	-23
3339471	-186	-85	-25
3339799	-212	-94	-16
3340127	-180	-70	-32
3340455	-160	-53	-14
3340783	-119	-35	-17
3341111	-91	-29	-14
3341439	-99	-18	-21
3341767	-77	-21	-25
3342095	-104	-10	-25
3342423	-114	-7	-27
3342751	-73	-23	-23
3343079	-21	-32	-26
3343407	18	-15	-29
3343735	48	5	-39
3344063	71	7	-30
3344391	88	8	-27
3344719	82	65	-48
3345047	43	69	-36
3345375	49	78	-27
3345703	72	108	-34
3346031	78	129	-28
3346359	101	138	-36
3346687	58	121	-28
3347015	2	117	-9
3347343	-11	130	-6
3347671	-83	92	8
3347999	-98	60	13
3348327	-81	52	-18
3348655	-89	43	-20
3348983	-72	42	-28
3349311	-73	31	-35
3349639	-3	-15	-38
3349967	-2	-39	-33
3350295	-12	-23	5
3350623	-64	-4	32
3350951	-75	17	30
3351279	-50	49	30
3351607	131	-19	-21
3351935	414	31	15
3352263	103	76	39
3352591	-51	57	129
3352919	-240	41	106
3353247	-167	174	90
3353575	-52	102	57
3353903	-112	90	66
3354231	-44	134	62
3354559	-11	97	40
3354887	56	34	31
3355215	83	9	27
3355543	31	-52	47
3355871	-10	-84	52
3356199	-12	-53	33
3356527	-31	-15	41
3356855	-44	-13	14
3357183	-54	-16	8
3357511	-49	-12	16
3357839	-21	2	9
3358167	-38	20	18
3358495	-28	5	-11
3358823	-15	22	11
3359151	-83	17	-9
3359479	-77	56	-6
3359807	-58	55	-26
3360135	-77	46	-30
3360463	-137	68	-14
3360791	-89	58	-6
3361119	19	153	-27
3361447	-148	79	-17
3361775	-154	78	-5
3362103	-41	36	-16
3362431	10	156	-29
3362759	-84	184	-22
3363087	-141	169	-13
3363415	-124	162	-11
3363743	-115	135	-21
3364071	-188	138	5
3364399	-257	145	11
3364727	-271	156	6
3365055	-287	174	-4
3365383	-323	206	-12
3365711	-320	234	-17
3366039	-277	260	-35
3366367	-220	294	-42
3366695	-199	371	-32
3367023	-199	392	-39
3367351	-210	395	-43
3367679	-245	354	-19
3368007	-273	324	-13
3368335	-248	364	-44
3368663	-236	414	-46
3368991	-232	427	-77
3369319	-203	392	-79
3369647	-165	311	-86
3369975	-186	291	-82
3370303	-203	312	-76
3370631	-159	326	-85
3370959	-137	324	-107
3371287	-104	299	-103
3371615	-80	270	-98
3371943	-68	267	-90
3372271	-58	259	-93
3372599	-31	284	-89
3372927	-34	311	-117
3373255	-60	310	-117
3373583	-93	330	-119
3373911	-77	314	-136
3374239	-125	256	-139
3374567	-122	256	-133
3374895	-141	236	-121
3375223	-194	236	-107
3375551	-271	231	-117
3375879	-310	227	-153
3376207	-99	175	-208
3376535	58	94	-163
3376863	-30	270	-170
3377191	-252	229	-101
3377519	-354	126	-101
3377847	-157	321	-143
3378175	-131	216	-137
3378503	-204	196	-140
3378831	-174	316	-153
3379159	-142	301	-164
3379487	-108	246	-177
3379815	-112	220	-183
3380143	-136	256	-134
3380471	-189	284	-112
3380799	-210	257	-96
3381127	-200	256	-85
3381455	-205	256	-84
3381783	-223	279	-65
3382111	-192	298	-74
3382439	-155	290	-77
3382767	-162	272	-82
3383095	-164	261	-66
3383423	-157	236	-60
3383751	-142	176	-70
3384079	-145	145	-46
3384407	-170	110	-47
3384735	-231	113	-29
3385063	-250	105	-9
3385391	-231	69	-4
3385719	-169	90	-24
3386047	-311	71	-6
3386375	-435	106	15
3386703	-263	48	14
3387031	-218	181	5
3387359	-310	232	-4
3387687	-355	222	1
3388015	-327	252	12
3388343	-302	271	-6
3388671	-303	275	-8
3388999	-295	242	1
3389327	-283	220	-1
3389655	-323	202	-1
3389983	-354	148	-29
3390311	-295	175	-42
3390639	-291	237	-42
3390967	-248	288	-54
3391295	-178	302	-80
3391623	-144	347	-65
3391951	-123	390	-71
3392279	-147	384	-72
3392607	-186	387	-89
3392935	-145	384	-102
3393263	-123	346	-112
3393591	-115	328	-99
3393919	-71	315	-94
3394247	-58	300	-89
3394575	-78	273	-90
3394903	-82	266	-88
3395231	-90	275	-83
3395559	-71	255	-80
3395887	-64	271	-64
3396215	-73	275	-63
3396543	-88	235	-42
3396871	-96	220	-41
3397199	-82	231	-40
3397527	-120	203	-36
3397855	-152	191	-41
3398183	-159	192	-55
3398511	-146	216	-57
3398839	-168	186	-70
3399167	-185	160	-56
3399495	-210	178	-46
3399823	-229	171	-39
3400151	-288	173	-44
3400479	-256	214	-71
3400807	24	184	-101
3401135	156	171	-74
3401463	27	266	-79
3401791	-143	135	-23
3402119	-178	115	-32
3402447	10	184	-52
3402775	-21	99	-60
3403103	-9	157	-51
3403431	86	264	-62
3403759	98	290	-65
3404087	81	250	-82
3404415	50	161	-64
3404743	57	117	-61
3405071	17	68	-61
3405399	26	68	-60
3405727	69	90	-69
3406055	53	122	-58
3406383	31	124	-56
3406711	16	148	-63
3407039	5	164	-61
3407367	-20	163	-49
3407695	-3	171	-44
3408023	-1	161	-43
3408351	-12	152	-21
3408679	-31	152	-2
3409007	-26	163	-10
3409335	-22	183	-13
3409663	-76	166	8
3409991	-33	114	14
3410319	94	191	-8
3410647	-61	136	-2
3410975	-148	36	35
3411303	29	95	32
3411631	63	130	-3
3411959	-3	163	-5
3412287	-49	134	-13
3412615	-11	128	-3
3412943	12	130	-24
3413271	-13	125	-6
3413599	-73	72	4
3413927	-78	27	2
3414255	-99	-15	-21
3414583	-100	-46	-21
3414911	-116	-30	-24
3415239	-114	-27	-30
3415567	-88	-17	-42
3415895	-92	-36	-30
3416223	-82	-40	-18
3416551	-49	-52	-32
3416879	-41	-45	-28
3417207	-77	-44	-33
3417535	-87	-60	-21
3417863	-98	-87	-25
3418191	-75	-76	-25
3418519	-72	-122	-16
3418847	-33	-127	-24
3419175	10	-130	-39
3419503	-12	-124	-31
3419831	40	-142	-27
3420159	25	-171	-24
3420487	35	-185	-34
3420815	48	-164	-34
3421143	43	-173	-37
3421471	26	-201	-6
3421799	0	-233	0
3422127	17	-243	3
3422455	-39	-265	10
3422783	-27	-285	11
3423111	49	-269	4
3423439	10	-297	7
3423767	22	-303	2
3424095	-8	-282	36
3424423	-57	-281	21
3424751	-106	-269	42
3425079	-158	-256	33
3425407	-238	-262	8
3425735	-157	-277	-60
3426063	279	-252	-95
3426391	113	-177	-11
3426719	-68	-203	55
3427047	-6	-275	-26
3427375	-226	-228	74
3427703	21	-176	10
3428031	48	-205	5
3428359	-52	-125	23
3428687	37	-5	23
3429015	93	17	-42
3429343	73	-48	-28
3429671	72	-103	-18
3429999	-3	-170	19
3430327	-16	-190	21
3430655	-25	-220	18
3430983	-8	-232	9
3431311	-9	-195	9
3431639	-1	-127	-6
3431967	31	-52	0
3432295	-61	-30	-15
3432623	-43	16	-12
3432951	-47	-4	-13
3433279	-58	-13	-17
3433607	-47	-10	-14
3433935	-39	-8	8
3434263	-49	-5	9
3434591	-32	3	-2
3434919	-53	7	14
3435247	42	5	18
3435575	85	62	2
3435903	-64	13	-1
3436231	-36	61	20
3436559	31	192	-1
3436887	-23	210	-12
3437215	-106	184	-2
3437543	-131	178	-1
3437871	-114	203	-18
3438199	-96	205	-23
3438527	-133	169	-18
3438855	-180	154	-2
3439183	-239	159	8
3439511	-297	143	9
3439839	-306	191	9
3440167	-252	210	8
3440495	-203	204	35
3440823	-192	174	62
3441151	-187	164	93
3441479	-183	149	94
3441807	-153	135	111
3442135	-119	104	110
3442463	-125	81	136
3442791	-121	90	129
3443119	-123	62	146
3443447	-117	61	146
3443775	-59	59	136
3444103	-56	89	127
3444431	-43	136	125
3444759	-83	151	124
3445087	-121	148	118
3445415	-167	244	124
3445743	-182	326	117
3446071	-218	377	102
3446399	-253	444	95
3446727	-324	458	105
3447055	-374	443	90
3447383	-384	396	41
3447711	-365	295	4
3448039	-309	217	-60
3448367	-230	117	-69
3448695	-219	-33	-62
3449023	-288	-121	-47
3449351	-478	-209	-39
3449679	-665	-253	-54
3450007	-789	-237	-126
3450335	-894	-282	-205
3450663	-658	-314	-332
3450991	-589	-291	-396
3451319	-924	-355	-367
3451647	-1209	-421	-353
3451975	-1434	-482	-388
3452303	-1367	-381	-477
3452631	-1428	-442	-577
3452959	-1461	-529	-654
3453287	-1355	-518	-794
3453615	-1357	-608	-913
3453943	-1419	-756	-986
3454271	-1506	-900	-1095
3454599	-1656	-1058	-1174
3454927	-1821	-1178	-1305
3455255	-1966	-1273	-1420
3455583	-2085	-1346	-1570
3455911	-2176	-1364	-1682
3456239	-2340	-1367	-1808
3456567	-2484	-1394	-1948
3456895	-2569	-1410	-2078
3457223	-2636	-1464	-2218
3457551	-2760	-1490	-2349
3457879	-2859	-1548	-2443
3458207	-2852	-1618	-2550
3458535	-3010	-1676	-2638
3458863	-3211	-1775	-2731
3459191	-3283	-1829	-2833
3459519	-3375	-1893	-2950
3459847	-3482	-2032	-3017
3460175	-3451	-2143	-3137
3460503	-3619	-2274	-3238
3460831	-3916	-2300	-3267
3461159	-3952	-2225	-3364
3461487	-3992	-2302	-3471
3461815	-4131	-2315	-3555
3462143	-4230	-2235	-3664
3462471	-4325	-2191	-3753
3462799	-4337	-2157	-3886
3463127	-4371	-2249	-3931
3463455	-4488	-2360	-4052
3463783	-4607	-2363	-3994
3464111	-4664	-2430	-4181
3464439	-4566	-2578	-4135
3464767	-4504	-2707	-4239
3465095	-4523	-2694	-4354
3465423	-4451	-2672	-4366
3465751	-4583	-2708	-4388
3466079	-4677	-2600	-4481
3466407	-4550	-2321	-4536
3466735	-4796	-2168	-4670
3467063	-4951	-2122	-4724
3467391	-5129	-2044	-4700
3467719	-5377	-1981	-4618
3468047	-5559	-1907	-4628
3468375	-5552	-1804	-4609
3468703	-5567	-1867	-4724
3469031	-5458	-1924	-4701
3469359	-5335	-1978	-4769
3469687	-5056	-1939	-4898
3470015	-4699	-1972	-5170
3470343	-4622	-2216	-5374
3470671	-4596	-2569	-5501
3470999	-4588	-2789	-5489
3471327	-4616	-2711	-5414
3471655	-4868	-2618	-5351
3471983	-5342	-2734	-5256
3472311	-5536	-3022	-5117
3472639	-5286	-3514	-5096
3472967	-5520	-4039	-4840
3473295	-6251	-3977	-4392
3473623	-6619	-3231	-3984
3473951	-6689	-2255	-3660
3474279	-6925	-2003	-3380
3474607	-6939	-2504	-3201
3474935	-6744	-3106	-3177
3475263	-6759	-3480	-3036
3475591	-6521	-3877	-2416
3475919	-6594	-3901	-1861
3476247	-7103	-3223	-1484
3476575	-7400	-2462	-1218
3476903	-7247	-2008	-1134
3477231	-7078	-2025	-1109
3477559	-6890	-2082	-1051
3477887	-6447	-1983	-905
3478215	-6447	-1874	-701
3478543	-6569	-1812	-488
3478871	-6588	-1794	-398
3479199	-6603	-1835	-376
3479527	-6858	-1859	-296
3479855	-6934	-1768	-248
3480183	-6863	-1543	-313
3480511	-6736	-1278	-491
3480839	-6690	-1148	-548
3481167	-6476	-1124	-618
3481495	-6131	-1013	-697
3481823	-5897	-973	-607
3482151	-5656	-866	-602
3482479	-5423	-823	-580
3482807	-5296	-961	-590
3483135	-5237	-1086	-585
3483463	-5177	-1090	-597
3483791	-5153	-983	-575
3484119	-5183	-874	-511
3484447	-5224	-777	-432
3484775	-5105	-736	-373
3485103	-5013	-645	-348
3485431	-5105	-716	-237
3485759	-4823	-658	-152
3486087	-4595	-545	-101
3486415	-4388	-522	45
3486743	-4232	-434	41
3487071	-4066	-443	57
3487399	-3936	-463	151
3487727	-3856	-434	259
3488055	-3798	-341	285
3488383	-3732	-313	353
3488711	-3865	-344	418
3489039	-3967	-351	426
3489367	-3983	-354	461
3489695	-4028	-379	486
3490023	-4225	-453	607
3490351	-4116	-331	549
3490679	-4048	-103	594
3491007	-3914	14	697
3491335	-3844	71	789
3491663	-3945	232	891
3491991	-3991	415	983
3492319	-4090	444	1098
3492647	-4230	380	1149
3492975	-4203	344	1103
3493303	-4223	134	1313
3493631	-4309	-116	1411
3493959	-4175	-216	1483
3494287	-4007	-246	1558
3494615	-3819	-202	1599
3494943	-3665	-184	1590
3495271	-3559	-271	1598
3495599	-3362	-448	1676
3495927	-3897	531	1802
3496255	-5256	1739	1772
3496583	-3780	732	1654
3496911	-4504	-1820	1507
3497239	-5830	-3412	1561
3497567	-4291	-2376	1386
3497895	-4854	102	1274
3498223	-5535	1791	1272
3498551	-4841	2301	1098
3498879	-4568	1477	1063
3499207	-4647	-61	1170
3499535	-4830	-842	1197
3499863	-4656	-213	1118
3500191	-4284	1229	865
3500519	-4306	1967	771
3500847	-3973	1224	713
3501175	-4084	-557	707
3501503	-4476	-2391	793
3501831	-4573	-3145	724
3502159	-4751	-1919	618
3502487	-4957	417	478
3502815	-5169	1841	406
3503143	-4962	1584	88
3503471	-4819	360	59
3503799	-5083	-585	166
3504127	-5002	-646	205
3504455	-4849	-511	264
3504783	-4920	-755	271
3505111	-4874	-1266	250
3505439	-4772	-1773	296
3505767	-4527	-1902	387
3506095	-4229	-1532	197
3506423	-3971	-1083	122
3506751	-3777	-896	82
3507079	-3659	-848	46
3507407	-3541	-699	-8
3507735	-3397	-550	-79
3508063	-3234	-484	-140
3508391	-3059	-548	-180
3508719	-2924	-661	-222
3509047	-2821	-775	-265
3509375	-2607	-917	-280
3509703	-2285	-1038	-267
3510031	-1912	-1091	-320
3510359	-1936	-1165	-396
3510687	-1715	-1213	-489
3511015	-1379	-1117	-602
3511343	-1456	-1021	-532
3511671	-1301	-906	-538
3511999	-1250	-741	-543
3512327	-1195	-649	-648
3512655	-985	-599	-810
3512983	-692	-569	-981
3513311	-654	-298	-953
3513639	-641	244	-990
3513967	1353	-376	-902
3514295	718	-2587	-1010
3514623	-561	-4830	-1165
3514951	-1125	-3582	-1033
3515279	-830	-124	-888
3515607	779	749	-1160
3515935	543	-770	-1206
3516263	53	-1713	-1237
3516591	-164	-838	-1020
3516919	146	370	-925
3517247	588	533	-1042
3517575	1071	-39	-978
3517903	956	-144	-953
3518231	1050	76	-966
3518559	1056	-223	-891
3518887	496	-789	-838
3519215	-217	-865	-860
3519543	-626	-352	-823
3519871	-710	164	-674
3520199	-636	317	-551
3520527	-360	194	-542
3520855	-136	-13	-442
3521183	76	61	-273
3521511	388	282	-56
3521839	587	370	105
3522167	667	149	267
3522495	723	-112	350
3522823	808	-286	424
3523151	732	-228	493
3523479	673	-45	520
3523807	542	152	497
3524135	475	194	430
3524463	894	-79	357
3524791	1082	-212	333
3525119	1085	97	261
3525447	839	424	251
3525775	1064	256	230
3526103	1446	-85	141
3526431	1497	-390	105
3526759	1697	-280	86
3527087	1715	-49	69
3527415	1669	-38	80
3527743	1644	-241	70
3528071	1579	-519	93
3528399	1451	-659	156
3528727	1331	-709	241
3529055	1322	-780	350
3529383	1204	-862	508
3529711	1179	-838	579
3530039	1331	-568	601
3530367	1575	-273	735
3530695	1784	-134	938
3531023	1996	32	1045
3531351	2169	-33	1173
3531679	1998	-288	1338
3532007	1770	-352	1404
3532335	1656	-419	1401
3532663	1643	-654	1378
3532991	1579	-857	1307
3533319	1575	-1000	1318
3533647	1842	-1097	1342
3533975	2218	-1095	1418
3534303	1534	-7	1658
3534631	243	1527	1658
3534959	2642	-220	1542
3535287	2708	-4035	1322
3535615	1027	-5920	1156
3535943	1517	-3917	1288
3536271	1404	-1131	1109
3536599	2013	229	570
3536927	2430	920	26
3537255	2903	1812	-427
3537583	3300	2812	-526
3537911	2831	2869	-653
3538239	3004	2298	-877
3538567	3324	1745	-1027
3538895	3236	1185	-1164
3539223	3504	617	-1404
3539551	3656	227	-1618
3539879	3587	-54	-1796
3540207	3774	-50	-1888
3540535	4026	208	-2034
3540863	4178	479	-2239
3541191	4261	659	-2341
3541519	4335	807	-2455
3541847	4365	943	-2554
3542175	4349	1029	-2657
3542503	4384	869	-2722
3542831	4488	590	-2726
3543159	4703	389	-2770
3543487	4854	260	-2790
3543815	5026	118	-2789
3544143	5319	69	-2810
3544471	5523	104	-2776
3544799	5720	261	-2776
3545127	5769	436	-2837
3545455	5636	635	-2940
3545783	5637	832	-2982
3546111	5521	905	-2938
3546439	5407	968	-2995
3546767	5438	979	-3038
3547095	5649	825	-3025
3547423	6101	635	-3037
3547751	5932	704	-2972
3548079	5653	630	-2862
3548407	5736	389	-2964
3548735	5725	148	-2941
3549063	5771	-204	-2960
3549391	5920	-468	-2960
3549719	5800	-379	-2948
3550047	5763	-187	-2901
3550375	5813	-203	-2844
3550703	5785	-370	-2874
3551031	5814	-479	-2880
3551359	5963	-398	-2853
3551687	5978	-200	-2798
3552015	5971	-219	-2710
3552343	5928	-471	-2642
3552671	5771	-686	-2582
3552999	5680	-682	-2510
3553327	5580	-686	-2426
3553655	5531	-807	-2345
3553983	5538	-994	-2280
3554311	5552	-1069	-2171
3554639	5589	-1070	-2066
3554967	5355	-855	-1914
3555295	4673	-219	-1982
3555623	5950	-529	-1963
3555951	6132	-2116	-1818
3556279	5380	-4289	-1832
3556607	4235	-4647	-1856
3556935	3676	-2285	-1972
3557263	4302	647	-2066
3557591	4681	1928	-2131
3557919	4833	1721	-2137
3558247	4827	886	-2108
3558575	4521	90	-2019
3558903	4101	-527	-1911
3559231	3743	-724	-1838
3559559	3520	-494	-1799
3559887	3360	-287	-1749
3560215	3480	-228	-1716
3560543	3815	-230	-1695
3560871	4086	-167	-1646
3561199	4136	82	-1583
3561527	4086	387	-1547
3561855	3886	639	-1517
3562183	3600	790	-1511
3562511	3224	912	-1506
3562839	2870	876	-1491
3563167	2545	619	-1480
3563495	2316	193	-1488
3563823	2136	-4	-1455
3564151	2049	159	-1420
3564479	2070	536	-1321
3564807	2199	743	-1235
3565135	2296	682	-1133
3565463	2401	485	-1061
3565791	2448	351	-1004
3566119	2326	327	-940
3566447	2170	310	-896
3566775	1965	280	-863
3567103	1779	185	-817
3567431	1629	138	-789
3567759	1524	129	-796
3568087	1485	78	-768
3568415	1328	-11	-714
3568743	1121	-123	-626
3569071	938	-112	-557
3569399	738	-1	-528
3569727	796	-30	-513
3570055	1073	-348	-473
3570383	834	-733	-433
3570711	787	-985	-368
3571039	791	-925	-385
3571367	934	-643	-400
3571695	1030	-424	-434
3572023	1113	-439	-427
3572351	1102	-711	-402
3572679	798	-922	-377
3573007	511	-856	-338
3573335	398	-597	-345
3573663	371	-428	-373
3573991	337	-534	-368
3574319	303	-690	-339
3574647	328	-848	-329
3574975	320	-871	-336
3575303	331	-817	-330
3575631	333	-717	-305
3575959	372	-576	-304
3576287	441	-444	-310
3576615	557	-404	-292
3576943	635	-446	-313
3577271	674	-543	-303
3577599	634	-544	-305
3577927	597	-550	-304
3578255	525	-522	-308
3578583	429	-427	-276
3578911	560	-354	-282
3579239	463	-310	-277
3579567	320	-305	-238
3579895	516	-349	-226
3580223	528	-348	-230
3580551	468	-311	-227
3580879	520	-110	-216
3581207	479	120	-196
3581535	366	219	-145
3581863	382	193	-131
3582191	379	144	-118
3582519	293	62	-101
3582847	164	-16	-78
3583175	21	-146	-46
3583503	-123	-236	-35
3583831	-222	-256	-9
3584159	-273	-183	7
3584487	-310	-178	23
3584815	-290	-268	27
3585143	-235	-309	38
3585471	-165	-295	57
3585799	-128	-237	69
3586127	-152	-215	83
3586455	-166	-223	94
3586783	-190	-222	121
3587111	-236	-251	122
3587439	-285	-251	134
3587767	-365	-295	133
3588095	-387	-342	159
3588423	-380	-359	164
3588751	-366	-421	190
3589079	-398	-512	242
3589407	-405	-551	278
3589735	-244	-498	235
3590063	60	-645	181
3590391	296	-1037	99
3590719	248	-1242	114
3591047	-30	-838	226
3591375	-299	-17	317
3591703	-455	636	307
3592031	-592	780	177
3592359	-482	466	17
3592687	-307	-46	-69
3593015	-522	-268	-80
3593343	-523	-235	-37
3593671	-430	-214	-34
3593999	-270	-335	-83
3594327	-13	-501	-120
3594655	265	-581	-108
3594983	249	-476	-57
3595311	79	-301	-5
3595639	-119	-254	14
3595967	-205	-335	41
3596295	-294	-419	40
3596623	-363	-493	45
3596951	-393	-504	67
3597279	-363	-504	99
3597607	-308	-501	123
3597935	-232	-555	126
3598263	-132	-607	120
3598591	-24	-585	106
3598919	50	-444	109
3599247	48	-334	108
3599575	20	-238	128
3599903	-10	-245	139
3600231	-59	-302	134
3600559	-51	-227	124
3600887	-82	-37	149
3601215	-32	21	133
3601543	21	106	114
3601871	-212	140	142
3602199	-31	112	146
3602527	44	192	137
3602855	62	297	154
3603183	130	379	131
3603511	111	344	118
3603839	90	312	136
3604167	107	331	131
3604495	75	330	138
3604823	19	243	145
3605151	-27	197	134
3605479	-136	179	153
3605807	-217	182	177
3606135	-223	185	180
3606463	-263	205	177
3606791	-276	160	168
3607119	-270	108	162
3607447	-264	140	165
3607775	-257	211	156
3608103	-236	259	162
3608431	-241	237	169
3608759	-236	202	155
3609087	-256	213	163
3609415	-287	274	157
3609743	-269	292	137
3610071	-278	252	135
3610399	-302	187	143
3610727	-310	141	134
3611055	-284	131	122
3611383	-265	144	129
3611711	-299	155	111
3612039	-281	155	106
3612367	-289	176	108
3612695	-333	183	109
3613023	-370	204	110
3613351	-497	214	86
3613679	-419	121	61
3614007	-43	-19	33
3614335	-217	13	57
3614663	-215	126	42
3614991	-276	13	37
3615319	-198	-67	13
3615647	-211	60	-7
3615975	-130	111	-29
3616303	-53	71	-35
3616631	-111	122	-33
3616959	-169	156	-46
3617287	-136	102	-55
3617615	-88	25	-64
3617943	-94	-9	-71
3618271	-118	-54	-56
3618599	-125	-138	-78
3618927	-160	-181	-79
3619255	-208	-114	-62
3619583	-217	-26	-66
3619911	-144	-51	-68
3620239	-104	-100	-70
3620567	-75	-108	-88
3620895	-60	-130	-105
3621223	-49	-181	-114
3621551	-32	-223	-118
3621879	-8	-205	-104
3622207	-13	-185	-77
3622535	91	-244	-40
3622863	100	-307	-69
3623191	-161	-355	-57
3623519	-77	-361	-57
3623847	-76	-396	-42
3624175	-74	-373	-39
3624503	-75	-215	-27
3624831	-98	-76	-20
3625159	-106	-56	-3
3625487	-103	-31	-6
3625815	-46	70	-7
3626143	-2	194	-30
3626471	20	242	-60
3626799	5	249	-46
3627127	-66	213	-52
3627455	-118	193	-29
3627783	-182	201	-19
3628111	-193	226	-10
3628439	-192	263	-5
3628767	-201	319	-8
3629095	-142	367	-10
3629423	-129	325	3
3629751	-106	258	0
3630079	-87	218	13
3630407	-63	157	14
3630735	-110	186	29
3631063	-111	138	56
3631391	-83	85	42
3631719	-66	70	60
3632047	21	34	9
3632375	32	-36	65
3632703	59	-35	32
3633031	45	9	40
3633359	56	67	54
3633687	49	116	46
3634015	12	158	58
3634343	-149	79	30
3634671	-107	-61	23
3634999	266	-183	-39
3635327	173	-144	-3
3635655	143	41	-12
3635983	66	5	-14
3636311	81	-60	-3
3636639	152	-111	-49
3636967	207	-54	-52
3637295	274	25	-70
3637623	166	153	-21
3637951	121	176	-87
3638279	79	128	-85
3638607	137	64	-110
3638935	146	26	-90
3639263	125	28	-93
3639591	69	43	-96
3639919	34	25	-115
3640247	31	34	-123
3640575	25	19	-120
3640903	75	-62	-131
3641231	28	-5	-125
3641559	40	21	-106
3641887	24	-77	-80
3642215	19	-40	-116
3642543	30	28	-145
3642871	-13	66	-121
3643199	-42	53	-98
3643527	133	-63	-73
3643855	-133	23	-70
3644183	-212	-17	-78
3644511	-44	-85	-69
3644839	16	-71	-64
3645167	-79	165	-83
3645495	-55	340	-56
3645823	-77	289	-60
3646151	-95	175	-54
3646479	-139	173	-12
3646807	-155	229	-65
3647135	-227	283	-40
3647463	-302	243	-23
3647791	-316	224	-12
3648119	-304	223	-18
3648447	-322	229	13
3648775	-246	222	-9
3649103	-236	269	-1
3649431	-203	268	-15
3649759	-185	262	-10
3650087	-170	268	-12
3650415	-171	275	13
3650743	-189	264	-2
3651071	-172	255	14
3651399	-190	250	20
3651727	-214	219	29
3652055	-165	155	31
3652383	-174	199	18
3652711	-112	238	12
3653039	-42	202	15
3653367	-13	169	-1
3653695	11	224	-9
3654023	-36	232	57
3654351	-15	231	11
3654679	-67	250	32
3655007	-252	217	62
3655335	-127	83	38
3655663	226	-173	8
3655991	227	-257	22
3656319	-41	21	57
3656647	-166	49	35
3656975	19	24	31
3657303	-31	106	22
3657631	112	48	-7
3657959	152	103	4
3658287	-7	171	-14
3658615	-27	124	-9
3658943	-71	-6	-5
3659271	-80	-127	0
3659599	-68	-186	5
3659927	-62	-148	16
3660255	-68	-92	8
3660583	-82	-45	19
3660911	-41	17	-3
3661239	-42	69	11
3661567	-44	90	10
3661895	-47	93	16
3662223	-31	123	8
3662551	-59	111	7
3662879	-69	97	-2
3663207	-96	78	4
3663535	-117	81	16
3663863	-79	5	2
3664191	65	49	-16
3664519	-309	149	20
3664847	-227	-3	12
3665175	-84	-10	-10
3665503	-59	89	-19
3665831	46	341	-32
3666159	-57	419	-30
3666487	-78	320	-51
3666815	-86	280	-37
3667143	-125	278	-32
3667471	-135	286	-37
3667799	-176	259	-29
3668127	-197	258	-35
3668455	-197	236	-36
3668783	-197	202	-28
3669111	-154	212	-35
3669439	-137	243	-29
3669767	-128	276	-38
3670095	-75	270	-47
3670423	-65	250	-44
3670751	-81	225	-33
3671079	-103	230	-38
3671407	-109	226	-31
3671735	-83	233	-30
3672063	-57	258	-31
3672391	-64	252	-29
3672719	-62	192	-43
3673047	-18	135	-37
3673375	16	87	-41
3673703	25	91	-36
3674031	9	133	-34
3674359	13	183	-36
3674687	-22	213	-26
3675015	-51	250	-16
3675343	-225	285	-15
3675671	-302	255	13
3675999	77	45	-31
3676327	139	13	-44
3676655	-17	336	-19
3676983	-169	256	-13
3677311	-67	47	-17
3677639	-82	234	-29
3677967	-42	263	-37
3678295	113	233	-64
3678623	-19	313	-47
3678951	-84	300	-45
3679279	-130	170	-39
3679607	-128	-15	-50
3679935	-87	-78	-53
3680263	-66	-21	-50
3680591	-79	37	-52
3680919	-94	72	-45
3681247	-89	111	-45
3681575	-89	171	-62
3681903	-58	226	-66
3682231	-44	241	-61
3682559	-58	243	-59
3682887	-42	209	-69
3683215	-54	171	-68
3683543	-82	130	-72
3683871	-88	127	-74
3684199	-66	136	-46
3684527	123	105	-71
3684855	-96	232	-55
3685183	-220	130	-29
3685511	-58	-27	-45
3685839	-1	44	-54
3686167	40	292	-62
3686495	32	395	-73
3686823	2	291	-73
3687151	3	243	-65
3687479	17	267	-60
3687807	-31	304	-59
3688135	-83	283	-55
3688463	-136	248	-52
3688791	-186	238	-46
3689119	-170	198	-41
3689447	-171	188	-35
3689775	-133	227	-36
3690103	-80	287	-72
3690431	-57	336	-37
3690759	-16	336	-72
3691087	-24	344	-49
3691415	-8	310	-41
3691743	-18	313	-57
3692071	-65	336	-24
3692399	-54	307	-62
3692727	-117	251	-24
3693055	-74	193	-31
3693383	-47	179	-28
3693711	-37	203	-36
3694039	-30	198	-32
3694367	-38	200	-41
3694695	-31	184	-47
3695023	-18	179	-36
3695351	-36	233	-21
3695679	2	234	-38
3696007	-40	282	-13
3696335	-106	332	-8
3696663	-286	336	-12
3696991	-210	216	-20
3697319	164	-62	-48
3697647	8	113	-39
3697975	-125	222	12
3698303	-137	17	-11
3698631	-142	-16	-20
3698959	-97	178	-46
3699287	59	230	-58
3699615	122	277	-57
3699943	2	351	-40
3700271	-61	288	-41
3700599	-70	65	-30
3700927	-65	-62	-23
3701255	-65	-67	-23
3701583	-84	-15	-17
3701911	-90	15	-17
3702239	-76	65	-18
3702567	-79	110	-23
3702895	-41	155	-40
3703223	-31	202	-26
3703551	-13	216	-40
3703879	-42	181	-30
3704207	-31	164	-74
3704535	-69	143	-10
3704863	-83	92	-26
3705191	-88	95	-16
3705519	-71	106	-4
3705847	117	125	-26
3706175	-157	138	-15
3706503	-40	-21	-9
3706831	68	17	-16
3707159	-26	209	-25
3707487	55	311	-43
3707815	63	276	-53
3708143	-3	209	-45
3708471	15	191	-55
3708799	-10	233	-42
3709127	-74	241	-40
3709455	-109	208	-51
3709783	-158	151	-56
3710111	-169	125	-47
3710439	-171	113	-48
3710767	-176	114	-36
3711095	-153	153	-42
3711423	-118	185	-44
3711751	-85	221	-63
3712079	-73	227	-65
3712407	-54	217	-73
3712735	-75	254	-57
3713063	-27	207	-67
3713391	-61	168	-63
3713719	-66	198	-69
3714047	-81	212	-60
3714375	-81	207	-57
3714703	-96	183	-52
3715031	-108	165	-41
3715359	-121	160	-36
3715687	-113	155	-34
3716015	-120	207	-36
3716343	-52	206	-42
3716671	-60	174	-62
3716999	-55	151	-59
3717327	-47	135	-47
3717655	-60	126	-48
3717983	-90	121	-26
3718311	-86	170	-26
3718639	-151	236	-10
3718967	-238	277	-27
3719295	-338	224	-14
3719623	-96	19	-23
3719951	102	-64	-69
3720279	-85	194	-29
3720607	-142	276	-33
3720935	-236	54	-28
3721263	-178	20	-50
3721591	-116	144	-69
3721919	59	243	-61
3722247	93	262	-57
3722575	-5	303	-56
3722903	-60	216	-52
3723231	-57	9	-41
3723559	-49	-78	-34
3723887	-64	-24	-20
3724215	-79	28	-21
3724543	-106	63	-18
3724871	-88	101	-17
3725199	-44	134	-33
3725527	-17	166	-24
3725855	-7	166	-36
3726183	-14	178	-24
3726511	-49	162	-20
3726839	-76	108	-11
3727167	-57	84	-10
3727495	-94	104	-11
3727823	-143	122	0
3728151	0	32	-1
3728479	96	102	-31
3728807	-111	96	-4
3729135	123	41	-24
3729463	21	134	-27
3729791	7	208	-24
3730119	41	300	-42
3730447	-28	267	-44
3730775	-14	198	-52
3731103	-24	233	-41
3731431	-94	359	-40
3731759	-120	399	-29
3732087	-131	383	-25
3732415	-186	397	0
3732743	-169	446	-4
3733071	-149	495	-34
3733399	-111	540	-50
3733727	-109	624	-80
3734055	-55	721	-87
3734383	24	793	-126
3734711	77	871	-145
3735039	83	873	-142
3735367	99	878	-125
3735695	37	919	-125
3736023	27	902	-129
3736351	4	866	-122
3736679	-90	841	-108
3737007	-76	894	-129
3737335	-99	897	-112
3737663	-86	890	-112
3737991	-87	922	-114
3738319	-91	935	-124
3738647	-83	984	-98
3738975	-146	1033	-81
3739303	-166	1038	-65
3739631	-221	1044	-39
3739959	-236	1022	-25
3740287	-248	1050	-14
3740615	-302	1124	12
3740943	-357	1198	31
3741271	-303	1139	67
3741599	-386	1182	94
3741927	-392	1211	125
3742255	-330	1239	147
3742583	-352	1311	179
3742911	-292	1407	207
3743239	-270	1531	231
3743567	-357	1647	252
3743895	-408	1656	221
3744223	-150	1454	235
3744551	214	1346	177
3744879	-25	1552	179
3745207	-228	1616	223
3745535	-306	1396	246
3745863	-303	1284	220
3746191	-130	1328	191
3746519	-45	1529	180
3746847	3	1709	142
3747175	92	1512	134
3747503	165	1210	125
3747831	-34	1139	153
3748159	-23	1023	182
3748487	103	828	152
3748815	121	791	128
3749143	111	917	113
3749471	254	1028	86
3749799	372	1038	83
3750127	360	1139	71
3750455	305	1282	96
3750783	431	1262	100
3751111	423	1274	109
3751439	334	1286	123
3751767	476	1131	27
3752095	505	906	15
3752423	449	761	-20
3752751	453	667	-20
3753079	543	691	-21
3753407	205	625	9
3753735	402	419	32
3754063	487	616	53
3754391	368	861	41
3754719	510	839	18
3755047	422	753	39
3755375	199	746	70
3755703	78	553	65
3756031	-38	334	56
3756359	-91	203	27
3756687	-139	322	5
3757015	-219	504	8
3757343	-218	541	3
3757671	-179	437	34
3757999	-154	353	1
3758327	-156	309	-20
3758655	-118	217	-44
3758983	-171	5	-75
3759311	-248	-287	-82
3759639	-281	-476	-96
3759967	-398	-513	-90
3760295	-485	-516	-77
3760623	-447	-527	-75
3760951	-457	-561	-66
3761279	-421	-475	-32
3761607	-398	-366	25
3761935	-397	-248	123
3762263	-492	-92	262
3762591	-369	402	320
3762919	-612	1313	290
3763247	-419	2139	108
3763575	-213	1960	-26
3763903	-402	487	-181
3764231	-215	-1712	-246
3764559	363	-3502	-447
3764887	-51	-3578	-545
3765215	-230	-2197	-646
3765543	-93	-873	-785
3765871	-1181	-249	-872
3766199	-528	175	-991
3766527	248	-686	-1078
3766855	28	-3457	-780
3767183	-184	-5564	-402
3767511	64	-6074	6
3767839	-152	-5923	56
3768167	-462	-5286	-414
3768495	372	-2448	-240
3768823	154	1772	-118
3769151	-360	3723	-161
3769479	-1041	2649	-242
3769807	-1104	1225	-460
3770135	-770	962	-510
3770463	-913	1039	-330
3770791	-699	701	-190
3771119	-641	475	-11
3771447	-723	410	96
3771775	-840	291	154
3772103	-927	209	146
3772431	-939	193	128
3772759	-760	216	117
3773087	-672	189	143
3773415	-629	74	230
3773743	-744	-53	308
3774071	-824	-157	355
3774399	-962	-134	341
3774727	-1062	-122	330
3775055	-1023	-84	331
3775383	-883	-94	305
3775711	-615	-162	285
3776039	-521	-208	303
3776367	-307	-304	313
3776695	-713	-135	354
3777023	-656	947	-161
3777351	-199	4365	-486
3777679	883	9386	-296
3778007	-887	11501	-333
3778335	-3802	9463	1029
3778663	-4642	6183	1711
3778991	-2860	2177	722
3779319	2032	1327	1280
3779647	2564	2426	663
3779975	-2216	396	-645
3780303	-277	-5112	-315
3780631	1685	-5841	125
3780959	2002	-214	18
3781287	1239	5386	-230
3781615	787	5054	-147
3781943	-43	-1109	-322
3782271	-803	-8644	-391
3782599	-1410	-12540	-91
3782927	-1165	-10143	-116
3783255	320	-4475	-117
3783583	953	55	-54
3783911	1135	1406	-1
3784239	1086	532	-75
3784567	757	-1130	55
3784895	534	-1788	-4
3785223	383	-1010	-23
3785551	105	279	-262
3785879	72	919	-337
3786207	-37	985	-325
3786535	22	770	-374
3786863	125	579	-363
3787191	176	539	-410
3787519	346	583	-496
3787847	454	443	-540
3788175	541	49	-554
3788503	575	-387	-478
3788831	531	-722	-432
3789159	536	-950	-391
3789487	536	-1154	-361
3789815	541	-1329	-349
3790143	454	-1340	-336
3790471	448	-988	-311
3790799	390	-496	-262
3791127	278	-376	-257
3791455	446	-660	-232
3791783	444	-1074	-170
3792111	814	-1444	-115
3792439	273	-1194	-53
3792767	59	-935	44
3793095	-91	-1106	49
3793423	-161	-1372	76
3793751	-168	-1433	24
3794079	-237	-1211	14
3794407	-72	-736	6
3794735	11	-381	-30
3795063	-26	-349	-65
3795391	59	-569	-71
3795719	161	-829	-80
3796047	155	-907	-89
3796375	109	-759	-80
3796703	67	-602	-55
3797031	-11	-521	-69
3797359	-51	-474	-49
3797687	17	-470	-43
3798015	34	-455	-24
3798343	61	-425	-12
3798671	110	-397	-15
3798999	83	-376	-9
3799327	136	-400	-34
3799655	74	-366	-49
3799983	-11	-196	-51
3800311	171	-16	-53
3800639	180	67	-82
3800967	-194	1	-98
3801295	68	-7	-107
3801623	119	-20	-95
3801951	8	-159	-73
3802279	164	-164	-68
3802607	51	2	-67
3802935	-15	441	-78
3803263	265	422	-144
3803591	214	-111	-173
3803919	-85	-352	-122
3804247	-78	-58	-95
3804575	-204	296	-102
3804903	-247	289	-123
3805231	-175	-51	-119
3805559	-135	-361	-99
3805887	-115	-250	-34
3806215	-61	173	-4
3806543	3	527	12
3806871	54	571	29
3807199	79	389	29
3807527	103	218	37
3807855	107	239	32
3808183	131	387	24
3808511	141	440	12
3808839	132	367	4
3809167	82	246	-7
3809495	47	179	-37
3809823	25	173	-53
3810151	15	252	-72
3810479	12	366	-50
3810807	35	476	-55
3811135	79	560	-51
3811463	97	593	-61
3811791	126	620	-54
3812119	87	618	-51
3812447	70	557	-44
3812775	61	463	-43
3813103	33	379	-60
3813431	51	338	-52
3813759	60	328	-53
3814087	65	313	-46
3814415	39	272	-50
3814743	31	217	-36
3815071	21	177	-36
3815399	-41	238	-3
3815727	-96	357	2
3816055	-241	517	-29
3816383	-195	466	-34
3816711	96	133	-16
3817039	275	-49	-50
3817367	55	172	-40
3817695	-47	449	-51
3818023	67	468	-72
3818351	155	383	-97
3818679	272	324	-131
3819007	250	441	-139
3819335	141	481	-119
3819663	122	459	-122
3819991	80	302	-144
3820319	115	98	-152
3820647	154	-32	-170
3820975	163	-66	-165
3821303	118	-5	-160
3821631	91	81	-150
3821959	57	170	-156
3822287	64	189	-180
3822615	105	159	-178
3822943	136	168	-182
3823271	162	220	-166
3823599	133	245	-168
3823927	98	230	-148
3824255	43	150	-141
3824583	-15	77	-126
3824911	-60	56	-120
3825239	-62	99	-104
3825567	92	99	-83
3825895	5	82	-99
3826223	-215	8	-75
3826551	-31	-62	-67
3826879	16	-98	-52
3827207	65	95	-68
3827535	4	336	-68
3827863	-3	420	-54
3828191	-51	326	-40
3828519	-70	260	-38
3828847	-137	236	-36
3829175	-131	276	-38
3829503	-159	329	-38
3829831	-176	358	-47
3830159	-190	314	-41
3830487	-177	266	-31
3830815	-187	267	-25
3831143	-185	317	-44
3831471	-144	379	-35
3831799	-114	350	-31
3832127	-119	324	-20
3832455	-115	307	-33
3832783	-100	258	-17
3833111	-99	228	-7
3833439	-91	226	-6
3833767	-79	232	-13
3834095	-76	219	13
3834423	-68	214	-5
3834751	-30	158	14
3835079	-46	194	5
3835407	-31	244	14
3835735	-37	295	14
3836063	-79	300	26
3836391	-103	317	20
3836719	-123	342	33
3837047	-124	353	29
3837375	-110	334	12
3837703	-113	310	20
3838031	-93	325	23
3838359	-85	323	5
3838687	-56	282	9
3839015	-20	279	25
3839343	-15	311	36
3839671	-23	337	46
3839999	-77	349	47
3840327	-218	377	51
3840655	-229	369	39
3840983	107	172	40
3841311	19	-26	36
3841639	-106	31	71
3841967	-131	249	47
3842295	-138	334	52
3842623	-138	273	26
3842951	-14	140	7
3843279	29	121	14
3843607	-29	242	10
3843935	-90	430	21
3844263	-123	473	15
3844591	-75	301	20
3844919	-61	106	34
3845247	-86	-26	42
3845575	-98	13	47
3845903	-121	170	45
3846231	-135	272	50
3846559	-133	266	37
3846887	-105	214	30
3847215	-63	238	43
3847543	-67	335	32
3847871	-84	414	36
3848199	-80	394	43
3848527	-105	333	45
3848855	-86	252	34
3849183	-101	234	29
3849511	-153	253	23
3849839	-107	260	20
3850167	165	217	3
3850495	-27	136	-4
3850823	26	93	18
3851151	51	139	-6
3851479	-32	112	-7
3851807	68	124	-32
3852135	27	116	-33
3852463	21	57	-33
3852791	33	52	-36
3853119	28	78	-55
3853447	4	81	-54
3853775	-16	52	-60
3854103	-36	0	-62
3854431	-55	-37	-63
3854759	-58	-71	-66
3855087	-71	-111	-68
3855415	-61	-139	-75
3855743	-56	-104	-76
3856071	-42	-59	-73
3856399	-10	-17	-89
3856727	-25	5	-78
3857055	-6	-25	-81
3857383	-29	-72	-69
3857711	-54	-90	-60
3858039	-79	-30	-66
3858367	-70	-33	-53
3858695	-70	-51	-60
3859023	-53	-88	-56
3859351	-68	-93	-51
3859679	-68	-93	-46
3860007	-83	-103	-55
3860335	-121	-113	-45
3860663	-141	-190	-41
3860991	-147	-243	-34
3861319	-147	-238	-27
3861647	-124	-201	-25
3861975	-124	-135	-21
3862303	-136	-118	-15
3862631	-134	-168	-20
3862959	-110	-246	-9
3863287	-102	-288	-11
3863615	-109	-266	18
3863943	-150	-218	15
3864271	-205	-157	31
3864599	-334	-130	10
3864927	-312	-225	22
3865255	-34	-482	-5
3865583	-92	-502	10
3865911	-189	-296	45
3866239	-185	-63	32
3866567	-242	-72	37
3866895	-196	-280	10
3867223	-35	-438	-7
3867551	73	-349	-15
3867879	55	-118	-13
3868207	12	38	-22
3868535	-60	-70	-15
3868863	-78	-315	-24
3869191	-69	-491	0
3869519	-81	-504	3
3869847	-103	-424	15
3870175	-112	-302	10
3870503	-117	-265	0
3870831	-91	-268	-3
3871159	-59	-231	-17
3871487	-56	-165	-24
3871815	-29	-110	-13
3872143	-29	-99	-26
3872471	-44	-142	11
3872799	-59	-217	7
3873127	-47	-192	2
3873455	-134	-135	10
3873783	-177	-132	2
3874111	49	-252	22
3874439	31	-302	13
3874767	-86	-319	13
3875095	30	-154	11
3875423	-37	-51	2
3875751	-61	22	1
3876079	-31	108	-20
3876407	-54	92	-17
3876735	-80	69	-17
3877063	-70	45	-22
3877391	-118	54	4
3877719	-157	34	-6
3878047	-183	-19	4
3878375	-181	-92	-1
3878703	-197	-57	4
3879031	-194	31	14
3879359	-171	47	16
3879687	-151	92	9
3880015	-133	120	-4
3880343	-87	104	-16
3880671	-95	115	-6
3880999	-71	134	-2
3881327	-91	104	11
3881655	-43	102	-4
3881983	-67	128	-9
3882311	-69	115	-2
3882639	-54	75	13
3882967	-65	68	2
3883295	-67	109	7
3883623	-72	104	11
3883951	-72	77	16
3884279	-76	44	33
3884607	-49	62	10
3884935	-56	76	20
3885263	-48	79	15
3885591	-41	49	7
3885919	-7	2	-2
3886247	-13	45	-8
3886575	0	61	5
3886903	-4	70	-5
3887231	-40	66	46
3887559	-34	101	38
3887887	-52	132	42
3888215	-248	184	29
3888543	-153	103	12
3888871	244	-69	-44
3889199	238	-21	-26
3889527	-143	213	34
3889855	-224	72	39
3890183	-100	-69	30
3890511	-83	-23	4
3890839	15	50	-13
3891167	162	143	-27
3891495	104	252	-27
3891823	20	213	-13
3892151	-42	-9	-19
3892479	-58	-185	-10
3892807	-21	-233	-12
3893135	-12	-206	-20
3893463	-16	-163	-6
3893791	-13	-89	-9
3894119	-13	-40	-12
3894447	-24	22	-21
3894775	-30	70	-16
3895103	-14	137	-16
3895431	4	168	-23
3895759	-2	154	-19
3896087	-9	146	-21
3896415	-37	115	-15
3896743	-78	145	-27
3897071	-119	180	-31
3897399	-78	80	-32
3897727	156	41	-74
3898055	-192	230	-35
3898383	-179	148	-45
3898711	18	48	-32
3899039	-2	204	-48
3899367	1	439	-63
3899695	0	394	-80
3900023	-42	249	-72
3900351	-47	203	-62
3900679	-77	262	-63
3901007	-134	252	-54
3901335	-159	185	-60
3901663	-174	147	-64
3901991	-170	127	-62
3902319	-167	150	-43
3902647	-165	187	-43
3902975	-154	227	-34
3903303	-144	265	-54
3903631	-128	292	-67
3903959	-103	289	-53
3904287	-115	291	-68
3904615	-102	287	-61
3904943	-114	286	-60
3905271	-130	297	-56
3905599	-156	303	-54
3905927	-145	303	-51
3906255	-172	288	-43
3906583	-166	271	-54
3906911	-139	251	-48
3907239	-115	250	-43
3907567	-84	269	-60
3907895	-81	275	-61
3908223	-82	268	-70
3908551	-90	224	-63
3908879	-85	223	-82
3909207	-82	271	-72
3909535	-81	328	-64
3909863	-80	381	-61
3910191	-125	448	-52
3910519	-316	498	-73
3910847	-197	399	-78
3911175	154	132	-88
3911503	18	207	-89
3911831	-138	527	-38
3912159	-237	446	-66
3912487	-85	237	-78
3912815	-127	383	-97
3913143	6	399	-105
3913471	112	404	-111
3913799	-1	437	-107
3914127	-58	506	-105
3914455	-73	415	-135
3914783	-77	168	-92
3915111	-25	-40	-90
3915439	-12	17	-81
3915767	-40	189	-81
3916095	-35	288	-106
3916423	-54	313	-84
3916751	-30	332	-77
3917079	-14	335	-66
3917407	46	372	-78
3917735	88	415	-65
3918063	108	430	-66
3918391	66	367	-54
3918719	-10	297	-48
3919047	-65	295	-47
3919375	-86	386	-24
3919703	23	405	-3
3920031	103	408	-8
3920359	-241	379	20
3920687	-89	261	47
3921015	-15	119	56
3921343	36	185	51
3921671	95	480	38
3921999	81	644	42
3922327	79	660	56
3922655	128	583	62
3922983	123	509	66
3923311	74	520	77
3923639	68	545	71
3923967	53	588	71
3924295	53	598	60
3924623	57	604	82
3924951	54	639	85
3925279	72	685	75
3925607	78	672	68
3925935	118	614	42
3926263	157	536	51
3926591	212	490	37
3926919	229	507	6
3927247	237	539	1
3927575	243	502	-23
3927903	222	463	-31
3928231	227	455	-40
3928559	259	475	-61
3928887	242	537	-66
3929215	230	591	-86
3929543	202	580	-104
3929871	179	536	-107
3930199	184	517	-118
3930527	213	529	-126
3930855	223	520	-131
3931183	233	513	-127
3931511	228	527	-113
3931839	168	587	-141
3932167	145	616	-130
3932495	103	659	-123
3932823	47	717	-101
3933151	-68	773	-107
3933479	-199	820	-112
3933807	-90	760	-144
3934135	135	467	-135
3934463	-20	371	-119
3934791	-237	563	-55
3935119	-295	881	-63
3935447	-338	1095	-73
3935775	-349	1143	-110
3936103	-254	1081	-109
3936431	-222	1034	-71
3936759	-335	1117	-33
3937087	-442	1227	-14
3937415	-528	1255	-7
3937743	-557	1191	14
3938071	-604	1092	52
3938399	-640	1011	108
3938727	-642	972	119
3939055	-654	1005	127
3939383	-671	1009	130
3939711	-697	935	120
3940039	-689	953	134
3940367	-744	898	145
3940695	-769	769	186
3941023	-825	653	227
3941351	-825	742	259
3941679	-827	951	306
3942007	-844	1161	337
3942335	-804	1223	386
3942663	-553	1085	420
3942991	-393	828	425
3943319	-528	557	488
3943647	-350	519	533
3943975	-404	574	536
3944303	-369	515	539
3944631	-319	382	535
3944959	-420	251	526
3945287	-426	281	504
3945615	-464	459	488
3945943	-517	566	429
3946271	-584	574	374
3946599	-604	481	332
3946927	-645	401	275
3947255	-649	377	264
3947583	-598	416	238
3947911	-575	429	225
3948239	-551	437	209
3948567	-505	469	197
3948895	-532	537	175
3949223	-543	603	160
3949551	-526	621	147
3949879	-501	613	115
3950207	-476	560	117
3950535	-427	520	101
3950863	-383	535	82
3951191	-285	668	48
3951519	-266	682	12
3951847	-258	580	1
3952175	-247	490	-11
3952503	-263	477	-40
3952831	-234	524	-70
3953159	-188	533	-98
3953487	-158	511	-135
3953815	-133	471	-162
3954143	-115	476	-187
3954471	-106	542	-200
3954799	-97	622	-219
3955127	-76	647	-228
3955455	-80	604	-268
3955783	-100	511	-257
3956111	-155	457	-248
3956439	-225	513	-272
3956767	-325	621	-288
3957095	-302	685	-306
3957423	-32	518	-330
3957751	42	353	-331
3958079	-152	309	-295
3958407	-167	407	-296
3958735	-88	518	-336
3959063	-126	534	-361
3959391	-65	388	-409
3959719	89	283	-400
3960047	80	287	-385
3960375	15	375	-389
3960703	-4	508	-410
3961031	35	584	-418
3961359	82	492	-433
3961687	136	327	-450
3962015	163	174	-449
3962343	231	119	-436
3962671	264	171	-455
3962999	349	303	-495
3963327	376	485	-538
3963655	334	808	-605
3963983	573	1087	-759
3964311	965	335	-858
3964639	441	-1380	-783
3964967	-238	-2328	-691
3965295	-277	-1565	-690
3965623	-97	32	-690
3965951	44	882	-672
3966279	-42	381	-646
3966607	-241	-765	-529
3966935	-108	-1372	-442
3967263	-72	-1053	-407
3967591	69	-413	-435
3967919	383	-306	-439
3968247	493	-919	-413
3968575	498	-1695	-383
3968903	478	-1972	-329
3969231	341	-1721	-362
3969559	200	-1346	-366
3969887	136	-1120	-383
3970215	121	-1151	-405
3970543	167	-1266	-414
3970871	184	-1321	-442
3971199	217	-1268	-439
3971527	223	-1145	-440
3971855	218	-1107	-441
3972183	249	-1177	-449
3972511	237	-1242	-428
3972839	185	-1201	-401
3973167	190	-1004	-379
3973495	213	-774	-354
3973823	255	-577	-343
3974151	330	-467	-329
3974479	362	-417	-324
3974807	388	-398	-322
3975135	393	-394	-323
3975463	374	-344	-326
3975791	341	-298	-312
3976119	330	-289	-334
3976447	242	-274	-321
3976775	164	-346	-305
3977103	140	-449	-288
3977431	45	-517	-251
3977759	-1	-541	-211
3978087	-53	-476	-174
3978415	-111	-318	-123
3978743	-115	-196	-75
3979071	-108	-154	-39
3979399	-56	-192	3
3979727	52	-189	61
3980055	181	-98	97
3980383	186	-6	176
3980711	188	-15	253
3981039	160	-62	265
3981367	-38	-84	275
3981695	-122	-181	291
3982023	184	-321	267
3982351	226	-229	267
3982679	-255	18	383
3983007	-426	154	417
3983335	-362	97	388
3983663	-352	153	364
3983991	-333	119	358
3984319	-147	69	343
3984647	-216	216	373
3984975	-308	299	412
3985303	-356	223	434
3985631	-431	52	449
3985959	-463	-68	442
3986287	-499	-125	453
3986615	-523	-95	457
3986943	-505	-2	450
3987271	-498	52	451
3987599	-454	19	417
3987927	-389	-16	418
3988255	-344	44	407
3988583	-327	141	419
3988911	-285	192	420
3989239	-290	168	437
3989567	-382	222	445
3989895	-449	309	460
3990223	-539	335	485
3990551	-441	211	483
3990879	-538	169	477
3991207	-845	137	522
3991535	-599	128	532
3991863	-543	144	546
3992191	-381	159	548
3992519	-289	395	558
3992847	-369	496	566
3993175	-325	460	611
3993503	-357	440	643
3993831	-392	387	674
3994159	-386	377	699
3994487	-474	332	717
3994815	-554	234	739
3995143	-629	130	769
3995471	-739	83	805
3995799	-770	158	884
3996127	-1039	554	977
3996455	-1107	486	882
3996783	-353	-455	719
3997111	-588	-264	616
3997439	-1257	637	734
3997767	-887	810	750
3998095	-484	323	580
3998423	160	-257	443
3998751	244	353	399
3999079	-59	1254	441
3999407	-174	1215	427
3999735	-221	579	348
4000063	-242	77	297
4000391	-145	-153	247
4000719	-217	-128	263
4001047	-405	-172	286
4001375	-546	-248	285
4001703	-737	-327	257
4002031	-794	-350	272
4002359	-755	-397	229
4002687	-688	-496	201
4003015	-572	-533	202
4003343	-529	-474	213
4003671	-479	-374	188
4003999	-543	-180	142
4004327	-364	-38	137
4004655	-73	-63	107
4004983	-73	-140	144
4005311	-187	309	138
4005639	-618	644	187
4005967	-555	381	168
4006295	-397	-25	193
4006623	-474	-243	169
4006951	-555	-154	195
4007279	-647	-33	217
4007607	-685	-103	208
4007935	-742	-147	188
4008263	-797	-203	181
4008591	-669	-378	137
4008919	-530	-522	87
4009247	-490	-520	84
4009575	-544	-360	107
4009903	-671	-148	129
4010231	-787	48	129
4010559	-846	155	136
4010887	-912	218	119
4011215	-939	309	97
4011543	-885	412	70
4011871	-847	426	45
4012199	-811	338	35
4012527	-720	238	29
4012855	-648	212	33
4013183	-418	163	14
4013511	-550	203	-17
4013839	-784	149	-31
4014167	-561	24	-56
4014495	-511	80	-104
4014823	-493	202	-118
4015151	-346	447	-179
4015479	-398	696	-198
4015807	-354	695	-195
4016135	-306	639	-228
4016463	-318	570	-232
4016791	-290	477	-247
4017119	-259	418	-267
4017447	-280	440	-283
4017775	-281	440	-317
4018103	-282	466	-346
4018431	-287	494	-359
4018759	-281	509	-382
4019087	-266	533	-414
4019415	-213	528	-421
4019743	-158	512	-452
4020071	-76	440	-476
4020399	-38	382	-511
4020727	63	361	-552
4021055	169	379	-587
4021383	216	397	-628
4021711	170	430	-654
4022039	170	492	-704
4022367	204	596	-727
4022695	243	650	-773
4023023	300	747	-804
4023351	362	852	-853
4023679	493	916	-913
4024007	644	917	-940
4024335	709	794	-960
4024663	831	640	-1004
4024991	860	788	-978
4025319	378	1631	-905
4025647	1456	1629	-1043
4025975	2029	-585	-1070
4026303	163	-2453	-957
4026631	-464	-2239	-912
4026959	448	-64	-790
4027287	141	1931	-707
4027615	-139	1907	-670
4027943	98	750	-649
4028271	261	-78	-629
4028599	439	-107	-563
4028927	555	153	-492
4029255	473	233	-448
4029583	415	167	-415
4029911	440	223	-394
4030239	419	368	-402
4030567	510	400	-419
4030895	551	205	-412
4031223	579	-91	-386
4031551	524	-379	-346
4031879	547	-504	-371
4032207	632	-503	-409
4032535	852	-499	-474
4032863	1039	-584	-547
4033191	1148	-703	-594
4033519	1218	-576	-613
4033847	1249	-276	-604
4034175	1209	44	-633
4034503	1162	190	-656
4034831	1037	130	-663
4035159	911	47	-670
4035487	826	6	-649
4035815	302	59	-593
4036143	203	68	-545
4036471	265	2	-503
4036799	380	-109	-464
4037127	485	-53	-421
4037455	491	113	-350
4037783	512	156	-280
4038111	460	18	-208
4038439	329	-141	-127
4038767	285	-76	-56
4039095	286	240	5
4039423	320	520	32
4039751	286	611	67
4040079	285	572	67
4040407	229	428	73
4040735	141	344	110
4041063	141	381	122
4041391	159	467	141
4041719	147	474	187
4042047	161	428	205
4042375	142	379	216
4042703	118	300	234
4043031	115	228	266
4043359	64	246	288
4043687	3	284	303
4044015	-46	312	333
4044343	-130	327	366
4044671	-189	276	394
4044999	-219	211	416
4045327	-225	176	456
4045655	-168	145	479
4045983	-153	132	518
4046311	-138	4	568
4046639	-166	-117	610
4046967	-214	-167	635
4047295	-266	-75	664
4047623	-325	41	696
4047951	-397	128	716
4048279	-499	176	743
4048607	-581	145	754
4048935	-769	126	744
4049263	-669	-12	734
4049591	-412	-112	725
4049919	-626	-10	783
4050247	-630	154	852
4050575	-652	197	844
4050903	-612	140	851
4051231	-603	109	818
4051559	-486	134	858
4051887	-541	280	884
4052215	-587	409	907
4052543	-668	433	943
4052871	-675	382	946
4053199	-637	237	960
4053527	-629	122	963
4053855	-645	33	994
4054183	-629	-38	994
4054511	-669	-159	981
4054839	-716	-323	991
4055167	-774	-471	988
4055495	-833	-491	949
4055823	-896	-377	965
4056151	-997	125	1083
4056479	-1569	1204	1135
4056807	-812	494	800
4057135	-653	-1890	706
4057463	-1805	-3230	726
4057791	-1475	-1907	824
4058119	-981	982	713
4058447	-222	2505	599
4058775	63	1833	553
4059103	364	118	575
4059431	629	-1004	536
4059759	411	-922	507
4060087	266	106	446
4060415	51	1027	381
4060743	22	1013	318
4061071	-32	237	273
4061399	-255	-496	232
4061727	-414	-683	217
4062055	-495	-410	168
4062383	-556	-166	181
4062711	-547	-186	176
4063039	-586	-480	160
4063367	-645	-801	154
4063695	-746	-914	164
4064023	-837	-711	201
4064351	-880	-359	184
4064679	-775	-65	196
4065007	-536	64	204
4065335	-421	-48	255
4065663	-352	-232	295
4065991	-269	-279	292
4066319	-179	-151	264
4066647	-191	-114	266
4066975	-327	-252	309
4067303	-412	-272	290
4067631	-459	-39	292
4067959	-498	189	301
4068287	-505	251	321
4068615	-507	190	333
4068943	-489	121	334
4069271	-471	182	351
4069599	-448	301	354
4069927	-512	346	367
4070255	-547	290	364
4070583	-542	293	365
4070911	-563	362	372
4071239	-477	355	344
4071567	-341	182	311
4071895	-261	-29	318
4072223	-278	-135	330
4072551	-359	-62	322
4072879	-580	166	283
4073207	-700	285	236
4073535	-319	124	212
4073863	-271	120	171
4074191	-591	377	191
4074519	-673	517	159
4074847	-591	267	160
4075175	-374	18	108
4075503	-442	-15	101
4075831	-339	170	111
4076159	-340	388	98
4076487	-365	384	100
4076815	-281	128	68
4077143	-211	-164	33
4077471	-120	-248	11
4077799	-36	-160	-25
4078127	-16	-41	-50
4078455	26	-53	-86
4078783	147	-126	-160
4079111	212	-92	-248
4079439	235	-38	-302
4079767	267	73	-375
4080095	286	76	-406
4080423	268	-49	-484
4080751	294	-227	-524
4081079	289	-378	-580
4081407	271	-338	-625
4081735	273	-217	-642
4082063	237	-140	-641
4082391	422	-134	-675
4082719	551	-159	-673
4083047	294	-55	-712
4083375	544	-84	-716
4083703	829	-112	-768
4084031	878	-114	-738
4084359	936	-61	-847
4084687	851	-166	-842
4085015	1029	-608	-889
4085343	1186	-935	-873
4085671	1159	-1040	-869
4085999	992	-802	-865
4086327	897	-613	-814
4086655	817	-699	-709
4086983	731	-677	-757
4087311	713	-633	-743
4087639	810	-779	-778
4087967	855	-970	-725
4088295	1000	-1107	-754
4088623	903	-1006	-717
4088951	658	-779	-654
4089279	383	-478	-649
4089607	223	-264	-593
4089935	109	-96	-556
4090263	47	-7	-487
4090591	-31	176	-518
4090919	-55	189	-505
4091247	-19	-2	-479
4091575	134	-315	-468
4091903	203	-497	-422
4092231	366	-709	-384
4092559	331	-770	-328
4092887	317	-764	-340
4093215	281	-730	-321
4093543	253	-650	-374
4093871	166	-505	-383
4094199	73	-277	-408
4094527	16	-164	-405
4094855	-16	-148	-403
4095183	-57	-132	-382
4095511	-115	-83	-369
4095839	-209	-67	-352
4096167	88	-209	-389
4096495	339	-512	-420
4096823	382	-313	-412
4097151	31	165	-307
4097479	-84	-117	-314
4097807	283	-413	-358
4098135	170	-267	-340
4098463	174	-263	-332
4098791	185	-214	-354
4099119	121	-226	-340
4099447	141	-225	-332
4099775	130	-254	-338
4100103	148	-380	-340
4100431	212	-382	-343
4100759	216	-267	-318
4101087	213	-150	-330
4101415	216	-70	-323
4101743	187	8	-333
4102071	230	61	-343
4102399	237	102	-331
4102727	273	125	-330
4103055	258	125	-325
4103383	264	61	-319
4103711	233	16	-319
4104039	220	-9	-333
4104367	181	23	-319
4104695	107	99	-291
4105023	112	68	-273
4105351	382	-13	-279
4105679	3	147	-252
4106007	-15	25	-241
4106335	207	-28	-243
4106663	240	-18	-241
4106991	351	274	-258
4107319	173	516	-239
4107647	118	432	-233
4107975	96	288	-186
4108303	10	232	-176
4108631	-82	308	-142
4108959	-165	391	-137
4109287	-246	406	-105
4109615	-253	372	-105
4109943	-273	361	-64
4110271	-273	396	-63
4110599	-275	482	-57
4110927	-245	536	-54
4111255	-200	546	-33
4111583	-170	517	-30
4111911	-152	501	-18
4112239	-173	530	-3
4112567	-189	574	16
4112895	-218	619	9
4113223	-257	613	27
4113551	-283	605	40
4113879	-279	575	47
4114207	-246	528	65
4114535	-235	471	77
4114863	-252	410	78
4115191	-261	348	87
4115519	-219	311	102
4115847	-178	315	99
4116175	-107	341	110
4116503	-105	426	114
4116831	-150	550	138
4117159	-165	597	144
4117487	-257	679	130
4117815	-412	773	130
4118143	-165	586	94
4118471	85	239	113
4118799	-18	341	122
4119127	-232	594	131
4119455	-190	470	98
4119783	-84	331	88
4120111	-93	381	65
4120439	15	497	69
4120767	22	648	47
4121095	-33	744	39
4121423	-12	742	23
4121751	-23	560	16
4122079	13	312	24
4122407	30	176	38
4122735	50	237	49
4123063	-5	390	22
4123391	-51	475	22
4123719	-85	516	5
4124047	-78	549	8
4124375	-56	561	4
4124703	-31	583	32
4125031	-12	633	19
4125359	-53	662	19
4125687	-56	684	17
4126015	-73	649	18
4126343	-120	545	23
4126671	-162	473	24
4126999	-223	466	36
4127327	-22	406	50
4127655	-169	497	39
4127983	-377	444	59
4128311	-168	429	80
4128639	-316	447	72
4128967	-300	477	85
4129295	-292	613	67
4129623	-404	675	70
4129951	-406	612	71
4130279	-478	554	106
4130607	-566	573	106
4130935	-651	706	121
4131263	-758	788	142
4131591	-790	794	149
4131919	-851	773	168
4132247	-873	657	179
4132575	-920	552	199
4132903	-950	497	200
4133231	-957	547	217
4133559	-937	617	216
4133887	-932	600	231
4134215	-899	533	251
4134543	-900	540	255
4134871	-901	564	274
4135199	-833	516	277
4135527	-853	456	292
4135855	-887	442	305
4136183	-924	475	289
4136511	-982	525	294
4136839	-984	492	293
4137167	-956	398	300
4137495	-949	297	287
4137823	-981	252	288
4138151	-964	238	276
4138479	-971	246	242
4138807	-964	190	225
4139135	-962	147	217
4139463	-956	114	211
4139791	-978	132	198
4140119	-1025	239	201
4140447	-1082	339	191
4140775	-1203	383	149
4141103	-1166	345	138
4141431	-910	195	111
4141759	-1091	155	127
4142087	-1183	231	147
4142415	-1135	317	133
4142743	-1100	363	117
4143071	-1149	389	94
4143399	-1050	306	113
4143727	-1020	296	104
4144055	-1155	366	156
4144383	-1178	540	148
4144711	-1216	686	189
4145039	-1240	686	195
4145367	-1265	554	236
4145695	-1298	424	263
4146023	-1355	369	294
4146351	-1422	403	319
4146679	-1487	446	336
4147007	-1519	435	363
4147335	-1569	359	397
4147663	-1577	317	440
4147991	-1578	342	461
4148319	-1570	353	491
4148647	-1580	308	513
4148975	-1611	276	540
4149303	-1705	294	573
4149631	-1802	330	610
4149959	-1860	333	637
4150287	-1839	183	640
4150615	-1621	-22	645
4150943	-1856	-89	687
4151271	-1916	32	737
4151599	-1900	211	751
4151927	-1882	238	731
4152255	-1812	78	720
4152583	-1768	80	728
4152911	-1774	187	727
4153239	-1794	273	731
4153567	-1808	261	700
4153895	-1843	149	707
4154223	-1903	21	697
4154551	-1954	-41	672
4154879	-2026	-20	653
4155207	-2085	53	630
4155535	-2117	120	618
4155863	-2146	99	573
4156191	-2117	-59	549
4156519	-2107	-294	523
4156847	-2104	-465	513
4157175	-2082	-494	501
4157503	-2078	-433	486
4157831	-2099	-370	490
4158159	-2160	-372	469
4158487	-2243	-497	462
4158815	-2335	-589	467
4159143	-2449	-555	462
4159471	-2534	-493	462
4159799	-2673	-420	479
4160127	-2776	-441	461
4160455	-2849	-620	458
4160783	-2929	-821	483
4161111	-2993	-850	538
4161439	-3035	-670	579
4161767	-3028	-373	601
4162095	-2990	-156	643
4162423	-2974	-70	692
4162751	-2972	-36	714
4163079	-3059	-9	751
4163407	-3154	33	802
4163735	-3250	56	855
4164063	-3316	74	926
4164391	-3360	33	983
4164719	-3403	-69	1055
4165047	-3479	-149	1120
4165375	-3568	-150	1194
4165703	-3732	-105	1255
4166031	-3970	-97	1301
4166359	-3764	-275	1323
4166687	-3715	-299	1375
4167015	-4067	-109	1503
4167343	-4120	107	1553
4167671	-4177	191	1593
4167999	-4261	146	1616
4168327	-4182	82	1630
4168655	-4039	205	1684
4168983	-4064	399	1758
4169311	-4099	475	1790
4169639	-4236	336	1841
4169967	-4304	135	1900
4170295	-4342	87	1967
4170623	-4453	182	2047
4170951	-4593	292	2114
4171279	-4595	278	2146
4171607	-4597	148	2196
4171935	-4569	46	2238
4172263	-4552	103	2301
4172591	-4636	205	2390
4172919	-4760	271	2472
4173247	-4828	300	2551
4173575	-4864	275	2619
4173903	-4897	270	2659
4174231	-4898	332	2723
4174559	-4946	430	2762
4174887	-5016	484	2815
4175215	-4986	401	2837
4175543	-4825	279	2852
4175871	-5119	210	2927
4176199	-5103	245	2946
4176527	-5116	376	2963
4176855	-5163	410	2944
4177183	-5130	522	2920
4177511	-5112	607	2914
4177839	-5036	581	2892
4178167	-4864	558	2848
4178495	-4772	644	2784
4178823	-4673	749	2736
4179151	-4566	845	2671
4179479	-4552	902	2628
4179807	-4559	960	2603
4180135	-4529	1017	2585
4180463	-4535	1201	2592
4180791	-4595	1458	2636
4181119	-4612	1612	2698
4181447	-4508	1767	2732
4181775	-4511	1868	2786
4182103	-4517	1923	2801
4182431	-4572	1960	2825
4182759	-4592	2001	2850
4183087	-4559	2024	2907
4183415	-4438	2079	2887
4183743	-4449	2108	2926
4184071	-4474	2060	2941
4184399	-4447	1863	2990
4184727	-4533	1571	3038
4185055	-4634	1326	3075
4185383	-4759	1207	3071
4185711	-4864	1172	3100
4186039	-4964	1137	3120
4186367	-5060	1151	3115
4186695	-5258	1246	3096
4187023	-5457	1357	3076
4187351	-5667	1386	3028
4187679	-5857	1357	2991
4188007	-5954	1210	2937
4188335	-6032	923	2898
4188663	-5976	529	2909
4188991	-5971	324	2921
4189319	-6099	345	2946
4189647	-6159	307	3012
4189975	-6194	269	3005
4190303	-6203	405	2957
4190631	-6197	705	2877
4190959	-6166	978	2819
4191287	-5726	877	2770
4191615	-5512	489	2709
4191943	-5786	413	2733
4192271	-6074	476	2703
4192599	-6142	261	2674
4192927	-5964	1	2654
4193255	-6164	92	2603
4193583	-6169	419	2611
4193911	-6103	674	2579
4194239	-6144	598	2553
4194567	-6098	410	2525
4194895	-6119	289	2561
4195223	-6057	201	2577
4195551	-6021	113	2627
4195879	-6002	-14	2681
4196207	-6038	-70	2722
4196535	-6149	-37	2758
4196863	-6180	137	2773
4197191	-6175	364	2742
4197519	-6176	439	2777
4197847	-6173	340	2782
4198175	-6162	210	2780
4198503	-6205	149	2765
4198831	-6255	264	2725
4199159	-6366	421	2703
4199487	-6353	373	2711
4199815	-6576	157	2710
4200143	-6540	-153	2710
4200471	-6259	-389	2659
4200799	-6601	-182	2634
4201127	-6591	-110	2638
4201455	-6310	-94	2577
4201783	-6214	41	2531
4202111	-6228	366	2459
4202439	-6291	514	2412
4202767	-6189	509	2364
4203095	-6234	470	2328
4203423	-6279	460	2287
4203751	-6322	413	2242
4204079	-6319	441	2205
4204407	-6324	414	2163
4204735	-6378	379	2135
4205063	-6267	368	2121
4205391	-6182	416	2106
4205719	-6079	440	2074
4206047	-5940	481	2048
4206375	-5823	544	1990
4206703	-5686	537	1966
4207031	-5577	535	1903
4207359	-5454	560	1839
4207687	-5291	623	1759
4208015	-5171	724	1676
4208343	-5045	752	1576
4208671	-4900	688	1486
4208999	-4747	609	1406
4209327	-4652	580	1310
4209655	-4551	583	1197
4209983	-4419	600	1087
4210311	-4171	529	946
4210639	-3854	401	803
4210967	-3740	319	696
4211295	-3594	355	592
4211623	-3490	390	499
4211951	-3411	390	394
4212279	-3338	324	291
4212607	-3200	218	201
4212935	-3102	159	124
4213263	-3005	209	49
4213591	-2930	242	-9
4213919	-2982	281	-99
4214247	-2782	154	-162
4214575	-2426	-255	-196
4214903	-2213	-242	-269
4215231	-2337	210	-252
4215559	-2416	389	-302
4215887	-2074	230	-306
4216215	-1962	222	-334
4216543	-1903	438	-357
4216871	-1888	682	-352
4217199	-1866	592	-343
4217527	-1679	243	-357
4217855	-1491	-180	-353
4218183	-1362	-555	-345
4218511	-1363	-575	-338
4218839	-1543	-164	-325
4219167	-1708	502	-368
4219495	-1737	941	-334
4219823	-1718	1004	-276
4220151	-1684	1079	-262
4220479	-1678	1167	-195
4220807	-1579	1107	-153
4221135	-1485	870	-138
4221463	-1395	544	-111
4221791	-1281	248	-81
4222119	-1235	156	-37
4222447	-1229	257	19
4222775	-1348	477	53
4223103	-1496	666	92
4223431	-1386	631	115
4223759	-1631	784	125
4224087	-1938	706	206
4224415	-1661	489	220
4224743	-1386	426	183
4225071	-1130	569	173
4225399	-970	744	167
4225727	-901	746	174
4226055	-913	633	164
4226383	-908	540	139
4226711	-959	559	74
4227039	-1091	708	20
4227367	-1170	847	-46
4227695	-1240	873	-109
4228023	-1233	883	-125
4228351	-1291	901	-128
4228679	-1313	857	-65
4229007	-1434	824	18
4229335	-1605	813	46
4229663	-1702	775	118
4229991	-1761	661	167
4230319	-1684	539	207
4230647	-1640	488	273
4230975	-1559	532	332
4231303	-1417	539	378
4231631	-1324	518	390
4231959	-1346	449	424
4232287	-1339	381	467
4232615	-1340	397	494
4232943	-1375	421	527
4233271	-1497	386	567
4233599	-1507	324	562
4233927	-1520	359	544
4234255	-1415	404	550
4234583	-1270	337	546
4234911	-1114	197	541
4235239	-1089	225	554
4235567	-1054	320	544
4235895	-988	347	541
4236223	-997	302	502
4236551	-1042	272	496
4236879	-1054	233	483
4237207	-1020	89	455
4237535	-908	-158	460
4237863	-869	-174	441
4238191	-846	-46	434
4238519	-716	-54	418
4238847	-733	-101	410
4239175	-830	-31	359
4239503	-855	107	301
4239831	-485	5	227
4240159	-404	-223	171
4240487	-448	-251	173
4240815	-397	-139	87
4241143	-384	-61	66
4241471	-479	-67	-14
4241799	-486	-157	-35
4242127	-449	-117	-54
4242455	-543	-19	-41
4242783	-572	39	-42
4243111	-660	6	-41
4243439	-611	-98	-62
4243767	-547	-104	-65
4244095	-415	117	-68
4244423	-319	366	-33
4244751	-206	479	-8
4245079	-131	361	22
4245407	-97	136	49
4245735	-115	-96	54
4246063	-170	-189	95
4246391	-212	-147	108
4246719	-261	15	117
4247047	-341	102	124
4247375	-361	57	115
4247703	-370	-17	101
4248031	-369	-59	64
4248359	-351	-1	52
4248687	-334	36	46
4249015	-30	22	23
4249343	-95	-22	1
4249671	-224	-94	38
4249999	-113	-37	14
4250327	-221	-45	34
4250655	-145	-59	18
4250983	-130	-24	4
4251311	-143	3	3
4251639	-100	58	12
4251967	-114	135	5
4252295	-122	199	-6
4252623	-137	177	-9
4252951	-159	132	-22
4253279	-179	88	-25
4253607	-151	110	-47
4253935	-131	175	-46
4254263	-117	258	-45
4254591	-110	300	-64
4254919	-115	267	-69
4255247	-74	200	-91
4255575	-65	175	-80
4255903	-63	218	-80
4256231	-62	257	-84
4256559	-74	224	-101
4256887	-80	126	-92
4257215	-132	50	-93
4257543	-119	67	-103
4257871	-85	126	-101
4258199	-85	164	-95
4258527	-59	180	-90
4258855	4	192	-93
4259183	36	149	-80
4259511	27	127	-78
4259839	7	109	-53
4260167	-1	170	-55
4260495	-23	247	-65
4260823	-46	244	-63
4261151	3	208	-55
4261479	29	166	-37
4261807	19	141	-37
4262135	57	124	-20
4262463	54	92	-11
4262791	50	36	-10
4263119	65	64	0
4263447	75	113	-9
4263775	36	126	6
4264103	17	190	17
4264431	-3	227	27
4264759	-118	199	28
4265087	-162	78	28
4265415	146	-69	32
4265743	-5	-35	53
4266071	-117	65	94
4266399	4	158	83
4266727	33	182	69
4267055	13	180	53
4267383	145	128	61
4267711	207	212	66
4268039	116	297	73
4268367	102	348	98
4268695	70	321	96
4269023	76	260	82
4269351	73	226	87
4269679	57	231	114
4270007	47	233	107
4270335	46	267	115
4270663	53	276	111
4270991	49	215	108
4271319	57	165	112
4271647	52	153	126
4271975	51	195	125
4272303	43	228	127
4272631	41	232	127
4272959	24	215	129
4273287	19	183	121
4273615	-15	205	143
4273943	-71	226	153
4274271	-45	191	165
4274599	159	127	153
4274927	-85	106	164
4275255	-12	120	188
4275583	-21	169	195
4275911	-106	108	192
4276239	-69	137	164
4276567	-106	190	157
4276895	-85	175	159
4277223	-55	143	160
4277551	-18	121	160
4277879	-50	135	165
4278207	-71	123	172
4278535	-133	88	194
4278863	-166	47	204
4279191	-184	9	180
4279519	-181	-5	184
4279847	-181	58	186
4280175	-150	56	189
4280503	-91	33	195
4280831	-20	9	176
4281159	4	51	191
4281487	46	119	184
4281815	15	179	190
4282143	21	150	198
4282471	-6	112	194
4282799	-14	84	192
4283127	-2	76	185
4283455	3	47	189
4283783	31	26	185
4284111	37	26	182
4284439	-12	23	198
4284767	-1	14	205
4285095	-13	12	200
4285423	-25	68	204
4285751	-17	165	208
4286079	-68	210	212
4286407	-74	215	213
4286735	-81	165	225
4287063	-80	174	248
4287391	-100	147	245
4287719	-100	117	253
4288047	-101	112	250
4288375	-116	102	259
4288703	-150	97	268
4289031	-177	82	280
4289359	-209	143	293
4289687	-254	184	314
4290015	-287	167	321
4290343	-501	163	322
4290671	-438	61	325
4290999	-101	-119	342
4291327	-338	-40	358
4291655	-582	254	435
4291983	-510	453	428
4292311	-470	402	439
4292639	-481	256	414
4292967	-383	192	420
4293295	-366	296	437
4293623	-483	430	452
4293951	-495	423	471
4294279	-562	247	485
4294607	-576	109	501
4294935	-422	109	519
4295263	-355	193	560
4295591	-296	305	566
4295919	-277	302	573
4296247	-199	251	564
4296575	-216	208	556
4296903	-278	221	564
4297231	-411	313	560
4297559	-527	374	560
4297887	-570	327	551
4298215	-552	192	515
4298543	-512	113	497
4298871	-412	160	478
4299199	-393	276	473
4299527	-403	256	493
4299855	-130	64	470
4300183	-192	-48	455
4300511	-461	-203	434
4300839	-223	-375	391
4301167	-173	-460	354
4301495	-342	-293	281
4301823	-406	106	202
4302151	-478	288	154
4302479	-433	212	92
4302807	-427	157	41
4303135	-482	279	-22
4303463	-424	518	-79
4303791	-406	628	-96
4304119	-427	505	-105
4304447	-336	364	-136
4304775	-331	360	-137
4305103	-335	401	-170
4305431	-357	393	-161
4305759	-323	329	-180
4306087	-317	330	-181
4306415	-346	397	-205
4306743	-313	430	-196
4307071	-319	448	-215
4307399	-351	417	-220
4307727	-328	398	-234
4308055	-345	480	-230
4308383	-303	490	-247
4308711	-273	424	-228
4309039	-227	324	-275
4309367	-249	296	-275
4309695	-229	300	-321
4310023	-197	303	-351
4310351	-241	316	-358
4310679	-309	354	-380
4311007	-333	356	-412
4311335	-328	365	-432
4311663	-280	312	-451
4311991	-304	337	-461
4312319	-324	360	-464
4312647	-328	396	-499
4312975	-288	354	-505
4313303	-221	280	-520
4313631	-202	225	-536
4313959	-310	254	-549
4314287	-246	295	-586
4314615	76	41	-618
4314943	163	48	-656
4315271	-97	486	-631
4315599	-353	567	-655
4315927	-62	194	-716
4316255	26	49	-753
4316583	74	113	-766
4316911	159	229	-760
4317239	20	342	-724
4317567	-73	456	-682
4317895	453	6	-796
4318223	737	-1166	-864
4318551	189	-1936	-828
4318879	-216	-1774	-716
4319207	-383	-943	-657
4319535	-642	-92	-612
4319863	-613	286	-606
4320191	-374	547	-644
4320519	-289	801	-621
4320847	-180	900	-584
4321175	-58	681	-553
4321503	7	254	-534
4321831	211	-289	-513
4322159	350	-715	-479
4322487	254	-875	-432
4322815	134	-835	-377
4323143	107	-773	-350
4323471	342	-833	-356
4323799	348	-725	-420
4324127	53	-593	-431
4324455	444	-638	-479
4324783	597	-635	-528
4325111	775	-515	-607
4325439	725	-150	-634
4325767	595	-45	-603
4326095	513	-202	-566
4326423	390	-318	-526
4326751	219	-248	-477
4327079	117	-222	-456
4327407	95	-224	-450
4327735	133	-291	-466
4328063	278	-332	-449
4328391	452	-300	-451
4328719	595	-217	-457
4329047	718	-114	-470
4329375	827	7	-496
4329703	848	199	-510
4330031	789	359	-498
4330359	700	428	-484
4330687	587	376	-441
4331015	428	337	-425
4331343	230	392	-405
4331671	87	544	-384
4331999	-47	783	-385
4332327	-27	923	-382
4332655	98	890	-325
4332983	323	839	-340
4333311	550	846	-286
4333639	693	919	-214
4333967	697	958	-156
4334295	677	915	-101
4334623	605	885	-63
4334951	558	818	-35
4335279	516	744	-9
4335607	423	712	40
4335935	309	697	75
4336263	144	702	120
4336591	19	804	138
4336919	-202	953	145
4337247	-148	889	122
4337575	145	601	162
4337903	7	678	216
4338231	-155	887	306
4338559	-256	866	296
4338887	-163	581	334
4339215	-173	497	336
4339543	-125	524	383
4339871	-66	638	432
4340199	-197	721	491
4340527	-330	659	546
4340855	-295	570	573
4341183	-257	435	590
4341511	-201	395	653
4341839	-208	376	690
4342167	-259	385	723
4342495	-381	324	795
4342823	-431	363	802
4343151	-431	410	826
4343479	-456	382	837
4343807	-498	363	856
4344135	-468	326	865
4344463	-460	288	891
4344791	-450	250	896
4345119	-469	247	915
4345447	-501	208	913
4345775	-606	167	953
4346103	-507	104	946
4346431	-370	268	884
4346759	-595	347	905
4347087	-689	865	1141
4347415	-1706	1526	1117
4347743	-513	-557	722
4348071	-273	-2863	527
4348399	-1629	-2261	778
4348727	-537	87	816
4349055	-288	1757	683
4349383	-342	1254	604
4349711	135	-63	639
4350039	-263	-826	642
4350367	-639	-833	600
4350695	-948	-320	525
4351023	-1250	-26	444
4351351	-1200	-37	403
4351679	-1295	-117	411
4352007	-1297	-127	442
4352335	-1282	-182	460
4352663	-1377	-314	459
4352991	-1449	-326	441
4353319	-1610	-176	413
4353647	-1708	49	408
4353975	-1683	158	380
4354303	-1587	133	372
4354631	-1544	103	407
4354959	-1590	69	431
4355287	-1603	74	440
4355615	-1599	130	449
4355943	-1522	287	421
4356271	-1323	453	405
4356599	-1161	493	420
4356927	-999	351	452
4357255	-883	137	477
4357583	-657	-128	469
4357911	-469	-139	443
4358239	-511	208	426
4358567	-606	614	410
4358895	-721	800	358
4359223	-736	799	281
4359551	-782	825	176
4359879	-776	933	113
4360207	-772	1016	63
4360535	-777	950	28
4360863	-819	800	22
4361191	-821	635	-2
4361519	-445	594	-34
4361847	-513	674	-52
4362175	-736	615	-9
4362503	-571	470	-80
4362831	-448	412	-126
4363159	-425	439	-156
4363487	-368	464	-185
4363815	-348	588	-205
4364143	-381	699	-173
4364471	-428	821	-183
4364799	-358	907	-254
4365127	-192	794	-269
4365455	-122	599	-311
4365783	-72	471	-354
4366111	-69	463	-387
4366439	-41	514	-432
4366767	-12	558	-477
4367095	-15	539	-525
4367423	10	542	-588
4367751	57	533	-652
4368079	90	578	-696
4368407	138	624	-754
4368735	187	616	-742
4369063	223	541	-743
4369391	253	478	-759
4369719	254	499	-754
4370047	298	527	-718
4370375	385	589	-714
4370703	657	515	-729
4371031	461	325	-718
4371359	556	214	-704
4371687	640	225	-716
4372015	617	178	-743
4372343	760	89	-800
4372671	794	-83	-856
4372999	887	-267	-886
4373327	1060	-240	-925
4373655	958	581	-903
4373983	1015	1739	-982
4374311	2121	501	-1054
4374639	815	-2369	-928
4374967	-712	-4096	-779
4375295	-163	-2368	-800
4375623	220	1454	-944
4375951	211	3595	-803
4376279	391	3011	-781
4376607	495	406	-700
4376935	116	-2404	-608
4377263	-35	-3120	-532
4377591	201	-1623	-450
4377919	390	591	-434
4378247	587	1678	-426
4378575	889	1270	-437
4378903	984	60	-438
4379231	998	-866	-397
4379559	1017	-952	-324
4379887	1011	-495	-253
4380215	1014	-136	-224
4380543	1060	-160	-191
4380871	1129	-438	-206
4381199	1268	-666	-250
4381527	1390	-641	-289
4381855	1530	-463	-292
4382183	1601	-248	-324
4382511	1692	-67	-386
4382839	1707	15	-432
4383167	1652	61	-502
4383495	1470	90	-546
4383823	1251	87	-563
4384151	995	36	-577
4384479	804	-34	-598
4384807	635	-152	-589
4385135	527	-246	-552
4385463	468	-280	-516
4385791	443	-305	-475
4386119	351	-268	-456
4386447	585	-288	-437
4386775	847	-313	-388
4387103	767	-190	-318
4387431	908	-75	-248
4387759	889	-68	-183
4388087	894	-53	-136
4388415	856	2	-168
4388743	871	-63	-158
4389071	791	-208	-116
4389399	658	-158	-78
4389727	497	11	-34
4390055	453	93	-23
4390383	450	88	-24
4390711	414	42	2
4391039	406	60	26
4391367	424	137	48
4391695	424	290	38
4392023	378	430	47
4392351	361	451	51
4392679	361	401	63
4393007	368	359	76
4393335	335	333	97
4393663	263	341	131
4393991	232	308	157
4394319	190	231	193
4394647	157	153	238
4394975	107	84	301
4395303	90	-35	356
4395631	275	-168	399
4395959	26	-236	443
4396287	-180	-332	486
4396615	-35	-331	502
4396943	-152	-312	514
4397271	-244	-207	541
4397599	-319	-36	553
4397927	-414	67	579
4398255	-427	81	595
4398583	-427	28	619
4398911	-519	-75	635
4399239	-624	-137	698
4399567	-732	-101	737
4399895	-807	-76	811
4400223	-862	-103	872
4400551	-908	-147	916
4400879	-936	-181	960
4401207	-988	-50	1041
4401535	-1221	706	1261
4401863	-1682	1306	1192
4402191	-721	-84	987
4402519	-985	-1278	975
4402847	-1992	-1018	1136
4403175	-1134	65	1233
4403503	-870	924	1103
4403831	-590	578	1023
4404159	-263	88	1045
4404487	-304	-256	1017
4404815	-265	-319	958
4405143	-518	-81	879
4405471	-525	-18	801
4405799	-512	51	745
4406127	-652	190	726
4406455	-430	200	735
4406783	-335	30	678
4407111	-383	-179	633
4407439	-554	-202	578
4407767	-744	-121	510
4408095	-897	-86	427
4408423	-903	-164	349
4408751	-822	-334	341
4409079	-743	-464	333
4409407	-743	-508	360
4409735	-817	-471	374
4410063	-833	-507	402
4410391	-887	-494	422
4410719	-890	-350	461
4411047	-979	-117	452
4411375	-1066	79	423
4411703	-725	91	350
4412031	-465	13	400
4412359	-508	342	367
4412687	-865	492	413
4413015	-861	110	391
4413343	-585	-201	375
4413671	-735	-113	396
4413999	-727	68	408
4414327	-744	197	378
4414655	-743	156	364
4414983	-733	171	300
4415311	-758	70	271
4415639	-731	-63	228
4415967	-670	-41	200
4416295	-791	153	188
4416623	-988	366	172
4416951	-1123	465	157
4417279	-1134	533	140
4417607	-1148	609	137
4417935	-1105	708	129
4418263	-1013	687	112
4418591	-858	587	90
4418919	-781	528	124
4419247	-787	502	141
4419575	-765	482	157
4419903	-852	471	194
4420231	-834	444	198
4420559	-725	304	248
4420887	-561	270	176
4421215	-982	459	144
4421543	-865	418	135
4421871	-592	300	67
4422199	-431	149	11
4422527	-262	395	-38
4422855	-409	568	-72
4423183	-440	506	-112
4423511	-434	407	-153
4423839	-433	317	-203
4424167	-385	336	-258
4424495	-383	361	-296
4424823	-449	382	-327
4425151	-449	291	-357
4425479	-338	125	-416
4425807	-293	-9	-415
4426135	-215	-10	-465
4426463	-207	95	-520
4426791	-85	156	-563
4427119	50	101	-605
4427447	135	-37	-609
4427775	115	-25	-640
4428103	178	-76	-711
4428431	236	-277	-732
4428759	228	-515	-776
4429087	163	-657	-820
4429415	148	-742	-845
4429743	108	-816	-860
4430071	178	-849	-910
4430399	369	-931	-960
4430727	689	-1140	-1036
4431055	847	-1443	-1060
4431383	743	-1661	-1031
4431711	519	-1612	-976
4432039	129	-1152	-930
4432367	11	-773	-930
4432695	140	-584	-963
4433023	247	-246	-1006
4433351	345	130	-1013
4433679	493	203	-1034
4434007	676	45	-1064
4434335	751	-130	-1069
4434663	918	-372	-1016
4434991	1247	-777	-1004
4435319	1423	-710	-993
4435647	1031	-99	-953
4435975	724	166	-956
4436303	869	9	-933
4436631	856	92	-927
4436959	948	176	-935
4437287	1069	310	-912
4437615	1046	381	-896
4437943	1135	357	-879
4438271	1179	337	-883
4438599	1204	269	-888
4438927	1297	268	-887
4439255	1355	400	-895
4439583	1341	509	-890
4439911	1272	580	-864
4440239	1187	629	-848
4440567	1131	628	-850
4440895	1121	538	-838
4441223	1154	504	-858
4441551	1211	526	-857
4441879	1304	568	-862
4442207	1359	594	-853
4442535	1396	592	-847
4442863	1371	633	-836
4443191	1280	645	-822
4443519	1252	625	-784
4443847	1263	508	-720
4444175	1035	373	-661
4444503	487	261	-623
4444831	466	101	-553
4445159	367	42	-535
4445487	312	159	-476
4445815	336	378	-452
4446143	431	381	-414
4446471	626	287	-344
4446799	723	331	-303
4447127	727	473	-282
4447455	697	495	-231
4447783	616	361	-217
4448111	561	191	-199
4448439	457	112	-173
4448767	325	61	-134
4449095	237	-31	-104
4449423	137	-104	-68
4449751	-13	-145	-30
4450079	-81	-139	14
4450407	-151	-101	46
4450735	-166	-91	54
4451063	-215	-96	90
4451391	-247	-91	121
4451719	-290	-178	158
4452047	-349	-327	247
4452375	-387	-440	281
4452703	-459	-441	329
4453031	-611	-361	398
4453359	-684	-326	442
4453687	-697	-386	461
4454015	-664	-436	464
4454343	-628	-345	480
4454671	-687	-227	517
4454999	-726	-349	515
4455327	-587	-490	487
4455655	-660	-313	493
4455983	-756	-45	508
4456311	-693	-6	491
4456639	-627	-120	466
4456967	-550	-212	450
4457295	-540	-231	431
4457623	-741	-208	426
4457951	-565	-430	391
4458279	-519	-629	340
4458607	-824	-544	361
4458935	-916	-376	355
4459263	-908	-275	332
4459591	-792	-7	298
4459919	-664	286	293
4460247	-336	399	280
4460575	-159	410	257
4460903	-73	253	242
4461231	-37	-26	270
4461559	-16	-299	264
4461887	-22	-473	244
4462215	-106	-471	236
4462543	-175	-402	206
4462871	-290	-293	155
4463199	-352	-213	110
4463527	-326	-181	71
4463855	-291	-155	62
4464183	-241	-90	33
4464511	-194	-53	36
4464839	-134	-23	32
4465167	-119	-33	40
4465495	-120	-99	57
4465823	-120	-141	55
4466151	-130	-100	49
4466479	-165	-5	62
4466807	-153	20	78
4467135	78	-108	85
4467463	-31	-103	72
4467791	-140	-216	93
4468119	-16	-147	93
4468447	-178	-47	82
4468775	-111	-92	64
4469103	-112	-16	57
4469431	-117	-31	50
4469759	-65	-48	50
4470087	-84	-27	53
4470415	-97	17	50
4470743	-159	31	51
4471071	-206	56	41
4471399	-228	45	58
4471727	-222	14	50
4472055	-222	-33	61
4472383	-202	-52	67
4472711	-246	-37	71
4473039	-230	-41	71
4473367	-217	38	70
4473695	-148	181	69
4474023	-164	317	75
4474351	-175	404	73
4474679	-199	412	79
4475007	-213	328	80
4475335	-179	244	89
4475663	-124	268	78
4475991	-120	357	85
4476319	-102	448	81
4476647	-94	534	68
4476975	-74	528	76
4477303	-62	415	90
4477631	-51	333	92
4477959	-44	339	72
4478287	-22	446	78
4478615	-35	541	62
4478943	-46	599	78
4479271	-64	590	83
4479599	-85	499	92
4479927	-103	416	103
4480255	-90	406	119
4480583	-113	444	137
4480911	-164	545	146
4481239	-284	617	131
4481567	-332	573	99
4481895	-18	327	99
4482223	-139	183	113
4482551	-244	240	162
4482879	-204	387	137
4483207	-169	468	144
4483535	-197	402	106
4483863	-79	250	101
4484191	26	239	82
4484519	-85	369	104
4484847	-94	573	130
4485175	-134	643	104
4485503	-101	565	99
4485831	-64	450	89
4486159	-60	368	102
4486487	-90	344	96
4486815	-93	368	85
4487143	-93	364	93
4487471	-103	311	64
4487799	-109	268	68
4488127	-98	225	63
4488455	-114	239	64
4488783	-135	248	59
4489111	-131	225	62
4489439	-141	182	69
4489767	-152	193	46
4490095	-139	216	49
4490423	-147	241	50
4490751	-83	236	70
4491079	121	158	33
4491407	-106	114	43
4491735	-15	102	68
4492063	-20	160	52
4492391	-84	134	56
4492719	21	163	16
4493047	-61	186	13
4493375	-58	168	41
4493703	-27	147	26
4494031	-14	130	36
4494359	-42	133	33
4494687	-76	153	38
4495015	-113	154	45
4495343	-168	123	44
4495671	-218	15	46
4495999	-230	-60	59
4496327	-250	-73	39
4496655	-233	1	63
4496983	-218	53	43
4497311	-215	33	46
4497639	-197	-36	60
4497967	-187	-141	60
4498295	-188	-191	67
4498623	-207	-185	85
4498951	-277	-133	100
4499279	-363	-144	119
4499607	-443	-216	152
4499935	-524	-315	191
4500263	-583	-346	209
4500591	-650	-260	247
4500919	-703	-181	281
4501247	-739	-170	309
4501575	-764	-197	332
4501903	-810	-226	378
4502231	-828	-197	415
4502559	-853	-157	447
4502887	-906	-136	474
4503215	-926	-138	518
4503543	-997	-138	549
4503871	-1098	-143	594
4504199	-1195	-103	652
4504527	-1271	-26	690
4504855	-1366	151	741
4505183	-1431	359	785
4505511	-1516	540	861
4505839	-1627	650	916
4506167	-1747	718	972
4506495	-1975	836	1001
4506823	-2162	914	1052
4507151	-1940	769	1081
4507479	-1908	767	1090
4507807	-2156	865	1220
4508135	-2234	962	1243
4508463	-2312	986	1291
4508791	-2426	973	1303
4509119	-2413	1056	1316
4509447	-2352	1184	1364
4509775	-2493	1440	1412
4510103	-2634	1679	1461
4510431	-2825	1709	1499
4510759	-2922	1592	1541
4511087	-2999	1560	1625
4511415	-3153	1593	1715
4511743	-3311	1606	1804
4512071	-3454	1547	1863
4512399	-3584	1488	1895
4512727	-3644	1524	1927
4513055	-3654	1707	1970
4513383	-3690	1816	2007
4513711	-3651	1854	2042
4514039	-3693	1852	2058
4514367	-3691	1750	2080
4514695	-3731	1630	2096
4515023	-3801	1510	2094
4515351	-3895	1428	2118
4515679	-3968	1325	2097
4516007	-3818	1175	2062
4516335	-3577	1034	1987
4516663	-3783	911	1993
4516991	-3663	781	1951
4517319	-3570	709	1883
4517647	-3551	592	1840
4517975	-3404	547	1769
4518303	-3411	494	1692
4518631	-3348	337	1602
4518959	-3275	94	1489
4519287	-3292	-85	1385
4519615	-3329	-79	1280
4519943	-3350	32	1201
4520271	-3389	49	1105
4520599	-3391	-94	1030
4520927	-3368	-189	964
4521255	-3399	-179	899
4521583	-3423	-150	850
4521911	-3426	-277	743
4522239	-3444	-363	695
4522567	-3453	-459	682
4522895	-3452	-566	671
4523223	-3454	-645	688
4523551	-3504	-691	693
4523879	-3576	-764	728
4524207	-3693	-760	728
4524535	-3799	-685	749
4524863	-3916	-517	784
4525191	-4024	-301	823
4525519	-4114	-137	840
4525847	-4229	-133	883
4526175	-4216	-273	909
4526503	-4131	-433	945
4526831	-4040	-487	981
4527159	-4058	-466	1010
4527487	-4112	-492	1073
4527815	-4191	-512	1121
4528143	-4216	-531	1185
4528471	-4232	-494	1220
4528799	-4198	-442	1246
4529127	-4152	-320	1279
4529455	-4090	-178	1272
4529783	-4085	-39	1261
4530111	-4091	71	1253
4530439	-4101	53	1247
4530767	-4020	-103	1219
4531095	-3980	-184	1164
4531423	-4088	-162	1131
4531751	-3955	-244	1039
4532079	-3693	-553	973
4532407	-3816	-564	918
4532735	-4010	-359	949
4533063	-4052	-440	949
4533391	-3918	-679	960
4533719	-3932	-830	1058
4534047	-3913	-928	1121
4534375	-3917	-751	1211
4534703	-4171	-350	1263
4535031	-4259	-177	1353
4535359	-4200	-260	1354
4535687	-3984	-463	1335
4536015	-3674	-572	1305
4536343	-3466	-638	1332
4536671	-3433	-763	1403
4536999	-3662	-860	1558
4537327	-3941	-779	1614
4537655	-4327	-564	1756
4537983	-4668	-294	1848
4538311	-4924	-52	1938
4538639	-5056	22	2018
4538967	-5106	-130	2117
4539295	-5001	-464	2225
4539623	-4890	-865	2324
4539951	-4802	-1233	2424
4540279	-4839	-1368	2546
4540607	-4948	-1109	2603
4540935	-4955	-807	2563
4541263	-5613	-529	2562
4541591	-6032	-505	2571
4541919	-6059	-651	2534
4542247	-6339	-827	2517
4542575	-6326	-669	2494
4542903	-6554	-316	2482
4543231	-6549	-159	2502
4543559	-6567	-89	2507
4543887	-6563	-120	2540
4544215	-6642	-112	2529
4544543	-6816	-36	2561
4544871	-7020	80	2596
4545199	-7178	132	2655
4545527	-7329	86	2699
4545855	-7458	-17	2786
4546183	-7570	-36	2830
4546511	-7628	88	2891
4546839	-7617	226	2910
4547167	-7575	251	2965
4547495	-7543	168	3012
4547823	-7490	72	3060
4548151	-7549	27	3159
4548479	-7686	114	3245
4548807	-7772	212	3330
4549135	-7885	271	3399
4549463	-7980	242	3467
4549791	-8010	172	3508
4550119	-8002	104	3520
4550447	-7940	102	3559
4550775	-7875	169	3561
4551103	-7741	202	3569
4551431	-7685	196	3561
4551759	-7702	166	3543
4552087	-7691	91	3515
4552415	-7684	42	3505
4552743	-7705	-1	3509
4553071	-7737	20	3515
4553399	-7766	71	3532
4553727	-7725	149	3537
4554055	-7642	260	3567
4554383	-7638	321	3542
4554711	-7608	303	3513
4555039	-7274	37	3475
4555367	-7040	-340	3478
4555695	-6957	-176	3476
4556023	-7170	214	3528
4556351	-7000	228	3491
4556679	-6862	43	3457
4557007	-6775	-114	3426
4557335	-6552	-63	3396
4557663	-6564	72	3390
4557991	-6695	104	3385
4558319	-6550	-6	3364
4558647	-6544	-231	3338
4558975	-6313	-432	3310
4559303	-6201	-462	3286
4559631	-6069	-330	3250
4559959	-5948	-231	3228
4560287	-5853	-164	3202
4560615	-5761	-88	3170
4560943	-5678	19	3147
4561271	-5649	147	3128
4561599	-5600	255	3078
4561927	-5437	220	3010
4562255	-5270	65	2958
4562583	-5179	26	2935
4562911	-5084	96	2894
4563239	-5039	266	2877
4563567	-4946	443	2863
4563895	-4778	544	2795
4564223	-4510	585	2738
4564551	-4776	643	2704
4564879	-4499	657	2646
4565207	-4427	780	2612
4565535	-4395	967	2585
4565863	-4351	1189	2559
4566191	-4342	1205	2518
4566519	-4329	1151	2462
4566847	-4384	1229	2426
4567175	-4328	1442	2392
4567503	-4228	1590	2343
4567831	-4004	1658	2331
4568159	-3770	1822	2314
4568487	-3635	2102	2341
4568815	-3494	2425	2337
4569143	-3377	2574	2334
4569471	-3314	2500	2296
4569799	-3309	2265	2229
4570127	-3256	1849	2144
4570455	-3207	1295	2053
4570783	-3019	849	1973
4571111	-2853	711	1944
4571439	-2687	962	1927
4571767	-2548	1402	1904
4572095	-2410	1675	1878
4572423	-2447	1610	1826
4572751	-2479	1326	1787
4573079	-2564	1099	1734
4573407	-2644	1052	1675
4573735	-2673	1078	1621
4574063	-2639	904	1596
4574391	-2603	496	1596
4574719	-2531	38	1571
4575047	-2469	-224	1546
4575375	-2455	-159	1510
4575703	-2442	95	1479
4576031	-2398	337	1440
4576359	-2383	440	1379
4576687	-2355	406	1345
4577015	-2351	273	1312
4577343	-2356	253	1275
4577671	-2365	323	1235
4577999	-2312	403	1188
4578327	-2313	364	1137
4578655	-2172	94	1068
4578983	-1702	-372	1025
4579311	-1750	-602	994
4579639	-1821	-376	975
4579967	-1741	-61	893
4580295	-1581	-66	784
4580623	-1584	-306	687
4580951	-1535	-557	647
4581279	-1421	-439	605
4581607	-1494	-69	590
4581935	-1450	199	524
4582263	-1315	172	453
4582591	-1110	-23	388
4582919	-979	-185	357
4583247	-891	-330	335
4583575	-820	-323	309
4583903	-797	-253	273
4584231	-751	-171	231
4584559	-762	-74	188
4584887	-793	-15	146
4585215	-730	-31	130
4585543	-712	1	93
4585871	-576	-18	55
4586199	-394	-259	82
4586527	-279	-627	73
4586855	-261	-868	80
4587183	-220	-701	99
4587511	-231	-284	109
4587839	-67	-2	114
4588167	108	-77	79
4588495	-84	-449	83
4588823	42	-803	97
4589151	140	-892	85
4589479	60	-799	65
4589807	117	-526	68
4590135	159	-281	41
4590463	140	-172	49
4590791	112	-275	27
4591119	131	-587	2
4591447	228	-1136	-9
4591775	349	-1563	-48
4592103	236	-1496	-85
4592431	146	-917	-150
4592759	110	-214	-223
4593087	104	188	-289
4593415	124	121	-331
4593743	92	-247	-351
4594071	62	-576	-337
4594399	46	-686	-328
4594727	115	-587	-298
4595055	203	-497	-299
4595383	286	-516	-269
4595711	323	-526	-254
4596039	294	-410	-255
4596367	229	-246	-242
4596695	115	-104	-256
4597023	48	-63	-262
4597351	-15	-107	-279
4597679	-20	-130	-290
4598007	-45	-127	-293
4598335	-59	-112	-280
4598663	-73	-129	-263
4598991	-57	-158	-261
4599319	-49	-193	-244
4599647	-25	-209	-239
4599975	-37	-211	-217
4600303	-54	-111	-207
4600631	-67	21	-191
4600959	-66	76	-177
4601287	-39	28	-183
4601615	-19	-66	-174
4601943	-30	-119	-176
4602271	-37	-91	-161
4602599	-68	13	-160
4602927	-119	95	-157
4603255	-225	143	-201
4603583	-44	12	-210
4603911	135	-142	-254
4604239	-110	-107	-194
4604567	-71	11	-204
4604895	-47	106	-241
4605223	-43	85	-289
4605551	21	-58	-305
4605879	178	-110	-322
4606207	120	-78	-317
4606535	68	31	-318
4606863	4	120	-311
4607191	1	91	-336
4607519	17	62	-343
4607847	3	32	-348
4608175	-8	21	-339
4608503	-14	19	-341
4608831	17	30	-361
4609159	-9	45	-335
4609487	-4	59	-329
4609815	-39	53	-303
4610143	-27	33	-297
4610471	-37	-4	-287
4610799	-52	-21	-267
4611127	-69	-95	-249
4611455	-57	-165	-242
4611783	-68	-212	-233
4612111	-80	-193	-206
4612439	-77	-195	-177
4612767	125	-255	-166
4613095	20	-301	-154
4613423	-120	-360	-111
4613751	-3	-322	-106
4614079	-48	-247	-92
4614407	-8	-138	-102
4614735	40	34	-116
4615063	19	136	-98
4615391	25	159	-114
4615719	5	121	-96
4616047	4	50	-85
4616375	-45	1	-90
4616703	-76	27	-97
4617031	-129	90	-94
4617359	-157	109	-95
4617687	-156	73	-100
4618015	-172	33	-101
4618343	-178	7	-95
4618671	-181	9	-83
4618999	-148	37	-87
4619327	-129	49	-69
4619655	-93	78	-73
4619983	-101	65	-69
4620311	-137	16	-42
4620639	-138	16	-35
4620967	-171	-8	-35
4621295	-161	-28	-24
4621623	-169	-10	-15
4621951	-173	19	-5
4622279	-179	21	14
4622607	-185	-34	9
4622935	-209	-97	12
4623263	-199	-92	37
4623591	-201	-38	30
4623919	-190	33	39
4624247	-174	31	54
4624575	-174	-19	43
4624903	-176	-18	59
4625231	-184	-13	53
4625559	-212	23	56
4625887	-207	44	68
4626215	-202	1	75
4626543	-189	-8	61
4626871	-225	-3	82
4627199	-233	9	81
4627527	-333	0	78
4627855	-510	-25	83
4628183	-262	-220	56
4628511	-109	-397	45
4628839	-323	-316	73
4629167	-367	-125	80
4629495	-347	-79	66
4629823	-257	-112	53
4630151	-190	-208	46
4630479	-114	-215	45
4630807	-112	-105	49
4631135	-183	48	45
4631463	-227	80	52
4631791	-181	-31	45
4632119	-184	-180	40
4632447	-169	-265	67
4632775	-167	-272	87
4633103	-178	-197	79
4633431	-184	-144	87
4633759	-167	-119	73
4634087	-155	-99	64
4634415	-140	-87	68
4634743	-135	-55	66
4635071	-101	-64	46
4635399	-89	-88	63
4635727	-121	-131	72
4636055	-131	-151	60
4636383	-128	-107	65
4636711	-161	-57	77
4637039	-81	-122	84
4637367	55	-182	72
4637695	-266	-160	87
4638023	-182	-179	80
4638351	0	-194	72
4638679	-27	-66	43
4639007	21	125	30
4639335	-17	211	20
4639663	-26	120	25
4639991	-22	69	18
4640319	-24	94	-5
4640647	-31	119	-2
4640975	-62	148	-26
4641303	-79	132	-25
4641631	-88	125	-29
4641959	-64	148	-34
4642287	-27	190	-58
4642615	35	248	-74
4642943	69	301	-90
4643271	144	332	-116
4643599	200	338	-139
4643927	220	303	-158
4644255	230	298	-150
4644583	239	272	-153
4644911	245	267	-150
4645239	237	227	-132
4645567	286	195	-125
4645895	304	177	-127
4646223	300	215	-123
4646551	309	227	-131
4646879	343	214	-146
4647207	369	196	-143
4647535	443	193	-162
4647863	516	219	-191
4648191	543	251	-182
4648519	536	280	-182
4648847	568	250	-218
4649175	634	256	-228
4649503	688	275	-238
4649831	739	321	-249
4650159	784	332	-271
4650487	828	328	-280
4650815	873	338	-303
4651143	909	392	-304
4651471	894	485	-339
4651799	823	530	-363
4652127	1211	369	-417
4652455	1347	153	-431
4652783	1252	412	-454
4653111	1136	579	-435
4653439	1173	264	-472
4653767	1385	175	-517
4654095	1323	286	-537
4654423	1541	311	-564
4654751	1541	327	-593
4655079	1468	333	-623
4655407	1511	284	-633
4655735	1459	101	-648
4656063	1498	-103	-665
4656391	1570	-147	-695
4656719	1608	-12	-714
4657047	1641	99	-710
4657375	1679	126	-750
4657703	1750	197	-780
4658031	1768	279	-817
4658359	1839	398	-867
4658687	1858	457	-866
4659015	1895	443	-883
4659343	1924	328	-911
4659671	1883	246	-905
4659999	1848	245	-943
4660327	1775	270	-949
4660655	1754	332	-987
4660983	1950	192	-996
4661311	2140	168	-1060
4661639	1786	283	-1060
4661967	1985	245	-1095
4662295	2130	260	-1137
4662623	2247	379	-1179
4662951	2321	694	-1222
4663279	2238	806	-1244
4663607	2259	671	-1282
4663935	2358	561	-1315
4664263	2440	605	-1331
4664591	2437	677	-1356
4664919	2515	619	-1393
4665247	2600	549	-1418
4665575	2697	516	-1438
4665903	2808	560	-1464
4666231	2919	629	-1467
4666559	2988	652	-1490
4666887	3068	593	-1538
4667215	3213	619	-1576
4667543	3387	698	-1609
4667871	3563	667	-1637
4668199	3752	592	-1671
4668527	3923	504	-1717
4668855	4083	366	-1739
4669183	4211	269	-1777
4669511	4320	310	-1827
4669839	4422	400	-1864
4670167	4518	473	-1912
4670495	4567	501	-1962
4670823	4657	530	-2022
4671151	4762	632	-2074
4671479	4900	704	-2121
4671807	5073	764	-2191
4672135	5263	744	-2241
4672463	5453	645	-2295
4672791	5558	499	-2339
4673119	5695	450	-2393
4673447	5810	499	-2435
4673775	5947	571	-2474
4674103	6081	578	-2502
4674431	6149	570	-2531
4674759	6182	651	-2582
4675087	6194	853	-2646
4675415	6353	973	-2690
4675743	6770	797	-2755
4676071	6797	736	-2838
4676399	6866	918	-2886
4676727	7027	1049	-2993
4677055	7322	952	-3092
4677383	7407	622	-3189
4677711	7505	432	-3283
4678039	7632	655	-3349
4678367	7695	1009	-3416
4678695	7777	1060	-3501
4679023	7864	721	-3555
4679351	7988	300	-3619
4679679	8125	106	-3659
4680007	8243	211	-3712
4680335	8315	436	-3749
4680663	8352	641	-3786
4680991	8417	668	-3805
4681319	8494	614	-3810
4681647	8480	638	-3775
4681975	8419	769	-3725
4682303	8440	728	-3690
4682631	8423	471	-3621
4682959	8335	255	-3562
4683287	8213	261	-3566
4683615	8137	443	-3612
4683943	8041	801	-3652
4684271	8086	1230	-3654
4684599	8397	1363	-3624
4684927	8286	1203	-3575
4685255	7864	816	-3461
4685583	7875	376	-3362
4685911	7390	51	-3293
4686239	6993	260	-3298
4686567	7091	1024	-3331
4686895	7355	1694	-3340
4687223	7625	1864	-3315
4687551	7660	1578	-3259
4687879	7526	1101	-3182
4688207	7379	713	-3136
4688535	7194	631	-3156
4688863	7133	712	-3177
4689191	7244	714	-3196
4689519	7412	525	-3215
4689847	7483	387	-3193
4690175	7492	459	-3173
4690503	7570	644	-3161
4690831	7554	589	-3158
4691159	7413	310	-3200
4691487	7226	89	-3251
4691815	6964	78	-3290
4692143	6686	198	-3268
4692471	6565	200	-3273
4692799	6614	76	-3288
4693127	6740	-71	-3311
4693455	7005	-156	-3317
4693783	7205	-93	-3306
4694111	7072	13	-3248
4694439	6974	-114	-3226
4694767	6866	-230	-3229
4695095	6797	-281	-3249
4695423	6766	-342	-3260
4695751	6829	-354	-3278
4696079	6890	-248	-3288
4696407	6944	-176	-3296
4696735	7053	-250	-3298
4697063	7048	-352	-3299
4697391	7006	-423	-3309
4697719	6988	-377	-3301
4698047	6833	-216	-3252
4698375	6615	-96	-3221
4698703	6418	-97	-3198
4699031	6186	-205	-3210
4699359	5939	-410	-3169
4699687	6186	-661	-3132
4700015	6221	-636	-3129
4700343	5950	-361	-3017
4700671	5868	-131	-2998
4700999	5937	-179	-2966
4701327	5877	-463	-2949
4701655	5721	-860	-2901
4701983	5731	-926	-2838
4702311	5571	-630	-2791
4702639	5405	-383	-2742
4702967	5211	-330	-2690
4703295	5156	-489	-2649
4703623	5093	-669	-2590
4703951	4865	-700	-2512
4704279	4614	-567	-2420
4704607	4423	-472	-2364
4704935	4297	-598	-2310
4705263	4124	-830	-2235
4705591	3824	-939	-2128
4705919	3621	-794	-2036
4706247	3358	-436	-1932
4706575	3216	-214	-1832
4706903	3235	-365	-1736
4707231	3161	-662	-1642
4707559	3030	-819	-1535
4707887	2936	-673	-1396
4708215	2751	-401	-1288
4708543	2764	-305	-1218
4708871	2576	-323	-1182
4709199	2382	-501	-1133
4709527	2529	-403	-1080
4709855	2425	-133	-967
4710183	2340	-78	-845
4710511	2075	-172	-736
4710839	1816	-329	-649
4711167	1658	-307	-574
4711495	1429	-256	-463
4711823	1376	-155	-390
4712151	1300	-87	-336
4712479	1243	-105	-281
4712807	1161	-59	-210
4713135	1063	-63	-169
4713463	1075	-84	-148
4713791	1021	-83	-135
4714119	1014	-145	-88
4714447	1027	-190	-52
4714775	930	-131	-35
4715103	824	-185	-5
4715431	784	-250	43
4715759	727	-248	105
4716087	658	-280	154
4716415	705	-301	180
4716743	785	-146	244
4717071	742	198	315
4717399	711	712	360
4717727	705	779	327
4718055	438	246	127
4718383	-169	-535	-50
4718711	-142	-1274	1
4719039	265	-1169	297
4719367	473	59	478
4719695	1088	1230	543
4720023	1710	1370	459
4720351	1840	757	388
4720679	1517	70	388
4721007	969	-285	444
4721335	583	-206	532
4721663	409	34	499
4721991	475	190	399
4722319	683	225	271
4722647	915	292	191
4722975	983	506	143
4723303	1043	688	102
4723631	955	761	86
4723959	695	640	91
4724287	873	540	40
4724615	905	583	36
4724943	353	610	123
4725271	159	563	90
4725599	205	504	97
4725927	361	542	132
4726255	348	793	160
4726583	431	1074	192
4726911	523	1337	200
4727239	442	1348	186
4727567	508	1203	175
4727895	445	969	172
4728223	415	771	141
4728551	449	723	114
4728879	434	741	82
4729207	488	684	51
4729535	535	537	53
4729863	534	413	59
4730191	492	459	82
4730519	495	668	67
4730847	494	783	47
4731175	518	639	43
4731503	531	383	51
4731831	480	257	71
4732159	514	406	62
4732487	531	709	17
4732815	478	930	19
4733143	695	953	-16
4733471	751	780	-64
4733799	612	622	-104
4734127	896	713	-111
4734455	933	858	-166
4734783	1152	1015	-220
4735111	1192	1161	-291
4735439	1226	1194	-367
4735767	1275	1197	-432
4736095	1253	1151	-490
4736423	1314	1051	-502
4736751	1342	1035	-528
4737079	1431	1137	-585
4737407	1610	1233	-631
4737735	1761	1092	-650
4738063	1859	808	-634
4738391	1957	670	-609
4738719	2041	762	-611
4739047	2025	861	-613
4739375	1953	719	-644
4739703	1881	437	-640
4740031	1737	209	-609
4740359	1671	167	-588
4740687	1641	316	-594
4741015	1687	500	-580
4741343	1718	555	-558
4741671	1753	533	-526
4741999	1751	488	-509
4742327	1728	498	-514
4742655	1721	576	-499
4742983	1724	643	-525
4743311	1724	654	-536
4743639	1740	613	-524
4743967	1746	574	-513
4744295	1782	579	-494
4744623	1752	661	-491
4744951	1729	757	-498
4745279	1686	778	-492
4745607	1648	705	-491
4745935	1591	592	-474
4746263	1499	522	-471
4746591	1395	573	-447
4746919	1284	656	-425
4747247	1115	669	-379
4747575	956	619	-348
4747903	758	491	-315
4748231	856	319	-267
4748559	804	129	-227
4748887	588	23	-189
4749215	462	-116	-133
4749543	476	-242	-124
4749871	536	-219	-95
4750199	572	-173	-85
4750527	606	-97	-39
4750855	559	5	-17
4751183	386	68	19
4751511	237	95	40
4751839	105	107	59
4752167	41	106	73
4752495	17	34	103
4752823	-6	-29	127
4753151	79	23	155
4753479	107	132	176
4753807	88	163	183
4754135	75	43	190
4754463	-31	-102	172
4754791	-147	-212	165
4755119	-244	-257	150
4755447	-269	-250	115
4755775	-287	-255	85
4756103	-220	-288	55
4756431	-197	-288	-22
4756759	-113	-417	-53
4757087	13	-662	-72
4757415	71	-854	-108
4757743	-280	-875	-150
4758071	-270	-879	-166
4758399	-285	-943	-206
4758727	-406	-1114	-193
4759055	-459	-1123	-199
4759383	-519	-911	-190
4759711	-525	-731	-142
4760039	-414	-728	-133
4760367	-374	-867	-163
4760695	-303	-950	-171
4761023	-246	-780	-176
4761351	-237	-362	-163
4761679	-210	-17	-167
4762007	-207	-32	-154
4762335	-215	-289	-160
4762663	-205	-542	-177
4762991	-209	-711	-200
4763319	-211	-825	-208
4763647	-204	-863	-214
4763975	-177	-816	-202
4764303	-144	-780	-170
4764631	-139	-843	-160
4764959	-125	-995	-146
4765287	-155	-1034	-138
4765615	-146	-915	-134
4765943	-180	-790	-116
4766271	-123	-732	-102
4766599	-73	-750	-74
4766927	-44	-737	-64
4767255	-8	-639	-33
4767583	53	-467	-36
4767911	10	-272	-22
4768239	0	-190	-8
4768567	-39	-184	-3
4768895	-39	-232	2
4769223	-52	-258	12
4769551	-71	-212	14
4769879	-106	-115	26
4770207	-88	-27	38
4770535	-96	-13	67
4770863	-116	1	84
4771191	-112	12	118
4771519	-198	44	134
4771847	-334	39	160
4772175	9	-100	121
4772503	174	-134	153
4772831	-40	95	160
4773159	-163	250	183
4773487	-174	123	192
4773815	18	137	136
4774143	-16	144	152
4774471	29	163	171
4774799	34	252	168
4775127	-7	270	181
4775455	1	211	197
4775783	-1	106	186
4776111	20	38	184
4776439	55	10	198
4776767	35	56	195
4777095	5	53	204
4777423	-9	32	199
4777751	-20	6	201
4778079	-14	-34	225
4778407	17	-32	219
4778735	29	-4	223
4779063	67	6	233
4779391	78	-37	237
4779719	37	-68	261
4780047	66	-117	247
4780375	-2	-38	263
4780703	-22	-12	315
4781031	72	-68	286
4781359	146	-99	291
4781687	-238	-40	314
4782015	-142	-97	308
4782343	-18	-251	323
4782671	73	-233	272
4782999	97	137	233
4783327	22	312	215
4783655	73	253	204
4783983	65	213	206
4784311	25	261	196
4784639	3	292	185
4784967	-26	306	167
4785295	-67	264	163
4785623	-54	267	141
4785951	-42	290	122
4786279	-11	275	109
4786607	26	269	99
4786935	22	295	91
4787263	25	324	77
4787591	33	327	65
4787919	64	324	55
4788247	27	328	56
4788575	15	320	48
4788903	-17	311	23
4789231	-11	287	37
4789559	-19	281	26
4789887	-11	264	11
4790215	-2	249	14
4790543	17	250	7
4790871	6	230	4
4791199	-20	209	-13
4791527	-25	162	-8
4791855	-14	127	-15
4792183	-28	112	-23
4792511	-60	119	-17
4792839	-71	104	-3
4793167	-90	108	-5
4793495	-91	153	6
4793823	-144	250	3
4794151	-319	230	-8
4794479	-166	89	-33
4794807	67	-83	-34
4795135	47	175	-57
4795463	-179	425	-14
4795791	-233	185	-51
4796119	-81	73	-84
4796447	-123	257	-81
4796775	-46	274	-86
4797103	-38	271	-98
4797431	-127	269	-96
4797759	-146	303	-100
4798087	-204	231	-88
4798415	-135	53	-96
4798743	-93	-14	-110
4799071	-89	56	-100
4799399	-83	145	-98
4799727	-83	194	-116
4800055	-122	237	-129
4800383	-126	221	-123
4800711	-143	262	-145
4801039	-111	288	-133
4801367	-120	310	-125
4801695	-95	306	-135
4802023	-79	274	-123
4802351	-69	273	-125
4802679	-71	252	-130
4803007	-95	308	-102
4803335	-38	296	-112
4803663	199	260	-127
4803991	-104	346	-103
4804319	-171	222	-94
4804647	-51	75	-71
4804975	3	24	-80
4805303	47	298	-99
4805631	37	467	-123
4805959	48	400	-111
4806287	35	304	-109
4806615	27	319	-87
4806943	-14	385	-111
4807271	-59	428	-109
4807599	-74	432	-104
4807927	-117	380	-95
4808255	-122	371	-94
4808583	-154	370	-104
4808911	-163	366	-85
4809239	-180	403	-76
4809567	-153	398	-94
4809895	-140	361	-84
4810223	-123	342	-61
4810551	-88	376	-60
4810879	-106	415	-60
4811207	-93	438	-62
4811535	-64	427	-63
4811863	-79	398	-71
4812191	-111	365	-56
4812519	-146	324	-52
4812847	-146	308	-60
4813175	-150	285	-41
4813503	-135	278	-32
4813831	-144	299	-50
4814159	-96	360	-68
4814487	-83	377	-54
4814815	-93	362	-69
4815143	-54	310	-75
4815471	-44	276	-68
4815799	-100	283	-75
4816127	-155	394	-70
4816455	-228	476	-115
4816783	-360	469	-134
4817111	-132	278	-158
4817439	-45	106	-192
4817767	-144	220	-175
4818095	-155	472	-199
4818423	-232	561	-255
4818751	-212	552	-313
4819079	-71	468	-367
4819407	126	434	-405
4819735	180	492	-398
4820063	196	647	-407
4820391	215	760	-424
4820719	272	693	-437
4821047	327	530	-466
4821375	375	428	-451
4821703	378	396	-453
4822031	378	478	-475
4822359	373	548	-500
4822687	371	550	-502
4823015	399	467	-525
4823343	457	417	-540
4823671	489	500	-553
4823999	521	566	-567
4824327	561	562	-559
4824655	599	512	-579
4824983	634	447	-581
4825311	645	474	-606
4825639	654	555	-605
4825967	745	551	-614
4826295	910	490	-632
4826623	707	396	-632
4826951	829	368	-618
4827279	814	429	-634
4827607	827	410	-641
4827935	1001	462	-666
4828263	1066	547	-667
4828591	1120	588	-678
4828919	1203	641	-693
4829247	1220	619	-716
4829575	1264	569	-723
4829903	1316	518	-751
4830231	1354	526	-774
4830559	1350	602	-803
4830887	1424	751	-816
4831215	1430	809	-830
4831543	1388	803	-827
4831871	1406	834	-833
4832199	1463	895	-853
4832527	1574	979	-871
4832855	1692	1055	-891
4833183	1824	1098	-912
4833511	1943	1083	-935
4833839	2048	1091	-947
4834167	2100	1088	-982
4834495	2156	1110	-1024
4834823	2164	1113	-1068
4835151	2118	1061	-1081
4835479	2182	1014	-1140
4835807	2232	954	-1167
4836135	2273	911	-1177
4836463	2295	893	-1185
4836791	2419	856	-1219
4837119	2557	811	-1251
4837447	2654	816	-1258
4837775	2729	930	-1272
4838103	2764	1068	-1283
4838431	2751	1095	-1282
4838759	2788	997	-1287
4839087	2804	839	-1300
4839415	2865	694	-1314
4839743	2902	666	-1317
4840071	2933	714	-1339
4840399	2910	771	-1371
4840727	2927	639	-1381
4841055	3305	384	-1408
4841383	3357	319	-1409
4841711	3323	428	-1322
4842039	3531	559	-1341
4842367	3493	615	-1349
4842695	3511	598	-1356
4843023	3674	405	-1361
4843351	3880	266	-1355
4843679	3871	272	-1324
4844007	3896	362	-1274
4844335	3839	487	-1259
4844663	3866	518	-1270
4844991	3910	429	-1257
4845319	3888	251	-1222
4845647	3887	124	-1211
4845975	3932	152	-1172
4846303	3933	197	-1159
4846631	3949	193	-1166
4846959	3974	138	-1138
4847287	4074	80	-1133
4847615	4186	106	-1123
4847943	4271	146	-1095
4848271	4331	160	-1078
4848599	4296	138	-1048
4848927	4199	109	-1029
4849255	4029	111	-985
4849583	3786	142	-943
4849911	3879	28	-930
4850239	3755	-204	-968
4850567	3557	-485	-876
4850895	3675	-456	-830
4851223	3656	-333	-799
4851551	3700	-210	-761
4851879	3690	-148	-700
4852207	3584	-186	-626
4852535	3442	-183	-550
4852863	3345	-44	-511
4853191	3233	66	-429
4853519	3152	-135	-391
4853847	3101	-856	-368
4854175	3040	-1524	-399
4854503	3013	-1585	-496
4854831	3117	-921	-552
4855159	3211	65	-592
4855487	3366	603	-613
4855815	3367	388	-599
4856143	3219	-181	-632
4856471	3101	-517	-646
4856799	3098	-439	-672
4857127	3133	-63	-787
4857455	3129	-138	-818
4857783	3129	-277	-869
4858111	3114	-316	-908
4858439	3024	-135	-969
4858767	2966	129	-1001
4859095	2925	281	-1029
4859423	2804	301	-1044
4859751	2718	178	-1045
4860079	2644	108	-1045
4860407	2651	13	-1006
4860735	2723	-137	-996
4861063	2726	-304	-948
4861391	2740	-314	-943
4861719	2802	-185	-924
4862047	2850	-47	-924
4862375	2877	-40	-928
4862703	2887	-187	-925
4863031	2846	-381	-926
4863359	2858	-482	-942
4863687	2919	-409	-949
4864015	2970	-252	-981
4864343	3050	11	-998
4864671	3077	129	-998
4864999	2992	128	-1042
4865327	2934	-4	-1056
4865655	3215	-342	-1067
4865983	3293	-509	-1127
4866311	2939	-344	-1072
4866639	2834	-99	-1078
4866967	2871	-40	-1104
4867295	2855	-145	-1123
4867623	2985	-331	-1158
4867951	3156	-378	-1144
4868279	3102	-305	-1102
4868607	3004	-169	-1103
4868935	2918	-84	-1135
4869263	2969	-101	-1146
4869591	2963	-240	-1175
4869919	2977	-381	-1195
4870247	2888	-483	-1195
4870575	2822	-347	-1248
4870903	2719	-224	-1234
4871231	2705	-97	-1294
4871559	2675	77	-1301
4871887	2637	200	-1297
4872215	2586	125	-1276
4872543	2554	-30	-1282
4872871	2577	-172	-1293
4873199	2528	-204	-1276
4873527	2387	-251	-1286
4873855	2281	-340	-1245
4874183	2239	-440	-1239
4874511	2251	-384	-1237
4874839	1944	-304	-1176
4875167	2016	-340	-1158
4875495	2185	-390	-1164
4875823	2151	-352	-1154
4876151	2131	-236	-1158
4876479	2097	-202	-1142
4876807	2036	-286	-1134
4877135	2008	-405	-1129
4877463	2025	-605	-1133
4877791	2077	-827	-1153
4878119	2086	-990	-1158
4878447	1986	-948	-1185
4878775	2001	-866	-1188
4879103	2044	-901	-1200
4879431	2032	-946	-1220
4879759	1979	-948	-1238
4880087	1999	-862	-1265
4880415	1902	-763	-1293
4880743	1801	-721	-1255
4881071	1593	-669	-1231
4881399	1390	-567	-1223
4881727	1215	-537	-1172
4882055	1153	-543	-1172
4882383	1075	-445	-1145
4882711	1122	-370	-1128
4883039	1152	-385	-1117
4883367	1239	-444	-1115
4883695	1271	-572	-1019
4884023	1366	-572	-1041
4884351	1453	-533	-1038
4884679	1438	-451	-1002
4885007	1420	-338	-1022
4885335	1387	-182	-1045
4885663	1372	-99	-1049
4885991	1385	-106	-1052
4886319	1420	-140	-1042
4886647	1434	-173	-994
4886975	1397	-155	-1004
4887303	1473	-199	-991
4887631	1521	-254	-956
4887959	1430	-167	-931
4888287	1365	-95	-901
4888615	1124	-33	-866
4888943	1057	-129	-856
4889271	1375	-326	-892
4889599	1510	-317	-882
4889927	1295	175	-832
4890255	965	328	-768
4890583	914	-78	-784
4890911	1086	-211	-809
4891239	978	-240	-800
4891567	1063	-312	-805
4891895	875	-269	-743
4892223	653	-239	-689
4892551	490	-171	-662
4892879	335	-236	-610
4893207	330	-338	-581
4893535	362	-297	-541
4893863	385	-153	-520
4894191	406	-66	-503
4894519	321	-11	-445
4894847	315	-27	-440
4895175	232	-26	-404
4895503	180	-96	-374
4895831	87	-222	-313
4896159	-21	-358	-310
4896487	-202	-439	-275
4896815	-360	-441	-251
4897143	-410	-333	-262
4897471	-358	-136	-254
4897799	-83	-6	-272
4898127	27	334	-288
4898455	-195	522	-263
4898783	152	351	-299
4899111	200	341	-307
4899439	166	285	-263
4899767	220	234	-242
4900095	-13	159	-201
4900423	-253	-11	-141
4900751	-337	-170	-90
4901079	-438	-170	-37
4901407	-453	-154	-2
4901735	-417	-122	17
4902063	-361	-71	24
4902391	-273	-36	25
4902719	-203	19	45
4903047	-152	44	31
4903375	-166	116	56
4903703	-241	223	76
4904031	-317	271	111
4904359	-366	252	121
4904687	-394	245	136
4905015	-387	292	149
4905343	-370	339	157
4905671	-329	369	148
4905999	-280	342	160
4906327	-260	275	156
4906655	-278	251	149
4906983	-241	238	136
4907311	-217	290	111
4907639	-184	367	119
4907967	-206	391	103
4908295	-216	363	68
4908623	-157	274	83
4908951	-141	220	76
4909279	-131	220	81
4909607	-152	269	79
4909935	-200	295	78
4910263	-262	339	103
4910591	-276	325	112
4910919	-344	341	85
4911247	-519	386	101
4911575	-339	185	88
4911903	21	-84	49
4912231	93	228	30
4912559	-200	643	73
4912887	-256	464	63
4913215	-125	279	35
4913543	-147	417	16
4913871	-86	524	-5
4914199	-113	556	-15
4914527	-116	510	-15
4914855	-92	464	-2
4915183	-171	420	-8
4915511	-93	316	-17
4915839	-39	198	-18
4916167	-36	256	-31
4916495	-62	407	-25
4916823	-144	503	-31
4917151	-141	437	-27
4917479	-139	327	-36
4917807	-131	333	-30
4918135	-111	378	-51
4918463	-84	389	-52
4918791	-59	342	-59
4919119	-48	254	-57
4919447	-62	227	-75
4919775	-75	270	-59
4920103	-52	405	-54
4920431	96	441	-56
4920759	15	445	-59
4921087	-238	310	-58
4921415	-79	98	-23
4921743	-41	-49	-29
4922071	65	-95	-35
4922399	169	203	-77
4922727	105	356	-74
4923055	116	315	-80
4923383	107	248	-67
4923711	85	229	-70
4924039	49	309	-58
4924367	-12	407	-59
4924695	-69	439	-61
4925023	-132	412	-57
4925351	-109	356	-46
4925679	-62	314	-64
4926007	-35	308	-56
4926335	3	297	-67
4926663	25	298	-71
4926991	13	281	-61
4927319	19	251	-60
4927647	22	240	-47
4927975	35	261	-34
4928303	36	335	-46
4928631	44	409	-48
4928959	87	418	-34
4929287	58	401	-24
4929615	66	394	-7
4929943	49	358	-1
4930271	26	336	-9
4930599	25	289	2
4930927	13	262	0
4931255	24	231	-1
4931583	13	206	3
4931911	36	218	16
4932239	53	296	7
4932567	53	336	10
4932895	37	324	3
4933223	36	266	4
4933551	20	256	19
4933879	-45	273	26
4934207	-90	344	35
4934535	-242	389	14
4934863	-263	285	3
4935191	70	-26	-19
4935519	-31	-117	-10
4935847	-82	92	24
4936175	-115	313	22
4936503	-117	293	27
4936831	-113	184	-4
4937159	32	71	-30
4937487	59	129	-22
4937815	16	318	-4
4938143	-65	472	-6
4938471	-122	444	3
4938799	-66	293	-6
4939127	-52	154	-4
4939455	-73	97	19
4939783	-72	129	30
4940111	-117	202	24
4940439	-118	221	21
4940767	-118	209	25
4941095	-78	225	2
4941423	-75	244	2
4941751	-76	279	7
4942079	-76	266	14
4942407	-78	221	10
4942735	-87	208	11
4943063	-108	208	1
4943391	-129	246	7
4943719	-135	234	0
4944047	65	180	11
4944375	3	216	-29
4944703	-85	164	9
4945031	28	190	-4
4945359	-101	136	7
4945687	-19	124	-18
4946015	-40	206	-35
4946343	-50	208	-41
4946671	-37	200	-22
4946999	-38	184	-27
4947327	-80	164	-37
4947655	-86	170	-33
4947983	-122	181	-34
4948311	-135	175	-42
4948639	-165	151	-25
4948967	-183	150	-38
4949295	-180	140	-46
4949623	-170	154	-53
4949951	-167	171	-57
4950279	-127	166	-72
4950607	-107	178	-68
4950935	-62	199	-66
4951263	-58	196	-69
4951591	-61	180	-70
4951919	-88	138	-61
4952247	-86	88	-61
4952575	-98	82	-65
4952903	-99	90	-77
4953231	-109	122	-75
4953559	-117	125	-71
4953887	-109	93	-74
4954215	-122	67	-60
4954543	-129	60	-70
4954871	-138	62	-61
4955199	-157	64	-62
4955527	-144	-8	-46
4955855	-146	-77	-39
4956183	-113	-81	-44
4956511	-106	3	-45
4956839	-79	59	-42
4957167	-111	15	-44
4957495	-120	-108	-38
4957823	-101	-193	-32
4958151	-82	-165	-31
4958479	-120	-105	-24
4958807	-149	-72	10
4959135	-193	4	3
4959463	-324	55	-3
4959791	-378	19	-19
4960119	-68	-229	-21
4960447	-22	-274	-30
4960775	-166	-67	24
4961103	-150	149	11
4961431	-198	113	12
4961759	-205	-83	-11
4962087	-31	-233	-24
4962415	72	-151	-46
4962743	85	65	-38
4963071	13	224	-28
4963399	-66	133	-25
4963727	5	-99	-30
4964055	-14	-259	-21
4964383	69	-244	-36
4964711	153	-114	-53
4965039	183	62	-59
4965367	213	71	-76
4965695	321	-62	-109
4966023	391	-77	-144
4966351	478	156	-177
4966679	578	380	-229
4967007	634	472	-258
4967335	682	465	-289
4967663	867	347	-328
4967991	959	315	-391
4968319	889	370	-417
4968647	943	400	-444
4968975	1303	331	-518
4969303	1405	301	-581
4969631	1479	245	-631
4969959	1780	351	-702
4970287	1833	461	-750
4970615	1965	515	-833
4970943	2124	583	-907
4971271	2240	547	-985
4971599	2422	425	-1081
4971927	2537	314	-1128
4972255	2594	300	-1202
4972583	2630	394	-1262
4972911	2663	540	-1304
4973239	2727	692	-1341
4973567	2887	767	-1392
4973895	3074	792	-1446
4974223	3342	708	-1572
4974551	3594	633	-1662
4974879	3895	544	-1762
4975207	4167	399	-1847
4975535	4414	263	-1933
4975863	4596	228	-2032
4976191	4684	288	-2101
4976519	4739	452	-2196
4976847	4774	592	-2268
4977175	4822	653	-2302
4977503	4939	688	-2342
4977831	5070	696	-2364
4978159	5185	688	-2392
4978487	5286	723	-2435
4978815	5359	674	-2482
4979143	5422	506	-2523
4979471	5552	349	-2586
4979799	5606	312	-2651
4980127	5726	344	-2729
4980455	5678	429	-2802
4980783	5596	627	-2864
4981111	5378	821	-2875
4981439	5233	923	-2847
4981767	5059	939	-2840
4982095	4946	1052	-2827
4982423	4907	1157	-2827
4982751	4993	1169	-2839
4983079	5163	1082	-2832
4983407	5426	829	-2853
4983735	5783	492	-2897
4984063	5954	327	-2924
4984391	5930	329	-2899
4984719	5785	456	-2853
4985047	5587	570	-2785
4985375	5358	678	-2711
4985703	4956	771	-2647
4986031	4872	771	-2580
4986359	5222	443	-2543
4986687	5338	179	-2527
4987015	5065	211	-2442
4987343	5164	221	-2465
4987671	5397	75	-2469
4987999	5467	-37	-2478
4988327	5584	-106	-2488
4988655	5662	58	-2492
4988983	5460	356	-2458
4989311	5241	427	-2410
4989639	5100	226	-2361
4989967	4985	-89	-2338
4990295	5057	-311	-2311
4990623	5090	-402	-2274
4990951	5129	-394	-2251
4991279	5144	-403	-2238
4991607	5119	-470	-2205
4991935	5061	-481	-2181
4992263	5011	-363	-2111
4992591	4935	-228	-2047
4992919	4895	-199	-2001
4993247	4825	-218	-1947
4993575	4787	-288	-1913
4993903	4794	-351	-1897
4994231	4748	-318	-1846
4994559	4638	-281	-1809
4994887	4630	-309	-1791
4995215	4856	-446	-1793
4995543	4683	-341	-1771
4995871	4387	-329	-1706
4996199	4541	-364	-1688
4996527	4453	-440	-1679
4996855	4431	-284	-1645
4997183	4219	20	-1592
4997511	4016	79	-1522
4997839	3992	80	-1455
4998167	3821	108	-1379
4998495	3680	83	-1334
4998823	3605	-41	-1308
4999151	3449	-222	-1250
4999479	3256	-281	-1184
4999807	3098	-221	-1118
5000135	2957	-143	-1046
5000463	2893	-141	-996
5000791	2880	-123	-960
5001119	2854	-14	-922
5001447	2799	101	-873
5001775	2708	172	-804
5002103	2591	132	-723
5002431	2518	27	-680
5002759	2447	-79	-626
5003087	2346	-216	-578
5003415	2226	-245	-548
5003743	2067	-67	-544
5004071	1942	181	-577
5004399	1928	371	-593
5004727	2033	322	-603
5005055	2251	218	-637
5005383	2316	240	-662
5005711	2214	453	-646
5006039	1988	698	-593
5006367	1723	740	-538
5006695	1535	674	-497
5007023	1377	627	-449
5007351	1319	558	-453
5007679	1424	558	-458
5008007	1516	698	-462
5008335	1688	823	-447
5008663	1840	816	-421
5008991	1919	685	-423
5009319	1925	519	-414
5009647	1889	413	-412
5009975	1695	410	-456
5010303	1329	414	-451
5010631	1653	32	-549
5010959	1515	39	-586
5011287	1437	143	-576
5011615	1420	-43	-638
5011943	1572	-276	-665
5012271	1581	-258	-709
5012599	1586	-147	-722
5012927	1558	-87	-751
5013255	1420	-80	-741
5013583	1377	-40	-752
5013911	1283	42	-761
5014239	1253	-68	-779
5014567	1324	-250	-798
5014895	1376	-370	-833
5015223	1403	-415	-838
5015551	1408	-368	-871
5015879	1410	-243	-870
5016207	1420	-99	-857
5016535	1406	-35	-846
5016863	1338	-60	-794
5017191	1271	-27	-731
5017519	1205	62	-692
5017847	1118	183	-626
5018175	931	303	-590
5018503	931	378	-542
5018831	1077	310	-458
5019159	1292	59	-361
5019487	1666	-395	-245
5019815	1661	-853	-167
5020143	1714	-1448	-124
5020471	2024	-2190	-136
5020799	2015	-2639	-123
5021127	1682	-1918	-177
5021455	1116	-334	-259
5021783	737	715	-254
5022111	658	872	-369
5022439	612	623	-421
5022767	511	347	-399
5023095	433	160	-381
5023423	389	-9	-309
5023751	406	-253	-281
5024079	517	-510	-250
5024407	689	-667	-239
5024735	859	-651	-191
5025063	874	-420	-162
5025391	858	-149	-161
5025719	794	0	-154
5026047	676	44	-174
5026375	548	89	-192
5026703	443	139	-188
5027031	353	192	-207
5027359	281	248	-202
5027687	281	210	-180
5028015	273	170	-197
5028343	324	98	-166
5028671	354	113	-164
5028999	403	223	-153
5029327	423	339	-160
5029655	428	380	-165
5029983	465	359	-174
5030311	376	318	-181
5030639	310	340	-208
5030967	268	442	-208
5031295	198	489	-198
5031623	158	430	-204
5031951	145	354	-196
5032279	100	313	-199
5032607	85	310	-183
5032935	40	350	-184
5033263	31	340	-192
5033591	83	248	-191
5033919	75	133	-194
5034247	47	93	-164
5034575	-1	168	-148
5034903	-62	289	-139
5035231	-132	348	-125
5035559	-268	400	-161
5035887	-215	362	-164
5036215	55	187	-173
5036543	-118	109	-174
5036871	-264	235	-161
5037199	-279	316	-167
5037527	-195	269	-181
5037855	-179	269	-231
5038183	-96	269	-229
5038511	-21	406	-194
5038839	-125	609	-171
5039167	-225	801	-151
5039495	-222	844	-165
5039823	-218	691	-166
5040151	-194	495	-167
5040479	-187	367	-159
5040807	-185	385	-144
5041135	-187	451	-142
5041463	-225	526	-131
5041791	-239	500	-131
5042119	-245	422	-124
5042447	-229	407	-115
5042775	-239	432	-120
5043103	-250	444	-117
5043431	-233	444	-116
5043759	-245	416	-128
5044087	-264	361	-119
5044415	-283	306	-118
5044743	-299	255	-102
5045071	-222	197	-99
5045399	-81	174	-112
5045727	-375	198	-95
5046055	-244	213	-73
5046383	-210	175	-93
5046711	-277	145	-89
5047039	-230	241	-100
5047367	-309	323	-107
5047695	-312	321	-83
5048023	-285	312	-79
5048351	-272	263	-95
5048679	-266	205	-103
5049007	-285	231	-93
5049335	-323	284	-88
5049663	-351	312	-84
5049991	-367	299	-75
5050319	-376	236	-83
5050647	-342	205	-72
5050975	-321	225	-77
5051303	-289	313	-80
5051631	-280	328	-80
5051959	-258	307	-68
5052287	-219	263	-66
5052615	-204	262	-65
5052943	-196	292	-60
5053271	-193	309	-53
5053599	-210	299	-71
5053927	-204	264	-63
5054255	-198	237	-66
5054583	-208	261	-59
5054911	-177	290	-51
5055239	-178	307	-41
5055567	-178	286	-58
5055895	-165	263	-51
5056223	-188	285	-47
5056551	-194	280	-53
5056879	-187	271	-43
5057207	-170	291	-40
5057535	-162	292	-34
5057863	-148	273	-34
5058191	-128	257	-36
5058519	-106	243	-37
5058847	-119	212	-40
5059175	-137	207	-45
5059503	-125	171	-38
5059831	-117	162	-47
5060159	-102	160	-42
5060487	-109	171	-31
5060815	-131	185	-27
5061143	-158	225	-30
5061471	-281	250	-20
5061799	-232	167	-22
5062127	81	-7	-58
5062455	-128	-22	-14
5062783	-137	84	-6
5063111	-98	155	-26
5063439	-60	134	-22
5063767	-52	52	-63
5064095	47	-19	-50
5064423	94	40	-53
5064751	22	136	-35
5065079	-33	219	-19
5065407	-82	212	-20
5065735	-88	152	-23
5066063	-84	104	-15
5066391	-88	72	1
5066719	-79	98	12
5067047	-100	96	1
5067375	-90	51	-6
5067703	-99	30	-12
5068031	-101	16	3
5068359	-65	32	9
5068687	-25	16	16
5069015	-36	21	34
5069343	-24	41	24
5069671	-46	44	16
5069999	-60	44	30
5070327	-66	35	26
5070655	-93	-15	45
5070983	-42	-87	67
5071311	119	-169	40
5071639	-103	-186	64
5071967	-35	-230	81
5072295	-21	-246	60
5072623	-73	-292	64
5072951	-4	-267	54
5073279	-58	-213	52
5073607	-88	-159	61
5073935	-58	-146	62
5074263	-91	-165	67
5074591	-92	-162	51
5074919	-135	-142	55
5075247	-185	-111	74
5075575	-191	-76	69
5075903	-202	-80	76
5076231	-194	-79	73
5076559	-191	-61	61
5076887	-190	-9	69
5077215	-183	37	67
5077543	-165	0	70
5077871	-138	-83	75
5078199	-135	-131	63
5078527	-133	-165	54
5078855	-158	-161	80
5079183	-162	-136	80
5079511	-181	-126	86
5079839	-185	-182	90
5080167	-209	-264	108
5080495	-197	-267	99
5080823	-204	-230	94
5081151	-168	-199	93
5081479	-158	-196	92
5081807	-166	-148	97
5082135	-145	-70	100
5082463	-137	-45	96
5082791	-152	-28	88
5083119	-164	-40	91
5083447	-160	-75	93
5083775	-185	-133	98
5084103	-169	-151	109
5084431	-178	-136	112
5084759	-181	-119	109
5085087	-172	-118	97
5085415	-170	-82	109
5085743	-185	-44	88
5086071	-188	-53	94
5086399	-163	-111	95
5086727	-130	-201	105
5087055	-103	-235	114
5087383	-97	-186	96
5087711	-98	-146	107
5088039	-122	-81	109
5088367	-186	-42	137
5088695	-279	18	118
5089023	-355	-12	103
5089351	-17	-245	72
5089679	80	-283	53
5090007	-174	-8	71
5090335	-225	151	72
5090663	-137	21	48
5090991	-62	-134	46
5091319	-32	-112	12
5091647	55	19	11
5091975	46	140	28
5092303	6	138	24
5092631	-48	20	30
5092959	-67	-109	24
5093287	-48	-227	31
5093615	-4	-256	30
5093943	-1	-234	47
5094271	-38	-164	56
5094599	-45	-132	38
5094927	-23	-110	49
5095255	-36	-57	26
5095583	38	-50	25
5095911	60	-47	28
5096239	16	-57	40
5096567	-44	-50	78
5096895	-54	-55	77
5097223	-85	-44	92
5097551	-107	-6	91
5097879	-184	59	117
5098207	-184	-10	140
5098535	41	-64	132
5098863	-234	0	151
5099191	-298	-1	188
5099519	-118	-51	197
5099847	-182	-21	219
5100175	-245	210	233
5100503	-279	344	245
5100831	-304	274	265
5101159	-284	160	267
5101487	-355	175	303
5101815	-366	194	329
5102143	-321	190	321
5102471	-317	132	325
5102799	-323	112	341
5103127	-365	156	343
5103455	-386	207	352
5103783	-358	237	335
5104111	-353	248	336
5104439	-374	294	344
5104767	-359	306	328
5105095	-365	336	337
5105423	-389	347	331
5105751	-435	365	347
5106079	-508	323	357
5106407	-526	290	353
5106735	-543	342	373
5107063	-604	410	398
5107391	-665	440	424
5107719	-737	452	443
5108047	-799	477	495
5108375	-863	536	519
5108703	-935	566	559
5109031	-1003	636	612
5109359	-1112	689	655
5109687	-1240	755	683
5110015	-1292	755	733
5110343	-1285	734	762
5110671	-1306	760	804
5110999	-1430	803	854
5111327	-1538	879	913
5111655	-1686	930	953
5111983	-1803	905	988
5112311	-1901	892	1025
5112639	-1954	930	1060
5112967	-2038	955	1115
5113295	-2100	991	1166
5113623	-2236	1107	1245
5113951	-2403	1265	1321
5114279	-2751	1388	1396
5114607	-3104	1482	1469
5114935	-3041	1399	1527
5115263	-3071	1220	1647
5115591	-3345	1443	1693
5115919	-3742	1769	1810
5116247	-3870	1751	1846
5116575	-3743	1398	1901
5116903	-3789	1130	1921
5117231	-3869	1087	1964
5117559	-4030	1284	1974
5117887	-4278	1524	1952
5118215	-4460	1626	1938
5118543	-4606	1545	1919
5118871	-4712	1365	1923
5119199	-4670	1208	1914
5119527	-4584	1031	1897
5119855	-4544	877	1887
5120183	-4497	689	1878
5120511	-4448	522	1856
5120839	-4428	422	1816
5121167	-4433	271	1779
5121495	-4402	96	1762
5121823	-4385	-70	1711
5122151	-4496	-144	1667
5122479	-4525	-146	1616
5122807	-4610	-36	1571
5123135	-4637	28	1520
5123463	-4655	26	1460
5123791	-4622	-64	1419
5124119	-4363	-206	1365
5124447	-4521	-209	1325
5124775	-4767	-133	1290
5125103	-4552	-145	1247
5125431	-4517	-195	1231
5125759	-4495	-155	1210
5126087	-4510	69	1177
5126415	-4551	163	1201
5126743	-4613	104	1233
5127071	-4723	41	1269
5127399	-4857	-48	1311
5127727	-4956	22	1330
5128055	-5038	128	1358
5128383	-5047	238	1388
5128711	-5047	288	1442
5129039	-5013	277	1507
5129367	-4959	261	1574
5129695	-4880	288	1630
5130023	-4781	427	1634
5130351	-4647	493	1684
5130679	-4506	282	1732
5131007	-4478	8	1765
5131335	-4496	-52	1785
5131663	-4430	31	1800
5131991	-4341	78	1802
5132319	-4156	45	1794
5132647	-4042	-67	1781
5132975	-4051	-83	1776
5133303	-4061	38	1752
5133631	-3984	106	1667
5133959	-3884	-24	1569
5134287	-3906	-398	1548
5134615	-4066	-641	1559
5134943	-4383	-361	1641
5135271	-4645	313	1695
5135599	-4733	915	1762
5135927	-4743	970	1790
5136255	-4657	702	1789
5136583	-4591	315	1826
5136911	-4562	-15	1901
5137239	-4637	-230	2003
5137567	-4822	-321	2151
