Time Stamp	Low Noise Accelerometer X	Low Noise Accelerometer Y	Low Noise Accelerometer Z
RAW	RAW	RAW	RAW
no units	no units	no units	no units
16453866	2734	2017	2366
16454506	2734	2026	2362
16455146	2735	2022	2367
16455786	2737	2019	2367
16456426	2732	2020	2367
16457066	2728	2024	2360
16457706	2730	2023	2357
16458346	2733	2021	2366
16458986	2736	2019	2366
16459626	2729	2017	2366
16460266	2733	2019	2361
16460906	2729	2016	2368
16461546	2740	2020	2356
16462186	2722	2015	2398
16462826	2738	2023	2351
16463466	2730	2025	2359
16464106	2731	2023	2363
16464746	2737	2024	2369
16465386	2740	2019	2378
16466026	2733	2013	2370
16466666	2729	2015	2363
16467306	2728	2018	2360
16467946	2730	2017	2368
16468586	2731	2017	2370
16469226	2726	2016	2362
16469866	2731	2017	2360
16470506	2734	2021	2373
16471146	2737	2021	2367
16471786	2726	2021	2379
16472426	2732	2023	2349
16473066	2726	2019	2367
16473706	2737	2019	2369
16474346	2736	2014	2368
16474986	2735	2018	2368
16475626	2735	2015	2361
16476266	2736	2017	2363
16476906	2736	2015	2368
16477546	2735	2017	2365
16478186	2734	2021	2359
16478826	2733	2021	2358
16479466	2735	2021	2360
16480106	2734	2019	2362
16480746	2734	2014	2362
16481386	2735	2013	2361
16482026	2737	2019	2363
16482666	2741	2019	2364
16483306	2739	2017	2371
16483946	2738	2014	2368
16484586	2736	2011	2366
16485226	2734	2017	2371
16485866	2740	2016	2365
16486506	2748	2018	2367
16487146	2757	2020	2383
16487786	2759	2023	2395
16488426	2766	2019	2398
16489066	2770	2020	2405
16489706	2771	2026	2402
16490346	2747	2027	2404
16490986	2721	2030	2390
16491626	2734	2040	2320
16492266	2739	2037	2309
16492906	2723	2028	2331
16493546	2702	2052	2314
16494186	2744	2051	2259
16494826	2767	2036	2256
16495466	2720	2012	2286
16496106	2716	1991	2234
16496746	2771	1996	2191
16497386	2787	2022	2256
16498026	2790	2014	2302
16498666	2801	2005	2276
16499306	2809	2009	2261
16499946	2778	1996	2270
16500586	2748	1999	2243
16501226	2759	2005	2197
16501866	2759	2009	2211
16502506	2766	2001	2249
16503146	2774	1998	2250
16503786	2777	2011	2226
16504426	2785	2025	2205
16505066	2774	2024	2212
16505706	2768	2025	2224
16506346	2773	2027	2220
16506986	2779	2023	2218
16507626	2781	2017	2222
16508266	2782	2015	2215
16508906	2779	2016	2212
16509546	2774	2013	2213
16510186	2771	2014	2208
16510826	2786	2008	2215
16511466	2797	2010	2228
16512106	2809	2012	2233
16512746	2809	2023	2242
16513386	2803	2032	2239
16514026	2791	2033	2240
16514666	2777	2029	2240
16515306	2761	2020	2224
16515946	2748	2017	2211
16516586	2743	2023	2209
16517226	2756	2024	2207
16517866	2754	2018	2224
16518506	2783	2015	2212
16519146	2775	2021	2224
16519786	2789	2018	2214
16520426	2797	2015	2220
16521066	2800	2010	2229
16521706	2801	2011	2227
16522346	2787	2015	2235
16522986	2779	2018	2241
16523626	2777	2022	2237
16524266	2776	2020	2231
16524906	2778	2019	2232
16525546	2775	2021	2241
16526186	2765	2025	2247
16526826	2771	2016	2237
16527466	2775	2016	2239
16528106	2764	2023	2252
16528746	2763	2031	2240
16529386	2785	2017	2220
16530026	2778	2021	2251
16530666	2771	2021	2256
16531306	2779	2013	2240
16531946	2770	2014	2241
16532586	2769	2010	2243
16533226	2772	2015	2243
16533866	2773	2013	2252
16534506	2778	2013	2253
16535146	2785	2017	2250
16535786	2790	2015	2254
16536426	2784	2013	2264
16537066	2784	2018	2264
16537706	2783	2015	2250
16538346	2781	2014	2246
16538986	2779	2021	2257
16539626	2778	2016	2266
16540266	2773	2017	2258
16540906	2767	2013	2256
16541546	2776	2022	2252
16542186	2767	2013	2276
16542826	2772	2023	2261
16543466	2778	2014	2246
16544106	2777	2015	2260
16544746	2775	2012	2276
16545386	2774	2008	2275
16546026	2777	2000	2261
16546666	2773	2002	2259
16547306	2769	2006	2260
16547946	2770	2004	2260
16548586	2773	2007	2260
16549226	2773	2005	2256
16549866	2772	2007	2259
16550506	2772	2005	2262
16551146	2776	2005	2270
16551786	2767	2001	2272
16552426	2768	2016	2251
16553066	2778	2009	2235
16553706	2766	2000	2251
16554346	2771	1986	2251
16554986	2777	1979	2246
16555626	2766	2007	2244
16556266	2763	2007	2228
16556906	2756	2007	2212
16557546	2748	2005	2210
16558186	2754	1990	2216
16558826	2765	1970	2221
16559466	2774	1962	2234
16560106	2783	1946	2247
16560746	2789	1963	2258
16561386	2792	1966	2267
16562026	2793	1979	2274
16562666	2785	2000	2273
16563306	2787	1997	2268
16563946	2785	2013	2258
16564586	2785	2025	2247
16565226	2772	2020	2249
16565866	2776	2014	2249
16566506	2775	1998	2253
16567146	2783	1981	2244
16567786	2778	1963	2265
16568426	2789	1989	2218
16569066	2780	1990	2223
16569706	2781	1979	2236
16570346	2782	1975	2236
16570986	2798	1962	2237
16571626	2784	1961	2248
16572266	2778	1947	2245
16572906	2774	1942	2237
16573546	2775	1939	2245
16574186	2781	1954	2245
16574826	2783	1984	2242
16575466	2786	1994	2228
16576106	2779	2004	2232
16576746	2782	1997	2222
16577386	2773	2001	2215
16578026	2767	2001	2200
16578666	2765	1998	2203
16579306	2771	1983	2215
16579946	2775	1969	2226
16580586	2783	1932	2230
16581226	2780	1962	2226
16581866	2755	1991	2222
16582506	2764	1960	2209
16583146	2771	1971	2200
16583786	2772	1982	2223
16584426	2774	2006	2231
16585066	2778	2017	2231
16585706	2780	2002	2235
16586346	2792	1997	2236
16586986	2799	1997	2243
16587626	2801	2013	2246
16588266	2800	2019	2236
16588906	2782	2009	2234
16589546	2772	2006	2232
16590186	2781	2015	2225
16590826	2788	2005	2230
16591466	2772	1986	2226
16592106	2757	1984	2224
16592746	2745	1989	2227
16593386	2760	2025	2217
16594026	2772	2046	2267
16594666	2781	2046	2223
16595306	2773	2056	2233
16595946	2772	2066	2256
16596586	2787	2078	2254
16597226	2800	2070	2265
16597866	2786	2054	2262
16598506	2760	2085	2238
16599146	2734	2100	2228
16599786	2713	2088	2238
16600426	2707	2062	2261
16601066	2719	2059	2282
16601706	2726	2072	2284
16602346	2736	2073	2254
16602986	2740	2028	2278
16603626	2733	2016	2332
16604266	2742	2071	2322
16604906	2750	2089	2358
16605546	2766	2101	2319
16606186	2771	2140	2282
16606826	2688	2135	2475
16607466	2639	2041	2690
16608106	2801	2076	2466
16608746	2818	2117	2549
16609386	2674	2158	2677
16610026	2731	2139	2487
16610666	2742	2121	2611
16611306	2687	2075	2610
16611946	2681	2092	2645
16612586	2710	2112	2678
16613226	2704	2136	2710
16613866	2692	2138	2713
16614506	2700	2102	2730
16615146	2683	2060	2757
16615786	2644	2033	2786
16616426	2670	2026	2820
16617066	2796	1987	2779
16617706	2714	2036	2800
16618346	2510	2159	2880
16618986	2512	2190	2799
16619626	2543	2133	2657
16620266	2524	2142	2721
16620906	2547	2210	2854
16621546	2577	2077	2817
16622186	2630	2033	2736
16622826	2638	2055	2799
16623466	2609	2079	2903
16624106	2594	2068	2828
16624746	2609	2042	2682
16625386	2599	2043	2622
16626026	2591	2070	2616
16626666	2597	2142	2596
16627306	2589	2166	2599
16627946	2535	2166	2630
16628586	2474	2181	2604
16629226	2447	2195	2503
16629866	2444	2202	2408
16630506	2432	2214	2388
16631146	2418	2230	2379
16631786	2438	2199	2365
16632426	2466	2134	2335
16633066	2494	2103	2280
16633706	2552	2096	2245
16634346	2589	2129	2259
16634986	2610	2132	2288
16635626	2615	2131	2276
16636266	2592	2119	2242
16636906	2580	2099	2188
16637546	2597	2079	2134
16638186	2608	2064	2144
16638826	2614	2077	2182
16639466	2636	2076	2170
16640106	2650	2062	2150
16640746	2659	2041	2124
16641386	2668	2036	2102
16642026	2694	2026	2092
16642666	2726	2022	2079
16643306	2760	2022	2074
16643946	2774	2008	2066
16644586	2751	2029	2094
16645226	2763	2043	2049
16645866	2782	2048	2018
16646506	2831	2040	2021
16647146	2879	2010	2011
16647786	2949	1994	2007
16648426	2952	1956	2016
16649066	2937	2011	2069
16649706	2898	2028	2058
16650346	2858	2029	2064
16650986	2830	1985	2088
16651626	2781	1941	2134
16652266	2760	1924	2177
16652906	2736	1894	2150
16653546	2700	1875	2171
16654186	2686	1887	2162
16654826	2718	1906	2162
16655466	2763	1914	2186
16656106	2815	1918	2190
16656746	2863	1924	2142
16657386	2856	1957	2146
16658026	2824	1947	2153
16658666	2802	1929	2122
16659306	2779	1921	2101
16659946	2761	1914	2102
16660586	2751	1904	2098
16661226	2749	1881	2094
16661866	2758	1867	2093
16662506	2763	1867	2092
16663146	2776	1871	2076
16663786	2778	1872	2068
16664426	2778	1873	2069
16665066	2773	1870	2064
16665706	2774	1873	2060
16666346	2767	1883	2053
16666986	2767	1892	2039
16667626	2772	1891	2029
16668266	2783	1892	2029
16668906	2802	1880	2063
16669546	2819	1872	2035
16670186	2842	1874	1997
16670826	2841	1876	2016
16671466	2834	1862	2013
16672106	2811	1867	2026
16672746	2814	1866	2010
16673386	2821	1866	1998
16674026	2857	1885	2006
16674666	2832	1878	2017
16675306	2857	1922	2062
16675946	2892	1944	2019
16676586	2867	1992	2050
16677226	2843	2011	2065
16677866	2856	2024	2046
16678506	2826	2046	2040
16679146	2766	2091	2043
16679786	2704	2134	2064
16680426	2663	2210	2101
16681066	2698	2199	2039
16681706	2759	2133	2039
16682346	2854	2103	2080
16682986	2942	2072	2076
16683626	2926	2083	2114
16684266	2890	2013	2087
16684906	2698	2192	2068
16685546	2658	2067	2012
16686186	2666	2082	1998
16686826	2714	2048	2060
16687466	2805	2030	2048
16688106	2836	2067	2079
16688746	2801	2138	2094
16689386	2758	2123	2029
16690026	2787	2089	2032
16690666	2850	2047	2012
16691306	2878	2023	2032
16691946	2844	2010	2058
16692586	2780	2031	1976
16693226	2716	2051	2014
16693866	2727	2026	2022
16694506	2767	2022	2029
16695146	2795	2018	2024
16695786	2792	2022	1975
16696426	2794	2041	1996
16697066	2824	2060	2005
16697706	2854	2019	2024
16698346	2855	1988	2081
16698986	2860	1950	2053
16699626	2838	1960	2068
16700266	2803	1962	2031
16700906	2824	1954	2004
16701546	2779	1980	2038
16702186	2815	2007	2009
16702826	2846	1989	2011
16703466	2823	1995	2023
16704106	2849	1986	1990
16704746	2828	1976	2056
16705386	2762	1977	2007
16706026	2784	1961	1994
16706666	2786	1969	2024
16707306	2820	1998	2008
16707946	2790	2024	2014
16708586	2813	1977	2029
16709226	2815	2014	2024
16709866	2805	2003	2001
16710506	2849	2114	2014
16711146	2817	1927	2063
16711786	2851	1995	2011
16712426	2849	1986	1998
16713066	2794	1972	2002
16713706	2745	1980	1970
16714346	2759	1990	1977
16714986	2787	1943	1973
16715626	2844	1956	1959
16716266	2834	1968	1976
16716906	2783	1972	1967
16717546	2728	2023	2003
16718186	2726	2064	2057
16718826	2790	1975	2008
16719466	2797	1930	2042
16720106	2797	1966	2053
16720746	2840	2039	1988
16721386	2822	1983	2048
16722026	2808	1964	2013
16722666	2803	1948	1966
16723306	2783	1962	2011
16723946	2801	1988	2014
16724586	2825	2010	2002
16725226	2838	2054	2019
16725866	2833	2039	2056
16726506	2780	1954	2037
16727146	2796	1892	1988
16727786	2831	2006	2006
16728426	2811	2074	2076
16729066	2772	1955	2091
16729706	2798	2044	2001
16730346	2797	1947	2007
16730986	2789	1981	2046
16731626	2796	1966	2054
16732266	2806	1963	2038
16732906	2825	2016	2041
16733546	2812	2013	2080
16734186	2805	1990	2061
16734826	2790	1991	2041
16735466	2767	2017	2068
16736106	2774	2004	2066
16736746	2799	1996	2055
16737386	2811	2001	2071
16738026	2808	2018	2089
16738666	2802	2032	2093
16739306	2800	2020	2083
16739946	2800	2027	2080
16740586	2791	2034	2101
16741226	2796	2059	2115
16741866	2783	2082	2131
16742506	2756	2106	2166
16743146	2748	2118	2170
16743786	2749	2135	2168
16744426	2745	2161	2197
16745066	2778	2167	2207
16745706	2834	2171	2247
16746346	2893	2146	2234
16746986	2900	2129	2249
16747626	2863	2160	2296
16748266	2819	2199	2280
16748906	2785	2240	2248
16749546	2769	2265	2237
16750186	2773	2279	2226
16750826	2797	2306	2246
16751466	2810	2312	2279
16752106	2800	2308	2296
16752746	2764	2294	2306
16753386	2743	2275	2292
16754026	2734	2258	2291
16754666	2731	2230	2323
16755306	2757	2191	2330
16755946	2775	2144	2328
16756586	2748	2151	2366
16757226	2744	2112	2335
16757866	2716	2095	2322
16758506	2715	2070	2263
16759146	2720	2071	2241
16759786	2754	2089	2215
16760426	2772	2081	2200
16761066	2738	2101	2206
16761706	2711	2087	2212
16762346	2709	2054	2155
16762986	2734	2021	2111
16763626	2794	1977	2106
16764266	2854	1934	2123
16764906	2892	1888	2167
16765546	2911	1867	2192
16766186	2894	1842	2165
16766826	2838	1874	2123
16767466	2786	1927	2111
16768106	2753	1917	2122
16768746	2747	1838	2073
16769386	2727	1807	2090
16770026	2718	1808	2151
16770666	2763	1825	2117
16771306	2826	1856	2103
16771946	2881	1859	2103
16772586	2919	1858	2104
16773226	2928	1871	2113
16773866	2878	1875	2139
16774506	2813	1874	2118
16775146	2762	1860	2085
16775786	2713	1864	2089
16776426	2695	1892	2086
16777066	2687	1919	2120
490	2712	1918	2100
1130	2714	1897	2114
1770	2739	1897	2109
2410	2857	1913	2091
3050	2897	1970	2071
3690	2928	2055	2129
4330	2993	2073	2113
4970	2993	1996	2082
5610	2922	1942	2074
6250	2843	1945	2077
6890	2742	1968	2074
7530	2669	2004	2059
8170	2636	2025	2054
8810	2671	2018	2024
9450	2727	1989	2008
10090	2781	1996	2075
10730	2850	2021	2117
11370	2911	2027	2131
12010	2907	2016	2142
12650	2861	2018	2123
13290	2810	2024	2078
13930	2768	2022	2060
14570	2755	2024	2070
15210	2767	2016	2071
15850	2782	2005	2084
16490	2794	2004	2096
17130	2797	1997	2088
17770	2798	2001	2079
18410	2807	2008	2078
19050	2811	2011	2083
19690	2800	1989	2102
20330	2799	2015	2083
20970	2790	1996	2089
21610	2787	2000	2089
22250	2808	2010	2056
22890	2795	2003	2092
23530	2799	2003	2100
24170	2815	1998	2077
24810	2808	2007	2092
25450	2806	2012	2090
26090	2810	2010	2077
26730	2808	2017	2086
27370	2811	2013	2085
28010	2812	2008	2089
28650	2809	2006	2095
29290	2811	2003	2084
29930	2804	2007	2099
30570	2804	2008	2082
31210	2803	2004	2090
31850	2801	1993	2096
32490	2799	1994	2093
33130	2795	1990	2099
33770	2800	1986	2095
34410	2804	1989	2101
35050	2806	1992	2108
35690	2803	1989	2108
36330	2807	1996	2108
36970	2810	2007	2112
37610	2808	2013	2116
38250	2808	2007	2114
38890	2808	2009	2113
39530	2797	1995	2127
40170	2800	2022	2115
40810	2798	2013	2125
41450	2792	2001	2118
42090	2809	2009	2097
42730	2803	2005	2123
43370	2803	2012	2139
44010	2817	2000	2122
44650	2812	2006	2119
45290	2806	2013	2124
45930	2793	2014	2126
46570	2793	2003	2116
47210	2795	2016	2120
47850	2790	2018	2143
48490	2795	2021	2132
49130	2787	2034	2133
49770	2777	2049	2125
50410	2763	2055	2123
51050	2747	2049	2132
51690	2784	2033	2133
52330	2832	1990	2117
52970	2866	1978	2112
53610	2853	1984	2124
54250	2796	2013	2133
54890	2767	2007	2128
55530	2756	1994	2119
56170	2785	1995	2127
56810	2825	1987	2144
57450	2840	1974	2164
58090	2835	1968	2171
58730	2806	1959	2149
59370	2767	1983	2149
60010	2763	1973	2141
60650	2766	1959	2142
61290	2801	1954	2127
61930	2823	1946	2149
62570	2835	1946	2167
63210	2834	1946	2154
63850	2816	1964	2139
64490	2784	1972	2134
65130	2759	1970	2127
65770	2763	1975	2124
66410	2787	1974	2123
67050	2798	1964	2148
67690	2815	1969	2143
68330	2823	1981	2128
68970	2812	1991	2131
69610	2796	2006	2124
70250	2771	2003	2134
70890	2767	2011	2145
71530	2766	2020	2142
72170	2744	2029	2140
72810	2711	2050	2142
73450	2740	2036	2119
74090	2804	2001	2116
74730	2844	1969	2155
75370	2828	1955	2193
76010	2774	1954	2192
76650	2710	1938	2133
77290	2705	1901	2089
77930	2746	1884	2127
78570	2786	1883	2185
79210	2804	1869	2237
79850	2801	1867	2227
80490	2819	1857	2164
81130	2810	1838	2165
81770	2758	1792	2227
82410	2745	1720	2244
83050	2809	1663	2276
83690	2865	1706	2338
84330	2878	1766	2392
84970	2873	1794	2391
85610	2860	1775	2350
86250	2801	1722	2358
86890	2774	1737	2338
87530	2769	1774	2309
88170	2749	1832	2303
88810	2716	1865	2275
89450	2721	1845	2213
90090	2712	1820	2187
90730	2699	1808	2211
91370	2699	1782	2239
92010	2709	1768	2267
92650	2769	1788	2274
93290	2836	1841	2224
93930	2833	1863	2226
94570	2811	1853	2232
95210	2800	1853	2178
95850	2781	1863	2154
96490	2784	1893	2149
97130	2746	1886	2159
97770	2692	1872	2158
98410	2741	1877	2067
99050	2867	1873	1910
99690	2833	1854	1942
100330	2766	1863	2059
100970	2750	1839	2045
101610	2714	1882	1984
102250	2730	1917	2003
102890	2758	1959	2037
103530	2789	2008	2037
104170	2852	2041	2022
104810	2880	2057	2022
105450	2846	2095	2025
106090	2740	2092	2060
106730	2656	2060	2107
107370	2615	2066	2113
108010	2691	2104	2087
108650	2822	2170	2091
109290	2901	2206	2169
109930	2915	2205	2281
110570	2913	2191	2334
111210	2895	2166	2252
111850	2868	2147	2155
112490	2819	2154	2154
113130	2778	2177	2150
113770	2755	2166	2139
114410	2727	2142	2167
115050	2726	2128	2174
115690	2754	2115	2166
116330	2766	2111	2188
116970	2776	2087	2208
117610	2778	2078	2205
118250	2786	2065	2191
118890	2784	2073	2202
119530	2762	2076	2224
120170	2740	2066	2211
120810	2704	2052	2163
121450	2681	2049	2129
122090	2700	2019	2099
122730	2812	2030	2097
123370	2975	1975	2088
124010	3062	1938	2178
124650	3027	1940	2304
125290	2934	1985	2286
125930	2796	2024	2116
126570	2670	2011	2016
127210	2608	2004	2033
127850	2650	2001	2034
128490	2729	1993	2022
129130	2794	1975	2070
129770	2875	1978	2183
130410	2921	1979	2273
131050	2888	1985	2249
131690	2813	1992	2140
132330	2760	1989	2062
132970	2734	1985	2043
133610	2735	1991	2032
134250	2761	1997	2044
134890	2794	2010	2094
135530	2820	2002	2148
136170	2830	1997	2118
136810	2813	1997	2096
137450	2800	1997	2082
138090	2789	1986	2077
138730	2796	1989	2080
139370	2799	1988	2109
140010	2797	1990	2120
140650	2793	1989	2097
141290	2795	1987	2085
141930	2798	1979	2086
142570	2801	1984	2096
143210	2805	1969	2099
143850	2802	1977	2116
144490	2800	1979	2119
145130	2800	1976	2097
145770	2799	1978	2094
146410	2792	1984	2111
147050	2805	1989	2106
147690	2816	1991	2100
148330	2814	1991	2112
148970	2823	1987	2100
149610	2811	1973	2100
150250	2803	1979	2098
150890	2794	1978	2097
151530	2782	1986	2085
152170	2782	1979	2083
152810	2786	2032	2092
153450	2823	2062	2072
154090	2814	2084	2097
154730	2811	2116	2092
155370	2815	2123	2078
156010	2813	2129	2094
156650	2801	2122	2091
157290	2803	2130	2111
157930	2796	2142	2141
158570	2799	2151	2134
159210	2798	2170	2143
159850	2759	2162	2204
160490	2724	2166	2244
161130	2699	2158	2268
161770	2707	2144	2268
162410	2773	2141	2233
163050	2825	2108	2221
163690	2855	2109	2254
164330	2878	2117	2252
164970	2849	2134	2235
165610	2808	2187	2216
166250	2778	2204	2184
166890	2755	2199	2164
167530	2732	2186	2190
168170	2741	2161	2207
168810	2795	2145	2158
169450	2799	2147	2163
170090	2794	2147	2186
170730	2771	2174	2203
171370	2784	2141	2169
172010	2764	2091	2209
172650	2761	2042	2189
173290	2802	2002	2127
173930	2838	2009	2130
174570	2838	1956	2154
175210	2847	1929	2143
175850	2826	1924	2147
176490	2811	1905	2129
177130	2805	1919	2101
177770	2856	1882	2039
178410	2881	1857	2035
179050	2844	1808	2132
179690	2792	1801	2155
180330	2761	1799	2068
180970	2749	1801	2021
181610	2738	1794	2064
182250	2791	1774	2049
182890	2830	1767	2052
183530	2810	1786	2112
184170	2797	1796	2085
184810	2766	1809	2031
185450	2736	1817	2026
186090	2739	1833	2026
186730	2766	1829	2039
187370	2797	1821	2053
188010	2816	1808	2066
188650	2822	1847	2075
189290	2830	1859	2044
189930	2772	1859	2070
190570	2753	1874	2049
191210	2751	1884	2028
191850	2777	1911	2028
192490	2800	1905	2043
193130	2822	1903	2042
193770	2895	1932	2058
194410	2913	1953	1986
195050	2844	1979	2113
195690	2859	1994	2065
196330	2845	1964	1950
196970	2759	1980	2027
197610	2740	1969	2049
198250	2778	1985	1979
198890	2783	1998	2005
199530	2786	1999	2049
200170	2816	2000	2022
200810	2805	2016	2024
201450	2793	2021	2040
202090	2786	2027	2038
202730	2782	2023	2031
203370	2781	2025	2037
204010	2783	2031	2047
204650	2799	2030	2032
205290	2813	2014	2030
205930	2794	2002	2074
206570	2795	2027	2058
207210	2809	2002	2045
207850	2791	2017	2049
208490	2803	2027	2028
209130	2800	2022	2040
209770	2807	2020	2055
210410	2819	2018	2056
211050	2821	2026	2060
211690	2809	2033	2066
212330	2808	2035	2056
212970	2802	2034	2059
213610	2803	2029	2055
214250	2817	2020	2028
214890	2813	2040	2052
215530	2798	2057	2088
216170	2806	2046	2061
216810	2793	2046	2051
217450	2794	2042	2051
218090	2800	2036	2047
218730	2804	2024	2055
219370	2814	2027	2067
220010	2817	2018	2077
220650	2809	2002	2080
221290	2803	1994	2074
221930	2802	1994	2069
222570	2803	1997	2077
223210	2812	2003	2067
223850	2788	1994	2105
224490	2800	2012	2068
225130	2802	2004	2075
225770	2799	1995	2078
226410	2804	2010	2065
227050	2798	2010	2086
227690	2798	2015	2082
228330	2807	2004	2067
228970	2794	1993	2082
229610	2793	2008	2080
230250	2806	2028	2072
230890	2802	2040	2084
231530	2809	2043	2079
232170	2802	2034	2094
232810	2805	2035	2081
233450	2801	2048	2080
234090	2804	2076	2079
234730	2815	2078	2080
235370	2804	2077	2099
236010	2805	2084	2100
236650	2799	2095	2117
237290	2798	2106	2108
237930	2796	2099	2120
238570	2807	2094	2115
239210	2816	2081	2110
239850	2818	2092	2126
240490	2810	2096	2153
241130	2794	2104	2177
241770	2780	2105	2179
242410	2776	2098	2194
243050	2796	2121	2177
243690	2802	2112	2184
244330	2803	2122	2204
244970	2808	2139	2184
245610	2785	2118	2188
246250	2767	2122	2194
246890	2758	2118	2191
247530	2732	2102	2199
248170	2744	2043	2184
248810	2773	1988	2182
249450	2869	1973	2178
250090	2955	1920	2130
250730	2902	1890	2194
251370	2796	1858	2198
252010	2728	1832	2087
252650	2695	1814	2022
253290	2703	1864	2039
253930	2783	1910	2033
254570	2856	1915	2055
255210	2860	1918	2154
255850	2837	1918	2191
256490	2783	1935	2130
257130	2754	1927	2069
257770	2760	1936	2052
258410	2776	1952	2059
259050	2806	1940	2085
259690	2834	1923	2097
260330	2832	1931	2118
260970	2813	1937	2105
261610	2801	1942	2049
262250	2774	1953	2039
262890	2727	1930	2110
263530	2711	1906	2121
264170	2742	1875	2114
264810	2764	1866	2104
265450	2758	1865	2166
266090	2776	1839	2186
266730	2812	1820	2160
267370	2833	1796	2162
268010	2846	1800	2183
268650	2879	1800	2153
269290	2898	1821	2160
269930	2857	1878	2231
270570	2822	1888	2230
271210	2842	1893	2139
271850	2825	1886	2127
272490	2813	1899	2144
273130	2791	1909	2145
273770	2761	1919	2159
274410	2750	1911	2145
275050	2757	1932	2130
275690	2806	1991	2122
276330	2838	2068	2133
276970	2839	2145	2178
277610	2824	2187	2204
278250	2782	2165	2195
278890	2740	2148	2174
279530	2723	2141	2134
280170	2725	2138	2134
280810	2754	2113	2134
281450	2788	2076	2122
282090	2811	2073	2109
282730	2790	2093	2132
283370	2780	2111	2130
284010	2772	2112	2097
284650	2760	2132	2132
285290	2773	2143	2136
285930	2782	2136	2125
286570	2785	2110	2139
287210	2783	2108	2124
287850	2789	2104	2105
288490	2806	2092	2077
289130	2868	2088	2096
289770	2927	2035	2066
290410	2875	2023	2088
291050	2830	2056	2083
291690	2772	2068	2035
292330	2722	2054	1999
292970	2701	2045	1998
293610	2721	2024	2009
294250	2763	2001	2035
294890	2819	1992	2057
295530	2847	1983	2066
296170	2844	1985	2063
296810	2809	1994	2044
297450	2784	2002	2038
298090	2780	2005	2037
298730	2790	2003	2049
299370	2796	2008	2073
300010	2801	2013	2077
300650	2805	2015	2063
301290	2805	2019	2046
301930	2783	2002	2090
302570	2795	2026	2060
303210	2792	2018	2093
303850	2810	2002	2054
304490	2814	2018	2062
305130	2797	2022	2102
305770	2804	2028	2095
306410	2818	2016	2080
307050	2823	2016	2086
307690	2822	2011	2095
308330	2815	2006	2100
308970	2801	2011	2104
309610	2796	2011	2088
310250	2798	2009	2084
310890	2798	2004	2092
311530	2795	2010	2103
312170	2799	2003	2080
312810	2799	2006	2085
313450	2807	2004	2094
314090	2815	1995	2092
314730	2814	2003	2097
315370	2816	2009	2098
316010	2811	2007	2100
316650	2802	2000	2097
317290	2800	1994	2086
317930	2800	1988	2089
318570	2807	1988	2091
319210	2807	1983	2091
319850	2802	1983	2099
320490	2800	1985	2098
321130	2800	1988	2088
321770	2804	1988	2086
322410	2800	1981	2101
323050	2795	2026	2107
323690	2809	2009	2101
324330	2801	1996	2101
324970	2816	1996	2065
325610	2799	1990	2098
326250	2800	1997	2107
326890	2812	1983	2082
327530	2801	1982	2088
328170	2805	1987	2089
328810	2801	1982	2088
329450	2806	2001	2089
330090	2804	2014	2084
330730	2799	2019	2087
331370	2800	2008	2095
332010	2792	2008	2086
332650	2785	2008	2090
333290	2785	2007	2090
333930	2787	2005	2105
334570	2793	1991	2097
335210	2791	1990	2106
335850	2793	1988	2104
336490	2792	1989	2102
337130	2802	1991	2090
337770	2810	1992	2085
338410	2808	1999	2095
339050	2792	2004	2114
339690	2781	2020	2108
340330	2797	2052	2080
340970	2816	2084	2096
341610	2814	2110	2153
342250	2824	2103	2140
342890	2831	2095	2118
343530	2818	2121	2148
344170	2763	2148	2198
344810	2730	2169	2210
345450	2702	2188	2226
346090	2700	2211	2251
346730	2743	2204	2268
347370	2815	2177	2280
348010	2844	2104	2321
348650	2834	2119	2375
349290	2843	2118	2324
349930	2805	2107	2265
350570	2776	2118	2207
351210	2740	2123	2195
351850	2746	2156	2161
352490	2802	2173	2114
353130	2791	2190	2174
353770	2781	2160	2238
354410	2832	2121	2197
355050	2829	2086	2188
355690	2801	2076	2212
356330	2783	2077	2178
356970	2750	2076	2174
357610	2737	2070	2169
358250	2762	2058	2135
358890	2777	2037	2126
359530	2792	2022	2141
360170	2825	1989	2088
360810	2814	1976	2074
361450	2781	1967	2101
362090	2777	1935	2052
362730	2788	1932	2031
363370	2796	1941	2048
364010	2830	1950	2034
364650	2827	1962	2067
365290	2838	1972	2061
365930	2814	1992	2049
366570	2771	1997	2053
367210	2757	1991	2029
367850	2747	1979	2003
368490	2762	1986	2008
369130	2817	1997	2018
369770	2880	2001	2023
370410	2904	1998	2025
371050	2860	1987	2028
371690	2812	1960	2004
372330	2779	1946	1966
372970	2761	1922	1981
373610	2753	1947	2034
374250	2780	1929	2040
374890	2803	1897	2001
375530	2806	1917	2043
376170	2796	1897	2079
376810	2783	1873	2086
377450	2777	1837	2076
378090	2758	1823	2089
378730	2738	1833	2084
379370	2738	1839	2058
380010	2779	1861	2061
380650	2859	1872	2060
381290	2900	1885	2056
381930	2854	1922	2120
382570	2852	1948	2098
383210	2854	1994	2035
383850	2824	2001	2000
384490	2786	2002	2044
385130	2776	1996	2057
385770	2777	2006	2046
386410	2774	2015	2052
387050	2779	2020	2048
387690	2787	2025	2042
388330	2795	2027	2042
388970	2798	2027	2043
389610	2805	2023	2039
390250	2828	2030	2028
390890	2822	2036	2038
391530	2807	2023	2050
392170	2793	2003	2052
392810	2791	1995	2046
393450	2795	1990	2039
394090	2796	1991	2049
394730	2805	1989	2051
395370	2810	1982	2049
396010	2819	1995	2055
396650	2802	1982	2091
397290	2807	2003	2057
397930	2797	1997	2069
398570	2798	1977	2054
399210	2805	1986	2030
399850	2795	1978	2074
400490	2805	1984	2072
401130	2813	1972	2064
401770	2805	1975	2078
402410	2804	1976	2064
403050	2806	1985	2065
403690	2800	1988	2085
404330	2808	1980	2079
404970	2808	1978	2073
405610	2804	1980	2095
406250	2806	1980	2088
406890	2806	1981	2074
407530	2797	1976	2080
408170	2789	1982	2086
408810	2799	1977	2077
409450	2806	1978	2078
410090	2809	1979	2092
410730	2818	1981	2095
411370	2798	1986	2088
412010	2773	2000	2097
412650	2774	2014	2087
413290	2791	2023	2082
413930	2811	2019	2085
414570	2848	2015	2081
415210	2882	2033	2088
415850	2836	2042	2103
416490	2781	2048	2099
417130	2758	2034	2067
417770	2758	1997	2046
418410	2792	1988	2047
419050	2809	1994	2052
419690	2829	2006	2098
420330	2854	1969	2110
420970	2819	1960	2128
421610	2802	1970	2101
422250	2781	1953	2093
422890	2781	1939	2038
423530	2774	1919	2066
424170	2773	1921	2096
424810	2769	1933	2099
425450	2773	1935	2106
426090	2757	1918	2113
426730	2768	1897	2083
427370	2794	1875	2080
428010	2816	1862	2101
428650	2812	1869	2132
429290	2781	1844	2160
429930	2782	1813	2166
430570	2806	1836	2151
431210	2844	1887	2149
431850	2837	1915	2151
432490	2819	1903	2146
433130	2757	1858	2142
433770	2782	1870	2133
434410	2780	1878	2105
435050	2786	1880	2116
435690	2783	1895	2119
436330	2804	1872	2115
436970	2804	1866	2141
437610	2818	1884	2145
438250	2846	1910	2102
438890	2843	1921	2091
439530	2811	1921	2127
440170	2795	1932	2141
440810	2815	1988	2166
441450	2875	2042	2174
442090	2914	2101	2125
442730	2904	2101	2143
443370	2804	2032	2206
444010	2755	1988	2154
444650	2727	2019	2107
445290	2716	2040	2096
445930	2727	2036	2073
446570	2751	2060	2041
447210	2784	2065	2095
447850	2782	2066	2179
448490	2788	2040	2185
449130	2769	2028	2170
449770	2754	2035	2146
450410	2752	2044	2120
451050	2769	2049	2134
451690	2813	2033	2144
452330	2858	2025	2157
452970	2885	2011	2184
453610	2876	2003	2207
454250	2854	2022	2186
454890	2811	2025	2142
455530	2771	2018	2122
456170	2737	2008	2114
456810	2724	2001	2120
457450	2726	1995	2139
458090	2745	2000	2158
458730	2763	1998	2175
459370	2776	2005	2191
460010	2781	2013	2188
460650	2767	2016	2173
461290	2736	2020	2163
461930	2768	2018	2165
462570	2903	2025	2136
463210	2936	1973	2095
463850	2910	1962	2178
464490	2929	1970	2174
465130	2875	1980	2121
465770	2784	2008	2103
466410	2707	2036	2135
467050	2687	2015	2111
467690	2697	1996	2013
468330	2725	1985	2000
468970	2762	1976	2088
469610	2810	1974	2130
470250	2861	1967	2136
470890	2866	1967	2177
471530	2822	1959	2165
472170	2798	1950	2096
472810	2777	1952	2068
473450	2776	1963	2072
474090	2783	1962	2090
474730	2802	1965	2108
475370	2809	1962	2134
476010	2800	1966	2135
476650	2797	1968	2091
477290	2791	1963	2092
477930	2792	1960	2094
478570	2802	1958	2101
479210	2802	1952	2120
479850	2805	1946	2131
480490	2805	1948	2124
481130	2794	1947	2109
481770	2792	1949	2095
482410	2790	1941	2082
483050	2776	1918	2092
483690	2759	1899	2101
484330	2740	1886	2122
484970	2707	1868	2140
485610	2738	1841	2092
486250	2792	1821	2106
486890	2843	1759	2162
487530	2844	1753	2227
488170	2843	1747	2246
488810	2791	1696	2262
489450	2743	1684	2259
490090	2687	1664	2291
490730	2687	1618	2332
491370	2780	1640	2336
492010	2842	1718	2340
492650	2819	1748	2401
493290	2781	1774	2411
493930	2737	1785	2324
494570	2717	1746	2190
495210	2678	1722	2172
495850	2651	1707	2236
496490	2690	1745	2253
497130	2744	1749	2256
497770	2773	1763	2317
498410	2800	1814	2346
499050	2806	1858	2311
499690	2776	1866	2287
500330	2786	1857	2248
500970	2744	1848	2211
501610	2663	1795	2222
502250	2622	1779	2227
502890	2652	1820	2182
503530	2758	1873	2152
504170	2784	1967	2228
504810	2821	2056	2290
505450	2917	2143	2246
506090	3001	2239	2267
506730	2966	2204	2310
507370	2847	2104	2275
508010	2772	2059	2197
508650	2717	2073	2132
509290	2721	2096	2099
509930	2713	2080	2095
510570	2741	2106	2172
511210	2785	2112	2204
511850	2858	2106	2203
512490	2884	2108	2243
513130	2850	2121	2272
513770	2811	2147	2230
514410	2775	2123	2162
515050	2736	2090	2133
515690	2722	2082	2134
516330	2745	2072	2117
516970	2775	2068	2099
517610	2798	2078	2134
518250	2789	2087	2181
518890	2771	2074	2212
519530	2760	2072	2181
520170	2749	2073	2146
520810	2738	2073	2150
521450	2742	2061	2150
522090	2732	2061	2145
522730	2734	2072	2141
523370	2729	2080	2139
524010	2736	2073	2134
524650	2798	2075	2106
525290	2921	2086	2082
525930	2982	2049	2114
526570	2949	2018	2206
527210	2930	1991	2223
527850	2869	1988	2158
528490	2715	2000	2167
529130	2632	2000	2145
529770	2649	1971	2061
530410	2688	1950	2002
531050	2743	1941	2065
531690	2827	1910	2142
532330	2904	1868	2188
532970	2944	1858	2265
533610	2894	1870	2262
534250	2824	1906	2165
534890	2770	1955	2090
535530	2747	1982	2034
536170	2738	2003	2009
536810	2745	2002	2031
537450	2769	1989	2077
538090	2803	1986	2114
538730	2834	1978	2121
539370	2826	1951	2113
540010	2808	1958	2080
540650	2796	1978	2057
541290	2788	1986	2064
541930	2800	1992	2069
542570	2811	1997	2087
543210	2817	1997	2104
543850	2810	2003	2114
544490	2802	1999	2099
545130	2797	2001	2088
545770	2792	2002	2092
546410	2801	1999	2092
547050	2807	1992	2096
547690	2816	1998	2098
548330	2810	1980	2111
548970	2797	2007	2110
549610	2803	1999	2108
550250	2802	1995	2066
550890	2802	1993	2068
551530	2801	1998	2093
552170	2810	1992	2097
552810	2819	1995	2091
553450	2799	2003	2108
554090	2787	2007	2090
554730	2795	2009	2061
555370	2784	2009	2079
556010	2785	2010	2079
556650	2797	2004	2080
557290	2795	2006	2086
557930	2790	2020	2096
558570	2802	2033	2065
559210	2801	2042	2063
559850	2799	2039	2068
560490	2797	2051	2075
561130	2780	2082	2102
561770	2783	2099	2112
562410	2782	2124	2114
563050	2767	2143	2161
563690	2773	2140	2196
564330	2786	2137	2212
564970	2808	2145	2231
565610	2847	2160	2245
566250	2894	2142	2223
566890	2879	2120	2237
567530	2825	2119	2260
568170	2799	2114	2198
568810	2756	2157	2163
569450	2740	2158	2139
570090	2711	2165	2137
570730	2733	2186	2107
571370	2760	2186	2153
572010	2791	2170	2185
572650	2818	2132	2165
573290	2804	2124	2167
573930	2783	2123	2156
574570	2766	2113	2130
575210	2755	2116	2139
575850	2752	2104	2156
576490	2756	2091	2153
577130	2757	2077	2183
577770	2776	2048	2158
578410	2793	2017	2128
579050	2794	1977	2139
579690	2809	1937	2127
580330	2827	1913	2096
580970	2844	1901	2076
581610	2863	1881	2046
582250	2837	1866	2070
582890	2790	1880	2097
583530	2775	1902	2064
584170	2781	1928	2037
584810	2797	1924	2039
585450	2804	1920	2058
586090	2818	1923	2077
586730	2834	1935	2083
587370	2823	1942	2076
588010	2791	1930	2075
588650	2755	1964	2085
589290	2759	1949	2050
589930	2747	1934	2042
590570	2781	1956	2020
591210	2814	1960	2050
591850	2877	1968	2034
592490	2926	1964	2020
593130	2902	1966	2065
593770	2865	1957	2058
594410	2823	1938	2010
595050	2770	1933	2010
595690	2747	1928	2012
596330	2738	1911	2015
596970	2738	1895	2028
597610	2754	1906	2054
598250	2784	1898	2039
598890	2801	1894	2065
599530	2822	1881	2066
600170	2833	1874	2057
600810	2812	1880	2082
601450	2791	1887	2084
602090	2773	1886	2067
602730	2751	1895	2070
603370	2784	1920	2064
604010	2842	1940	2033
604650	2851	1954	2066
605290	2854	2006	2113
605930	2881	2044	2069
606570	2830	2050	2073
607210	2781	2031	2077
607850	2750	1991	2058
608490	2727	2025	2050
609130	2738	2012	2050
609770	2759	2006	2049
610410	2805	2008	2049
611050	2828	2009	2103
611690	2851	2009	2114
612330	2851	2002	2102
612970	2823	2019	2107
613610	2804	2031	2086
614250	2786	2031	2067
614890	2775	2033	2075
615530	2779	2035	2084
616170	2796	2032	2078
616810	2814	2027	2093
617450	2819	2035	2097
618090	2819	2038	2090
618730	2815	2038	2095
619370	2814	2028	2079
620010	2804	2025	2081
620650	2797	2021	2081
621290	2798	2021	2077
621930	2797	2017	2076
622570	2801	2019	2074
623210	2808	2018	2074
623850	2809	2020	2073
624490	2805	2018	2078
625130	2799	2018	2078
625770	2799	2016	2068
626410	2796	2012	2068
627050	2801	2012	2062
627690	2786	1991	2092
628330	2796	2022	2083
628970	2808	2014	2067
629610	2812	2002	2064
630250	2815	2008	2065
630890	2806	2016	2084
631530	2810	2020	2081
632170	2808	2014	2075
632810	2800	2018	2072
633450	2793	2020	2071
634090	2787	2021	2072
634730	2796	2018	2063
635370	2800	2013	2076
636010	2808	2013	2069
636650	2800	2027	2078
637290	2801	2031	2064
637930	2796	2037	2060
638570	2800	2036	2060
639210	2800	2039	2076
639850	2803	2033	2086
640490	2814	2030	2072
641130	2800	2026	2085
641770	2799	2026	2086
642410	2813	2023	2066
643050	2806	2025	2083
643690	2806	2020	2096
644330	2807	2018	2082
644970	2797	2017	2084
645610	2793	2015	2083
646250	2799	2015	2069
646890	2806	2016	2063
647530	2792	2005	2105
648170	2805	2021	2096
648810	2813	2011	2087
649450	2811	2007	2074
650090	2809	2020	2088
650730	2802	2011	2110
651370	2802	2011	2108
652010	2805	2018	2104
652650	2784	2022	2117
653290	2770	2033	2110
653930	2775	2048	2098
654570	2785	2048	2099
655210	2801	2038	2114
655850	2825	2013	2096
656490	2805	2007	2135
657130	2796	1998	2134
657770	2777	1988	2120
658410	2772	1981	2109
659050	2812	1987	2088
659690	2841	1990	2088
660330	2835	1983	2125
660970	2803	1969	2153
661610	2776	1939	2138
662250	2773	1914	2118
662890	2803	1908	2111
663530	2825	1925	2114
664170	2825	1949	2126
664810	2819	1981	2152
665450	2817	1979	2143
666090	2808	1945	2098
666730	2747	1941	2105
667370	2721	1960	2117
668010	2755	1995	2056
668650	2800	1975	2023
669290	2839	1945	2034
669930	2871	1940	2082
670570	2916	1947	2117
671210	2895	1939	2153
671850	2842	1964	2180
672490	2804	2007	2142
673130	2788	2032	2058
673770	2800	2033	2033
674410	2773	2030	2035
675050	2712	2004	2069
675690	2730	1990	2082
676330	2768	1998	2081
676970	2803	1992	2063
677610	2829	1972	2071
678250	2844	1945	2101
678890	2846	1940	2098
679530	2833	1930	2089
680170	2807	1928	2089
680810	2790	1918	2084
681450	2788	1918	2079
682090	2784	1917	2087
682730	2777	1903	2114
683370	2794	1883	2112
684010	2823	1870	2126
684650	2838	1863	2138
685290	2831	1900	2154
685930	2820	1930	2164
686570	2811	1946	2133
687210	2767	2004	2131
687850	2733	2035	2108
688490	2738	2031	2023
689130	2754	2070	2037
689770	2830	2044	2058
690410	2878	2012	2068
691050	2873	2005	2158
691690	2839	2059	2213
692330	2840	2089	2152
692970	2805	2090	2110
693610	2746	2063	2117
694250	2713	2030	2116
694890	2720	1983	2084
695530	2740	1950	2087
696170	2765	1930	2144
696810	2776	1958	2163
697450	2773	2005	2159
698090	2770	2041	2157
698730	2793	2062	2116
699370	2845	2016	2070
700010	2966	1995	2067
700650	2993	1969	2101
701290	2893	1988	2210
701930	2834	2035	2256
702570	2802	2071	2144
703210	2751	2059	2024
703850	2695	2052	2000
704490	2686	2031	2005
705130	2727	2027	1985
705770	2783	2032	2016
706410	2806	2052	2129
707050	2849	2036	2137
707690	2862	2028	2089
708330	2824	2032	2050
708970	2776	2001	2039
709610	2776	1988	1985
710250	2773	1990	2002
710890	2773	1985	2050
711530	2786	1990	2073
712170	2807	2006	2079
712810	2799	2011	2087
713450	2813	2006	2033
714090	2827	2018	2019
714730	2834	2029	2009
715370	2827	2043	2041
716010	2792	2035	2066
716650	2787	2027	2046
717290	2796	2014	2009
717930	2786	2015	2020
718570	2792	2022	2029
719210	2812	2020	2019
719850	2813	2024	2044
720490	2809	2028	2058
721130	2812	2034	2038
721770	2808	2040	2033
722410	2800	2033	2039
723050	2798	2019	2008
723690	2789	2016	1998
724330	2790	2006	2007
724970	2793	1993	1998
725610	2780	1984	2025
726250	2795	1978	2022
726890	2820	1971	2005
727530	2828	1982	1993
728170	2809	1982	2038
728810	2804	1972	2030
729450	2807	1958	2003
730090	2792	1962	2022
730730	2783	1968	2028
731370	2796	1972	2003
732010	2809	1976	2002
732650	2819	1975	2013
733290	2815	1969	2030
733930	2815	1964	2015
734570	2790	1966	2019
735210	2784	1973	1992
735850	2788	1977	1999
736490	2799	1972	2010
737130	2805	1972	2016
737770	2800	1979	2037
738410	2801	1978	2025
739050	2803	1983	2010
739690	2800	1979	2015
740330	2799	1981	2028
740970	2801	1978	2039
741610	2801	1982	2038
742250	2806	1983	2034
742890	2806	1981	2035
743530	2807	1979	2032
744170	2810	1976	2031
744810	2791	1998	2068
745450	2800	1987	2059
746090	2803	1990	2044
746730	2814	1993	2024
747370	2803	1991	2068
748010	2809	1991	2068
748650	2821	1979	2054
749290	2802	1988	2081
749930	2799	1984	2071
750570	2803	1985	2059
751210	2800	1987	2075
751850	2815	1982	2067
752490	2819	1976	2072
753130	2814	1969	2066
753770	2816	1970	2046
754410	2811	1953	2043
755050	2792	1976	2066
755690	2801	1979	2047
756330	2797	1987	2062
756970	2792	1995	2064
757610	2805	1993	2049
758250	2813	2009	2054
758890	2818	2022	2061
759530	2811	2036	2066
760170	2807	2028	2062
760810	2809	2025	2057
761450	2800	2027	2060
762090	2803	2029	2054
762730	2808	2029	2064
763370	2811	2020	2073
764010	2782	2031	2130
764650	2801	2029	2073
765290	2795	2028	2083
765930	2794	2027	2067
766570	2793	2016	2073
767210	2795	2024	2082
767850	2802	2024	2074
768490	2788	2037	2082
769130	2765	2040	2084
769770	2759	2053	2068
770410	2759	2066	2067
771050	2756	2081	2075
771690	2743	2103	2105
772330	2737	2143	2131
772970	2771	2177	2131
773610	2791	2167	2172
774250	2791	2149	2236
774890	2819	2146	2264
775530	2870	2133	2265
776170	2885	2089	2259
776810	2848	2079	2265
777450	2807	2106	2252
778090	2768	2125	2210
778730	2742	2130	2174
779370	2743	2120	2159
780010	2755	2130	2150
780650	2783	2129	2154
781290	2790	2140	2171
781930	2802	2140	2165
782570	2818	2140	2140
783210	2818	2134	2112
783850	2797	2113	2129
784490	2814	2114	2099
785130	2825	2102	2121
785770	2822	2066	2134
786410	2828	2062	2143
787050	2822	2029	2122
787690	2822	2010	2103
788330	2797	1971	2096
788970	2766	1950	2078
789610	2764	1938	2047
790250	2764	1968	2045
790890	2739	1994	2063
791530	2719	1986	2084
792170	2750	1931	2057
792810	2775	1915	2061
793450	2804	1875	2067
794090	2813	1885	2089
794730	2838	1909	2092
795370	2850	1935	2074
796010	2857	1950	2067
796650	2855	1967	2056
797290	2839	1981	2065
797930	2829	1972	2059
798570	2802	1966	2032
799210	2772	1962	2011
799850	2756	1966	2013
800490	2778	1969	2008
801130	2791	1962	2008
801770	2811	1959	2042
802410	2840	1959	2037
803050	2842	1960	2028
803690	2826	1972	2042
804330	2793	1950	2048
804970	2776	1989	2044
805610	2777	1992	2062
806250	2808	1976	2024
806890	2801	1993	2064
807530	2788	1987	2102
808170	2821	1997	2064
808810	2829	1976	2050
809450	2825	1993	2084
810090	2851	2017	2087
810730	2860	2046	2097
811370	2864	2067	2113
812010	2852	2065	2128
812650	2819	2030	2116
813290	2770	1999	2111
813930	2752	1983	2071
814570	2752	1978	2038
815210	2769	1998	2061
815850	2789	1999	2080
816490	2806	1996	2103
817130	2820	2015	2109
817770	2828	2016	2085
818410	2825	2015	2080
819050	2809	2007	2081
819690	2788	2018	2086
820330	2775	2023	2090
820970	2770	2028	2078
821610	2767	2039	2070
822250	2776	2039	2081
822890	2788	2024	2073
823530	2795	2007	2064
824170	2785	1999	2074
824810	2779	1990	2066
825450	2797	1996	2038
826090	2792	1990	2076
826730	2811	1995	2069
827370	2832	1983	2063
828010	2844	1971	2032
828650	2814	1989	2073
829290	2802	1979	2064
829930	2805	1975	2030
830570	2792	1986	2048
831210	2784	1999	2063
831850	2786	2005	2040
832490	2798	2015	2043
833130	2800	2017	2052
833770	2789	2012	2074
834410	2782	2035	2069
835050	2785	2034	2072
835690	2783	2039	2080
836330	2786	2050	2107
836970	2786	2060	2130
837610	2785	2048	2147
838250	2779	2064	2178
838890	2784	2071	2175
839530	2783	2098	2184
840170	2790	2109	2199
840810	2809	2129	2205
841450	2796	2145	2247
842090	2790	2152	2278
842730	2804	2153	2276
843370	2811	2133	2284
844010	2824	2132	2289
844650	2838	2136	2293
845290	2858	2126	2279
845930	2847	2098	2269
846570	2826	2098	2252
847210	2793	2087	2227
847850	2760	2104	2215
848490	2752	2114	2188
849130	2754	2101	2111
849770	2756	2112	2130
850410	2738	2110	2170
851050	2791	2090	2129
851690	2825	2063	2079
852330	2792	2071	2092
852970	2759	2099	2081
853610	2712	2117	2057
854250	2694	2118	2058
854890	2730	2068	2015
855530	2786	2059	2018
856170	2825	2051	2044
856810	2835	2067	2082
857450	2827	2064	2060
858090	2795	2028	2013
858730	2787	1971	1958
859370	2790	1934	1916
860010	2821	1935	1940
860650	2835	1936	2017
861290	2850	1928	2065
861930	2805	1924	2063
862570	2786	1937	2055
863210	2776	1971	2036
863850	2764	1990	2034
864490	2763	1990	2048
865130	2777	1979	2068
865770	2796	1980	2071
866410	2837	1975	2056
867050	2874	1970	2058
867690	2895	1964	2057
868330	2866	1960	2108
868970	2830	1944	2091
869610	2783	1961	2069
870250	2764	1977	2031
870890	2726	1986	2078
871530	2712	1973	2109
872170	2744	1957	2112
872810	2784	1939	2135
873450	2799	1939	2178
874090	2799	1921	2190
874730	2815	1893	2172
875370	2831	1859	2121
876010	2816	1870	2089
876650	2882	1931	2087
877290	2919	1960	2040
877930	2891	2036	2069
878570	2866	2096	2087
879210	2827	2097	2056
879850	2767	2044	2023
880490	2718	2006	2033
881130	2701	1998	2008
881770	2711	2000	1983
882410	2742	2004	2022
883050	2779	2003	2050
883690	2813	2010	2052
884330	2833	2023	2069
884970	2840	2036	2061
885610	2833	2043	2051
886250	2818	2051	2047
886890	2802	2050	2048
887530	2796	2053	2052
888170	2790	2063	2052
888810	2787	2055	2097
889450	2815	2050	2047
890090	2806	2040	2070
890730	2797	2017	2064
891370	2802	2023	2039
892010	2799	2017	2064
892650	2811	2024	2053
893290	2818	2016	2042
893930	2807	2031	2065
894570	2810	2038	2068
895210	2810	2038	2065
895850	2802	2022	2070
896490	2797	2009	2064
897130	2796	2005	2071
897770	2802	2005	2066
898410	2802	2012	2060
899050	2809	2008	2060
899690	2797	2017	2071
900330	2805	2013	2057
900970	2799	2011	2059
901610	2798	2020	2070
902250	2806	2015	2061
902890	2806	2013	2068
903530	2803	2017	2074
904170	2801	2021	2069
904810	2804	2032	2061
905450	2810	2048	2067
906090	2812	2041	2074
906730	2807	2032	2076
907370	2793	2024	2075
908010	2795	2017	2061
908650	2794	2012	2049
909290	2802	2020	2043
909930	2807	1997	2062
910570	2802	2033	2087
911210	2813	2015	2071
911850	2804	2006	2071
912490	2807	2016	2040
913130	2789	2021	2064
913770	2793	2029	2066
914410	2810	2016	2057
915050	2807	2013	2072
915690	2807	2012	2073
916330	2809	2010	2061
916970	2810	1995	2060
917610	2807	1983	2058
918250	2808	1988	2071
918890	2808	1982	2061
919530	2796	2000	2073
920170	2800	2000	2052
920810	2798	2013	2054
921450	2803	2012	2057
922090	2810	2009	2056
922730	2810	2013	2075
923370	2815	2007	2067
924010	2807	2004	2062
924650	2798	2007	2067
925290	2802	2000	2056
925930	2802	1996	2063
926570	2797	1997	2072
927210	2799	1996	2065
927850	2796	1997	2062
928490	2796	1996	2068
929130	2799	1997	2066
929770	2794	2003	2069
930410	2796	1996	2067
931050	2801	1983	2061
931690	2803	1989	2056
932330	2786	1981	2093
932970	2802	2006	2080
933610	2800	2004	2074
934250	2798	2004	2067
934890	2791	2014	2067
935530	2777	2008	2087
936170	2805	2008	2078
936810	2824	2002	2078
937450	2814	2001	2111
938090	2804	2016	2118
938730	2819	2029	2096
939370	2828	2035	2086
940010	2828	2039	2101
940650	2827	2035	2120
941290	2814	2047	2101
941930	2804	2081	2080
942570	2796	2086	2070
943210	2797	2077	2070
943850	2805	2077	2063
944490	2802	2062	2075
945130	2813	2052	2090
945770	2810	2043	2084
946410	2776	2038	2092
947050	2750	2019	2099
947690	2734	2004	2083
948330	2734	1980	2086
948970	2750	1955	2104
949610	2766	1941	2120
950250	2776	1944	2148
950890	2821	1928	2171
951530	2861	1930	2152
952170	2835	1940	2189
952810	2793	1936	2233
953450	2770	1958	2188
954090	2758	1958	2165
954730	2773	1921	2168
955370	2789	1907	2175
956010	2849	1934	2191
956650	2872	1914	2221
957290	2866	1892	2189
957930	2824	1890	2213
958570	2797	1886	2202
959210	2801	1890	2156
959850	2780	1875	2159
960490	2741	1860	2204
961130	2718	1882	2189
961770	2741	1896	2142
962410	2762	1891	2139
963050	2774	1873	2162
963690	2796	1869	2153
964330	2813	1861	2141
964970	2778	1858	2150
965610	2784	1847	2122
966250	2791	1848	2101
966890	2792	1831	2093
967530	2760	1834	2139
968170	2769	1843	2139
968810	2790	1865	2110
969450	2783	1871	2153
970090	2788	1877	2183
970730	2808	1904	2159
971370	2831	1920	2145
972010	2844	1950	2212
972650	2879	2022	2234
973290	2892	2126	2210
973930	2788	2167	2227
974570	2743	2102	2211
975210	2737	2032	2153
975850	2788	2001	2116
976490	2771	2005	2118
977130	2756	1956	2190
977770	2803	1977	2214
978410	2815	2009	2202
979050	2817	2059	2140
979690	2797	2078	2137
980330	2783	2034	2137
980970	2795	2018	2124
981610	2804	2013	2117
982250	2826	2022	2129
982890	2835	2031	2156
983530	2804	2016	2182
984170	2777	1997	2189
984810	2759	1986	2170
985450	2750	1979	2152
986090	2757	1973	2135
986730	2751	1975	2164
987370	2768	1955	2162
988010	2764	1941	2188
988650	2767	1939	2204
989290	2766	1964	2214
989930	2761	1998	2228
990570	2759	1981	2213
991210	2813	1942	2162
991850	2884	1884	2115
992490	2918	1883	2162
993130	2924	1894	2228
993770	2818	1880	2244
994410	2778	1919	2235
995050	2775	1952	2161
995690	2744	1980	2109
996330	2716	1987	2109
996970	2727	1977	2099
997610	2747	1959	2089
998250	2785	1957	2111
998890	2806	1972	2175
999530	2841	1976	2173
1000170	2839	1966	2171
1000810	2816	1971	2130
1001450	2789	1976	2094
1002090	2765	1983	2076
1002730	2780	1987	2046
1003370	2796	1983	2043
1004010	2798	1981	2077
1004650	2811	1988	2096
1005290	2825	1990	2098
1005930	2816	1977	2088
1006570	2809	1962	2069
1007210	2803	1968	2043
1007850	2789	1979	2058
1008490	2796	1983	2047
1009130	2796	1982	2055
1009770	2803	1982	2067
1010410	2810	1969	2059
1011050	2804	1979	2075
1011690	2802	1989	2077
1012330	2797	1987	2072
1012970	2796	1984	2073
1013610	2797	1978	2076
1014250	2803	1974	2077
1014890	2804	1974	2082
1015530	2805	1973	2088
1016170	2803	1975	2089
1016810	2804	1973	2083
1017450	2798	1977	2081
1018090	2801	1984	2076
1018730	2804	1987	2073
1019370	2798	1979	2075
1020010	2789	2006	2101
1020650	2799	1989	2083
1021290	2806	1992	2071
1021930	2811	1989	2058
1022570	2798	1993	2099
1023210	2802	1983	2089
1023850	2808	1973	2077
1024490	2802	1976	2081
1025130	2796	1980	2090
1025770	2790	1986	2087
1026410	2790	1987	2078
1027050	2796	1980	2077
1027690	2798	1983	2098
1028330	2807	1985	2080
1028970	2797	1994	2102
1029610	2800	2008	2084
1030250	2797	2007	2081
1030890	2791	2006	2085
1031530	2798	1991	2085
1032170	2798	1970	2096
1032810	2803	1972	2102
1033450	2813	1947	2102
1034090	2814	1915	2112
1034730	2801	1892	2113
1035370	2813	1874	2091
1036010	2816	1853	2106
1036650	2802	1837	2120
1037290	2804	1836	2126
1037930	2792	1801	2147
1038570	2787	1799	2165
1039210	2823	1825	2151
1039850	2819	1856	2154
1040490	2793	1851	2197
1041130	2768	1900	2198
1041770	2759	1888	2171
1042410	2753	1877	2129
1043050	2750	1891	2127
1043690	2771	1903	2145
1044330	2799	1902	2159
1044970	2815	1887	2166
1045610	2804	1891	2179
1046250	2798	1903	2164
1046890	2794	1914	2132
1047530	2784	1923	2117
1048170	2789	1925	2103
1048810	2800	1917	2114
1049450	2809	1918	2123
1050090	2795	1915	2153
1050730	2802	1924	2114
1051370	2795	1916	2099
1052010	2804	1917	2106
1052650	2820	1933	2080
1053290	2812	1939	2095
1053930	2818	1955	2113
1054570	2807	1963	2090
1055210	2817	1981	2094
1055850	2810	2013	2087
1056490	2829	2033	2063
1057130	2828	2054	2086
1057770	2786	2027	2088
1058410	2758	1979	2084
1059050	2754	1960	2072
1059690	2767	1963	2047
1060330	2775	1950	2054
1060970	2785	1950	2085
1061610	2784	1968	2121
1062250	2796	1974	2121
1062890	2794	1982	2105
1063530	2812	1974	2061
1064170	2816	1978	2086
1064810	2820	1962	2095
1065450	2840	1980	2095
1066090	2844	1996	2119
1066730	2848	2013	2127
1067370	2842	2022	2099
1068010	2829	2024	2109
1068650	2808	2025	2120
1069290	2760	2017	2111
1069930	2741	2031	2130
1070570	2723	2029	2127
1071210	2743	2024	2131
1071850	2765	1999	2132
1072490	2777	1998	2190
1073130	2796	2001	2235
1073770	2810	2008	2250
1074410	2825	2016	2260
1075050	2805	2034	2271
1075690	2772	2046	2240
1076330	2763	2058	2192
1076970	2760	2055	2154
1077610	2765	2050	2134
1078250	2817	2032	2124
1078890	2914	2032	2138
1079530	2915	2034	2162
1080170	2854	2025	2200
1080810	2825	2030	2217
1081450	2785	2058	2131
1082090	2728	2064	2083
1082730	2697	2080	2064
1083370	2711	2047	2040
1084010	2746	2010	2012
1084650	2807	2002	2028
1085290	2859	1985	2106
1085930	2871	1988	2171
1086570	2857	1980	2163
1087210	2804	1995	2101
1087850	2761	2002	2026
1088490	2747	2013	1991
1089130	2753	2018	1993
1089770	2779	2013	2002
1090410	2808	2002	2051
1091050	2828	1987	2092
1091690	2831	1996	2103
1092330	2818	1980	2057
1092970	2791	1991	2026
1093610	2786	1991	2002
1094250	2780	1997	2013
1094890	2792	2008	2047
1095530	2804	2008	2069
1096170	2818	1995	2079
1096810	2817	1992	2082
1097450	2810	1992	2071
1098090	2807	1999	2054
1098730	2800	2004	2058
1099370	2795	2000	2066
1100010	2803	1997	2066
1100650	2805	2000	2064
1101290	2809	1999	2066
1101930	2801	1999	2065
1102570	2793	2000	2049
1103210	2787	2004	2077
1103850	2796	2027	2070
1104490	2807	2035	2089
1105130	2838	2039	2073
1105770	2833	2036	2098
1106410	2814	2025	2087
1107050	2803	2011	2062
1107690	2794	2016	2059
1108330	2788	2033	2063
1108970	2790	2048	2069
1109610	2794	2051	2082
1110250	2807	2057	2095
1110890	2798	2056	2120
1111530	2792	2050	2129
1112170	2780	2038	2130
1112810	2777	2044	2116
1113450	2785	2019	2097
1114090	2796	2014	2109
1114730	2814	2014	2105
1115370	2805	2033	2117
1116010	2799	2057	2128
1116650	2792	2074	2111
1117290	2789	2104	2108
1117930	2781	2112	2123
1118570	2781	2126	2148
1119210	2781	2152	2181
1119850	2782	2151	2199
1120490	2787	2144	2205
1121130	2805	2139	2207
1121770	2818	2136	2189
1122410	2814	2124	2171
1123050	2806	2132	2169
1123690	2792	2143	2162
1124330	2783	2129	2170
1124970	2780	2149	2169
1125610	2799	2137	2168
1126250	2814	2136	2173
1126890	2836	2133	2163
1127530	2827	2119	2183
1128170	2812	2127	2178
1128810	2806	2112	2144
1129450	2760	2120	2141
1130090	2715	2139	2149
1130730	2728	2139	2113
1131370	2755	2144	2080
1132010	2770	2157	2111
1132650	2778	2148	2152
1133290	2792	2121	2141
1133930	2810	2105	2129
1134570	2833	2075	2113
1135210	2816	2063	2126
1135850	2810	2039	2115
1136490	2791	2031	2107
1137130	2771	2015	2107
1137770	2791	1998	2094
1138410	2838	1969	2081
1139050	2851	1932	2074
1139690	2802	1957	2111
1140330	2763	2011	2121
1140970	2741	2008	2062
1141610	2739	1966	2033
1142250	2757	1948	2046
1142890	2809	1938	2059
1143530	2864	1939	2083
1144170	2883	1937	2126
1144810	2872	1918	2121
1145450	2838	1904	2080
1146090	2805	1900	2038
1146730	2758	1902	2059
1147370	2763	1902	2062
1148010	2784	1891	2029
1148650	2790	1879	2041
1149290	2802	1891	2109
1149930	2814	1892	2091
1150570	2814	1887	2070
1151210	2801	1894	2078
1151850	2786	1898	2091
1152490	2775	1905	2090
1153130	2776	1902	2099
1153770	2778	1896	2099
1154410	2821	1899	2091
1155050	2842	1892	2065
1155690	2838	1898	2095
1156330	2827	1937	2108
1156970	2853	1998	2064
1157610	2856	2031	2012
1158250	2821	2035	2044
1158890	2786	2011	2056
1159530	2762	1983	2026
1160170	2748	1967	2021
1160810	2755	1961	2021
1161450	2774	1956	2014
1162090	2797	1974	2023
1162730	2811	1993	2049
1163370	2807	2008	2058
1164010	2806	2015	2036
1164650	2801	2012	2030
1165290	2790	2003	2037
1165930	2800	2011	2041
1166570	2816	2008	2047
1167210	2816	2000	2055
1167850	2816	2001	2032
1168490	2784	1988	2060
1169130	2787	2017	2020
1169770	2784	2015	2040
1170410	2808	2001	2010
1171050	2813	2001	2024
1171690	2806	2008	2063
1172330	2821	2016	2058
1172970	2825	2001	2051
1173610	2807	2005	2063
1174250	2801	2003	2050
1174890	2798	2003	2035
1175530	2802	2008	2047
1176170	2808	2015	2050
1176810	2814	2016	2058
1177450	2807	2014	2059
1178090	2793	2040	2066
1178730	2800	2028	2027
1179370	2799	2029	2037
1180010	2807	2020	2045
1180650	2811	2028	2047
1181290	2808	2034	2062
1181930	2801	2035	2049
1182570	2796	2037	2038
1183210	2799	2038	2044
1183850	2809	2038	2048
1184490	2815	2041	2061
1185130	2826	2047	2069
1185770	2828	2048	2074
1186410	2809	2035	2088
1187050	2800	2020	2085
1187690	2786	2005	2082
1188330	2773	1982	2073
1188970	2751	1964	2074
1189610	2765	1950	2061
1190250	2803	1959	2035
1190890	2792	1923	2086
1191530	2796	1920	2085
1192170	2803	1879	2076
1192810	2826	1875	2039
1193450	2834	1906	2023
1194090	2821	1929	2054
1194730	2832	1960	2057
1195370	2858	1971	2047
1196010	2833	1988	2082
1196650	2820	1984	2086
1197290	2819	1964	2044
1197930	2805	1962	2041
1198570	2786	1967	2052
1199210	2783	1966	2062
1199850	2782	1949	2069
1200490	2768	1941	2096
1201130	2801	1938	2077
1201770	2802	1925	2081
1202410	2785	1905	2105
1203050	2805	1876	2088
1203690	2817	1837	2055
1204330	2804	1837	2052
1204970	2830	1858	2057
1205610	2864	1860	2038
1206250	2774	1858	2070
1206890	2784	1862	2124
1207530	2821	1912	2022
1208170	2847	1943	2028
1208810	2842	1934	2066
1209450	2814	1925	2046
1210090	2782	1913	2052
1210730	2760	1927	2028
1211370	2745	1930	1999
1212010	2758	1939	1993
1212650	2826	1966	1986
1213290	2896	2007	2000
1213930	2875	2056	2122
1214570	2868	2110	2133
1215210	2791	2152	2127
1215850	2729	2163	2097
1216490	2791	2174	2045
1217130	2801	2113	2019
1217770	2773	2100	2123
1218410	2807	2102	2171
1219050	2796	2109	2135
1219690	2782	2068	2106
1220330	2737	2014	2068
1220970	2700	1993	2041
1221610	2758	1958	1962
1222250	2807	1923	1919
1222890	2886	1946	1969
1223530	2888	1950	2056
1224170	2856	1959	2077
1224810	2797	1992	2051
1225450	2743	1964	1999
1226090	2766	1949	1962
1226730	2815	1921	1970
1227370	2801	1890	2027
1228010	2842	1871	2054
1228650	2863	1849	2062
1229290	2832	1871	2071
1229930	2793	1883	2027
1230570	2765	1898	1969
1231210	2762	1894	1963
1231850	2766	1899	1992
1232490	2792	1925	1999
1233130	2828	1929	2008
1233770	2821	1936	2025
1234410	2809	1947	1999
1235050	2799	1969	1974
1235690	2787	1966	1973
1236330	2775	1992	2000
1236970	2771	1978	1999
1237610	2810	1967	1950
1238250	2792	1976	1994
1238890	2801	1982	2002
1239530	2819	1975	1992
1240170	2818	1977	2010
1240810	2810	1986	2022
1241450	2803	1998	2015
1242090	2795	1994	2002
1242730	2789	1994	2000
1243370	2787	1995	2010
1244010	2789	1997	2021
1244650	2807	2013	2026
1245290	2812	1999	2027
1245930	2805	2001	2043
1246570	2810	2008	2027
1247210	2817	2000	2010
1247850	2813	1988	2020
1248490	2803	1995	2037
1249130	2806	2000	2031
1249770	2811	2006	2019
1250410	2813	1994	2029
1251050	2816	1989	2036
1251690	2811	1992	2027
1252330	2809	1995	2026
1252970	2804	1996	2039
1253610	2802	1998	2037
1254250	2802	1994	2029
1254890	2799	1997	2034
1255530	2798	1994	2032
1256170	2806	1991	2027
1256810	2807	1992	2024
1257450	2789	1997	2067
1258090	2812	2000	2020
1258730	2796	1999	2039
1259370	2803	2002	2024
1260010	2806	2006	2014
1260650	2800	2004	2035
1261290	2808	2000	2036
1261930	2811	1995	2032
1262570	2808	2002	2045
1263210	2803	2008	2044
1263850	2802	2010	2035
1264490	2797	2013	2046
1265130	2806	2012	2038
1265770	2811	2007	2048
1266410	2810	2004	2049
1267050	2803	2016	2042
1267690	2810	2005	2020
1268330	2796	2008	2029
1268970	2801	2001	2026
1269610	2799	1999	2025
1270250	2801	1996	2031
1270890	2807	1993	2025
1271530	2807	1985	2026
1272170	2802	1982	2035
1272810	2802	1980	2030
1273450	2798	1987	2034
1274090	2798	1982	2031
1274730	2798	1983	2035
1275370	2803	1985	2035
1276010	2804	1979	2033
1276650	2806	1987	2036
1277290	2814	1988	2029
1277930	2814	1982	2022
1278570	2792	1989	2071
1279210	2811	1998	2018
1279850	2800	1987	2034
1280490	2805	1996	2031
1281130	2808	2000	2021
1281770	2799	1992	2040
1282410	2806	1998	2041
1283050	2812	1977	2034
1283690	2809	1979	2042
1284330	2807	1979	2046
1284970	2805	1976	2043
1285610	2805	1969	2042
1286250	2806	1976	2039
1286890	2806	1984	2057
1287530	2811	1989	2046
1288170	2808	1988	2052
1288810	2811	1992	2036
1289450	2805	2004	2044
1290090	2806	2003	2046
1290730	2805	1990	2044
1291370	2802	1986	2051
1292010	2803	1988	2043
1292650	2797	1976	2045
1293290	2796	1973	2043
1293930	2800	1970	2035
1294570	2796	1961	2040
1295210	2802	1954	2038
1295850	2803	1964	2042
1296490	2796	1964	2050
1297130	2812	1988	2033
1297770	2802	2014	2036
1298410	2818	2031	2021
1299050	2815	2015	2011
1299690	2825	2060	2004
1300330	2820	2136	2020
1300970	2836	2143	1997
1301610	2794	2159	2108
1302250	2782	2141	2133
1302890	2785	2104	2100
1303530	2776	2076	2144
1304170	2772	2050	2165
1304810	2793	2017	2160
1305450	2790	1997	2200
1306090	2794	1971	2218
1306730	2808	1921	2227
1307370	2816	1901	2217
1308010	2821	1883	2207
1308650	2822	1864	2190
1309290	2822	1883	2150
1309930	2813	1872	2172
1310570	2785	1874	2149
1311210	2805	1856	2077
1311850	2809	1847	2070
1312490	2798	1857	2071
1313130	2799	1874	2058
1313770	2801	1861	2055
1314410	2798	1848	2059
1315050	2788	1838	2026
1315690	2797	1839	1995
1316330	2782	1863	2010
1316970	2772	1881	1995
1317610	2786	1909	1978
1318250	2785	1919	1997
1318890	2800	1941	1997
1319530	2806	1957	2010
1320170	2826	1968	1999
1320810	2812	1965	2029
1321450	2799	1958	2052
1322090	2804	1979	2007
1322730	2780	1980	2029
1323370	2790	1990	2003
1324010	2792	1979	1978
1324650	2792	1989	1992
1325290	2801	1995	2014
1325930	2795	2002	2015
1326570	2795	2005	2009
1327210	2788	2009	2015
1327850	2778	2016	2031
1328490	2801	2010	2025
1329130	2834	2016	2036
1329770	2851	2000	2063
1330410	2846	1979	2083
1331050	2818	1928	2092
1331690	2764	1909	2102
1332330	2742	1921	2067
1332970	2790	1918	2018
1333610	2824	1908	2025
1334250	2849	1891	2053
1334890	2896	1885	2090
1335530	2876	1882	2122
1336170	2833	1876	2140
1336810	2815	1903	2090
1337450	2796	1961	1989
1338090	2748	1955	1990
1338730	2711	1940	2018
1339370	2705	1926	1990
1340010	2742	1942	1975
1340650	2735	1960	2054
1341290	2713	1940	2137
1341930	2759	1926	2146
1342570	2835	1925	2081
1343210	2896	1931	2057
1343850	2883	1965	2132
1344490	2917	1938	2113
1345130	2863	1916	2045
1345770	2799	1971	2082
1346410	2821	2018	2021
1347050	2812	2031	1981
1347690	2766	2019	2038
1348330	2762	2017	2069
1348970	2760	2043	2084
1349610	2752	2086	2099
1350250	2760	2115	2105
1350890	2783	2126	2094
1351530	2791	2128	2092
1352170	2786	2144	2114
1352810	2782	2159	2138
1353450	2825	2185	2181
1354090	2855	2156	2155
1354730	2834	2133	2185
1355370	2814	2119	2225
1356010	2806	2123	2201
1356650	2794	2122	2161
1357290	2797	2084	2116
1357930	2786	2063	2089
1358570	2765	2076	2088
1359210	2760	2097	2090
1359850	2785	2090	2071
1360490	2802	2098	2049
1361130	2799	2086	2070
1361770	2802	2082	2065
1362410	2794	2082	2051
1363050	2777	2084	2064
1363690	2771	2077	2046
1364330	2766	2052	2055
1364970	2796	2059	2018
1365610	2813	2041	2061
1366250	2853	2003	2034
1366890	2856	2003	2043
1367530	2829	2015	2077
1368170	2819	2028	2063
1368810	2794	2017	2052
1369450	2774	2003	2043
1370090	2770	1997	2028
1370730	2781	2009	2029
1371370	2802	2020	2047
1372010	2819	2026	2054
1372650	2822	2040	2081
1373290	2828	2045	2085
1373930	2809	2041	2065
1374570	2789	2040	2052
1375210	2774	2039	2031
1375850	2785	2047	2021
1376490	2797	2034	2019
1377130	2810	2039	2052
1377770	2821	2042	2061
1378410	2821	2046	2065
1379050	2803	2043	2066
1379690	2794	2043	2036
1380330	2794	2032	2012
1380970	2810	2038	2008
1381610	2834	2058	2014
1382250	2842	2086	2043
1382890	2821	2103	2075
1383530	2807	2122	2062
1384170	2823	2145	2016
1384810	2846	2158	2023
1385450	2848	2179	2039
1386090	2819	2158	2060
1386730	2776	2125	2086
1387370	2769	2136	2057
1388010	2742	2103	2034
1388650	2749	2054	2040
1389290	2765	2016	2052
1389930	2780	2007	2087
1390570	2792	1992	2132
1391210	2812	1951	2133
1391850	2813	1915	2132
1392490	2823	1882	2079
1393130	2849	1876	2014
1393770	2832	1847	2034
1394410	2828	1840	2024
1395050	2830	1846	1996
1395690	2835	1832	1951
1396330	2809	1841	1949
1396970	2788	1848	1926
1397610	2779	1879	1898
1398250	2760	1901	1913
1398890	2764	1943	1902
1399530	2755	1990	1926
1400170	2773	2014	1939
1400810	2796	2012	1933
1401450	2811	2000	1944
1402090	2811	1965	1969
1402730	2813	1955	1977
1403370	2797	1965	1975
1404010	2793	1968	1971
1404650	2789	1977	1985
1405290	2782	1990	1984
1405930	2797	2005	1981
1406570	2814	2024	1988
1407210	2819	2011	1994
1407850	2825	2003	1996
1408490	2860	2017	1978
1409130	2832	2002	2009
1409770	2795	1990	2047
1410410	2782	1991	2018
1411050	2767	1997	2000
1411690	2757	1987	2010
1412330	2773	1957	1996
1412970	2783	1931	1995
1413610	2810	1915	2011
1414250	2822	1900	2026
1414890	2823	1902	2048
1415530	2850	1917	2034
1416170	2838	1927	2034
1416810	2824	1926	2023
1417450	2822	1948	2013
1418090	2825	1957	1983
1418730	2800	1962	1984
1419370	2766	1951	2002
1420010	2761	1964	1977
1420650	2754	1975	1958
1421290	2755	1965	1965
1421930	2770	1952	1957
1422570	2768	1960	1981
1423210	2741	1996	2025
1423850	2725	2012	2084
1424490	2788	2002	2030
1425130	2845	2002	1964
1425770	2847	1977	2007
1426410	2877	1980	2050
1427050	2831	1965	2089
1427690	2818	2005	2087
1428330	2827	2043	2044
1428970	2838	2075	1980
1429610	2829	2130	2048
1430250	2804	2127	2093
1430890	2773	2156	2166
1431530	2748	2158	2189
1432170	2764	2170	2150
1432810	2806	2182	2127
1433450	2837	2173	2140
1434090	2832	2168	2184
1434730	2812	2167	2212
1435370	2806	2150	2211
1436010	2801	2147	2174
1436650	2785	2115	2150
1437290	2786	2089	2130
1437930	2793	2072	2076
1438570	2803	2091	2087
1439210	2811	2090	2098
1439850	2801	2084	2092
1440490	2770	2094	2088
1441130	2739	2090	2066
1441770	2734	2099	2040
1442410	2738	2074	2023
1443050	2768	2072	2047
1443690	2798	2059	2054
1444330	2835	2042	2070
1444970	2859	2019	2080
1445610	2886	2009	2059
1446250	2884	1998	2031
1446890	2831	1998	2036
1447530	2784	2004	2042
1448170	2758	2036	2011
1448810	2746	2029	1998
1449450	2746	2015	2016
1450090	2781	2005	1989
1450730	2804	2007	2032
1451370	2838	2010	2060
1452010	2857	2003	2065
1452650	2842	2000	2080
1453290	2815	2011	2068
1453930	2796	2027	2034
1454570	2783	2025	2024
1455210	2778	2020	2020
1455850	2794	2018	2025
1456490	2806	2024	2057
1457130	2814	2020	2058
1457770	2815	2024	2064
1458410	2811	2017	2036
1459050	2794	2023	2028
1459690	2796	2016	2023
1460330	2800	2013	2028
1460970	2805	2010	2044
1461610	2807	2009	2047
1462250	2805	2015	2050
1462890	2797	2017	2042
1463530	2801	2012	2029
1464170	2801	2012	2038
1464810	2804	2010	2043
1465450	2810	2011	2044
1466090	2814	2015	2043
1466730	2807	2026	2051
1467370	2805	2022	2033
1468010	2796	2022	2028
1468650	2796	2026	2030
1469290	2796	2065	2053
1469930	2811	2071	2039
1470570	2816	2070	2068
1471210	2812	2071	2042
1471850	2773	2083	2080
1472490	2771	2100	2085
1473130	2799	2056	2043
1473770	2812	2018	2052
1474410	2802	2021	2100
1475050	2794	2036	2102
1475690	2789	2034	2097
1476330	2785	2028	2080
1476970	2769	2019	2058
1477610	2771	2031	2073
1478250	2831	2039	2079
1478890	2840	1985	2084
1479530	2863	1965	2112
1480170	2861	1969	2102
1480810	2817	1985	2076
1481450	2751	1996	2072
1482090	2721	1988	2040
1482730	2726	1960	2015
1483370	2751	1916	2024
1484010	2800	1855	2053
1484650	2835	1827	2111
1485290	2845	1816	2174
1485930	2833	1827	2191
1486570	2835	1846	2157
1487210	2832	1888	2125
1487850	2820	1917	2113
1488490	2794	1917	2110
1489130	2788	1916	2121
1489770	2779	1908	2105
1490410	2766	1899	2101
1491050	2778	1897	2094
1491690	2800	1903	2105
1492330	2826	1921	2066
1492970	2820	1927	2110
1493610	2829	1912	2085
1494250	2839	1913	2060
1494890	2819	1902	2075
1495530	2818	1913	2060
1496170	2824	1920	2025
1496810	2806	1930	2049
1497450	2784	1925	2064
1498090	2781	1935	2042
1498730	2796	1943	2044
1499370	2850	1968	2061
1500010	2833	1992	2076
1500650	2839	2002	2113
1501290	2791	2009	2105
1501930	2754	1990	2092
1502570	2717	1986	2070
1503210	2735	1975	2052
1503850	2778	1969	2019
1504490	2820	1943	2038
1505130	2844	1932	2092
1505770	2858	1935	2110
1506410	2861	1936	2078
1507050	2813	1940	2062
1507690	2773	1928	2048
1508330	2763	1923	2024
1508970	2777	1902	2014
1509610	2809	1898	2019
1510250	2828	1884	2041
1510890	2823	1893	2069
1511530	2809	1901	2077
1512170	2793	1924	2070
1512810	2808	1948	2044
1513450	2778	1939	2038
1514090	2739	1872	2090
1514730	2766	1841	2058
1515370	2797	1780	2035
1516010	2826	1759	2023
1516650	2819	1791	2077
1517290	2815	1832	2127
1517930	2801	1886	2122
1518570	2720	1911	2085
1519210	2692	1962	2039
1519850	2704	2034	2004
1520490	2776	2030	1981
1521130	2938	2030	1997
1521770	3033	2048	2070
1522410	2957	2034	2240
1523050	2857	2020	2282
1523690	2769	1995	2119
1524330	2659	2020	2070
1524970	2586	2026	2108
1525610	2613	2050	2076
1526250	2701	2053	1956
1526890	2769	2059	1999
1527530	2814	2069	2141
1528170	2901	2106	2217
1528810	2972	2111	2256
1529450	2937	2097	2215
1530090	2907	2063	2114
1530730	2808	2040	2057
1531370	2722	2023	2029
1532010	2707	2037	1996
1532650	2718	2055	1991
1533290	2747	2039	2026
1533930	2774	2026	2065
1534570	2830	2001	2111
1535210	2886	1978	2148
1535850	2900	1965	2159
1536490	2839	1958	2160
1537130	2805	1949	2063
1537770	2749	1957	2050
1538410	2735	1958	1986
1539050	2741	1959	1975
1539690	2761	1956	2018
1540330	2810	1963	2043
1540970	2846	1956	2074
1541610	2852	1968	2126
1542250	2836	1967	2119
1542890	2804	1963	2061
1543530	2774	1968	2036
1544170	2761	1971	2019
1544810	2774	1960	2006
1545450	2795	1963	2022
1546090	2808	1964	2075
1546730	2828	1979	2101
1547370	2837	1979	2089
1548010	2823	1986	2092
1548650	2801	1982	2060
1549290	2791	1984	2029
1549930	2787	1986	2022
1550570	2794	1987	2024
1551210	2799	1988	2041
1551850	2804	1989	2064
1552490	2810	1996	2072
1553130	2810	1993	2065
1553770	2797	1993	2059
1554410	2794	1987	2047
1555050	2784	1983	2041
1555690	2797	1983	2039
1556330	2806	1985	2045
1556970	2814	1976	2058
1557610	2821	1974	2058
1558250	2802	1953	2073
1558890	2801	1976	2039
1559530	2791	1967	2047
1560170	2794	1962	2034
1560810	2813	1963	2023
1561450	2809	1963	2058
1562090	2816	1963	2059
1562730	2824	1955	2045
1563370	2811	1955	2052
1564010	2805	1958	2048
1564650	2801	1954	2035
1565290	2800	1954	2045
1565930	2803	1955	2045
1566570	2809	1954	2041
1567210	2807	1960	2049
1567850	2798	1955	2045
1568490	2800	1965	2046
1569130	2803	1961	2024
1569770	2802	1962	2039
1570410	2808	1951	2037
1571050	2811	1955	2040
1571690	2806	1965	2050
1572330	2804	1965	2044
1572970	2796	1960	2044
1573610	2796	1958	2039
1574250	2795	1960	2038
1574890	2793	1963	2036
1575530	2796	1972	2035
1576170	2790	1974	2044
1576810	2783	1970	2042
1577450	2784	1967	2036
1578090	2794	1971	2036
1578730	2810	1960	2042
1579370	2813	1956	2056
1580010	2832	1935	2069
1580650	2814	1924	2116
1581290	2798	1913	2084
1581930	2778	1905	2072
1582570	2794	1908	2045
1583210	2802	1927	2056
1583850	2797	1936	2100
1584490	2820	1961	2106
1585130	2840	1952	2113
1585770	2831	1944	2136
1586410	2818	1958	2106
1587050	2787	1945	2071
1587690	2746	1920	2086
1588330	2746	1900	2086
1588970	2792	1880	2098
1589610	2809	1879	2138
1590250	2811	1883	2192
1590890	2815	1884	2188
1591530	2791	1858	2163
1592170	2771	1860	2154
1592810	2774	1873	2131
1593450	2766	1889	2119
1594090	2781	1881	2126
1594730	2811	1878	2121
1595370	2822	1888	2124
1596010	2808	1888	2144
1596650	2785	1891	2139
1597290	2782	1895	2122
1597930	2779	1903	2112
1598570	2795	1908	2098
1599210	2808	1915	2096
1599850	2810	1903	2105
1600490	2809	1881	2123
1601130	2807	1858	2126
1601770	2804	1870	2119
1602410	2804	1895	2137
1603050	2774	1932	2142
1603690	2766	1937	2132
1604330	2785	1936	2066
1604970	2801	1964	2114
1605610	2814	1978	2099
1606250	2851	2033	2091
1606890	2905	2067	2103
1607530	2840	2002	2086
1608170	2762	1922	2095
1608810	2754	1920	2085
1609450	2796	1939	2015
1610090	2820	1958	2004
1610730	2830	1962	2091
1611370	2849	1984	2108
1612010	2830	2015	2121
1612650	2824	2041	2130
1613290	2824	2056	2068
1613930	2805	2056	2043
1614570	2780	2061	2072
1615210	2772	2081	2091
1615850	2748	2091	2084
1616490	2748	2098	2097
1617130	2754	2107	2094
1617770	2764	2105	2084
1618410	2769	2098	2096
1619050	2788	2091	2107
1619690	2806	2091	2103
1620330	2799	2097	2122
1620970	2782	2099	2144
1621610	2780	2103	2126
1622250	2768	2099	2102
1622890	2744	2108	2108
1623530	2716	2086	2126
1624170	2732	2096	2083
1624810	2771	2058	2067
1625450	2868	2069	2070
1626090	2972	2059	2058
1626730	2931	2012	2149
1627370	2890	2009	2219
1628010	2857	1997	2158
1628650	2783	2000	2081
1629290	2710	2018	2053
1629930	2700	2027	2031
1630570	2723	2015	2012
1631210	2759	2002	2032
1631850	2808	1992	2086
1632490	2863	1982	2125
1633130	2881	1979	2192
1633770	2851	1986	2203
1634410	2816	1977	2110
1635050	2785	1985	2050
1635690	2762	1995	2026
1636330	2750	2000	2006
1636970	2766	1991	2004
1637610	2796	1984	2047
1638250	2833	1995	2099
1638890	2844	1998	2128
1639530	2829	1996	2127
1640170	2807	1996	2079
1640810	2789	1997	2045
1641450	2783	1999	2037
1642090	2786	1997	2033
1642730	2796	1996	2043
1643370	2814	1994	2073
1644010	2822	1984	2090
1644650	2809	2010	2101
1645290	2807	1995	2060
1645930	2790	1995	2060
1646570	2792	1997	2023
1647210	2791	1991	2037
1647850	2795	1991	2061
1648490	2815	1987	2062
1649130	2817	1982	2077
1649770	2809	1991	2092
1650410	2803	1988	2077
1651050	2796	1985	2064
1651690	2795	1986	2060
1652330	2796	1982	2061
1652970	2807	1982	2063
1653610	2808	1979	2078
1654250	2808	1986	2098
1654890	2808	1981	2074
1655530	2799	1985	2076
1656170	2798	1979	2065
1656810	2798	1982	2064
1657450	2803	1986	2074
1658090	2809	1983	2075
1658730	2810	1984	2084
1659370	2807	1981	2083
1660010	2804	1983	2070
1660650	2800	1986	2065
1661290	2797	1985	2066
1661930	2800	1984	2064
1662570	2804	1983	2069
1663210	2805	1982	2074
1663850	2810	1980	2070
1664490	2804	1962	2068
1665130	2792	1992	2086
1665770	2796	1971	2062
1666410	2798	1971	2071
1667050	2804	1973	2054
1667690	2802	1977	2069
1668330	2802	1977	2077
1668970	2809	1976	2071
1669610	2808	1976	2072
1670250	2802	1978	2082
1670890	2800	1978	2075
1671530	2797	1980	2070
1672170	2796	1983	2076
1672810	2798	1986	2078
1673450	2807	1985	2066
1674090	2800	1992	2082
1674730	2800	2001	2090
1675370	2810	1994	2062
1676010	2797	2001	2087
1676650	2799	1998	2085
1677290	2799	2000	2090
1677930	2794	1999	2100
1678570	2799	1993	2092
1679210	2805	1999	2088
1679850	2810	1995	2084
1680490	2810	1994	2086
1681130	2803	1983	2092
1681770	2794	1980	2099
1682410	2775	1963	2112
1683050	2765	1940	2097
1683690	2772	1937	2085
1684330	2777	1917	2101
1684970	2782	1886	2117
1685610	2766	1852	2171
1686250	2800	1844	2160
1686890	2805	1821	2189
1687530	2819	1802	2175
1688170	2816	1813	2181
1688810	2796	1819	2209
1689450	2798	1824	2200
1690090	2818	1821	2168
1690730	2809	1835	2180
1691370	2801	1851	2195
1692010	2794	1862	2180
1692650	2784	1863	2176
1693290	2773	1866	2173
1693930	2774	1874	2166
1694570	2782	1876	2147
1695210	2781	1900	2159
1695850	2797	1903	2123
1696490	2801	1903	2126
1697130	2795	1902	2112
1697770	2781	1888	2099
1698410	2767	1874	2093
1699050	2782	1881	2075
1699690	2797	1878	2065
1700330	2796	1863	2087
1700970	2798	1873	2108
1701610	2798	1870	2095
1702250	2801	1864	2071
1702890	2812	1871	2081
1703530	2801	1881	2072
1704170	2792	1913	2080
1704810	2804	1931	2073
1705450	2818	1920	2049
1706090	2811	1948	2085
1706730	2786	1968	2062
1707370	2823	2000	2071
1708010	2817	1986	2008
1708650	2776	1954	2063
1709290	2738	1920	2091
1709930	2749	1906	2060
1710570	2762	1915	2054
1711210	2763	1929	2083
1711850	2799	1958	2087
1712490	2848	1975	2078
1713130	2868	1989	2101
1713770	2864	1998	2123
1714410	2834	2000	2117
1715050	2812	1994	2094
1715690	2785	2019	2101
1716330	2791	2040	2057
1716970	2799	2040	2034
1717610	2818	2041	2081
1718250	2796	2056	2107
1718890	2759	2072	2127
1719530	2762	2090	2124
1720170	2767	2081	2091
1720810	2775	2066	2093
1721450	2777	2058	2134
1722090	2777	2056	2166
1722730	2798	2055	2176
1723370	2810	2064	2189
1724010	2801	2070	2198
1724650	2793	2074	2181
1725290	2767	2072	2161
1725930	2735	2061	2155
1726570	2723	2068	2142
1727210	2750	2035	2093
1727850	2806	2027	2087
1728490	2950	2008	2065
1729130	2983	1996	2091
1729770	2867	1964	2213
1730410	2860	1998	2215
1731050	2814	1970	2058
1731690	2737	1979	2003
1732330	2706	1996	2021
1732970	2726	1997	1986
1733610	2758	1998	1974
1734250	2797	1996	2044
1734890	2841	1990	2101
1735530	2876	1980	2136
1736170	2835	1994	2157
1736810	2795	1993	2059
1737450	2757	1999	1996
1738090	2747	2000	1969
1738730	2749	1992	1963
1739370	2778	2002	1981
1740010	2811	2003	2028
1740650	2833	2002	2085
1741290	2846	1999	2111
1741930	2828	1996	2084
1742570	2805	1991	2029
1743210	2784	1986	2005
1743850	2774	1987	1996
1744490	2786	1989	1989
1745130	2797	1986	2021
1745770	2822	1993	2046
1746410	2811	1983	2094
1747050	2828	2007	2057
1747690	2798	1997	2059
1748330	2796	1990	2027
1748970	2796	1996	2000
1749610	2787	1986	2034
1750250	2799	1987	2045
1750890	2816	1978	2048
1751530	2813	1983	2068
1752170	2813	1984	2065
1752810	2810	1982	2039
1753450	2798	1983	2043
1754090	2797	1982	2038
1754730	2800	1987	2042
1755370	2806	1984	2040
1756010	2801	1990	2074
1756650	2811	1988	2039
1757290	2801	1984	2045
1757930	2797	1976	2048
1758570	2796	1969	2031
1759210	2806	1971	2045
1759850	2811	1979	2056
1760490	2806	1989	2065
1761130	2798	1998	2045
1761770	2804	1983	2028
1762410	2799	1992	2041
1763050	2804	2011	2040
1763690	2813	2025	2043
1764330	2810	2025	2070
1764970	2804	2020	2073
1765610	2810	2027	2055
1766250	2801	2044	2058
1766890	2773	2030	2077
1767530	2793	2054	2059
1768170	2803	2049	2072
1768810	2804	2049	2094
1769450	2807	2050	2081
1770090	2804	2040	2101
1770730	2798	2037	2094
1771370	2798	2035	2079
1772010	2797	2023	2086
1772650	2802	2018	2084
1773290	2809	2029	2087
1773930	2809	2038	2099
1774570	2821	2046	2091
1775210	2819	2059	2085
1775850	2819	2078	2086
1776490	2794	2095	2107
1777130	2767	2106	2118
1777770	2769	2122	2107
1778410	2765	2148	2124
1779050	2766	2150	2139
1779690	2774	2161	2174
1780330	2804	2165	2208
1780970	2835	2143	2229
1781610	2842	2115	2254
1782250	2812	2101	2259
1782890	2799	2108	2209
1783530	2787	2118	2170
1784170	2775	2112	2164
1784810	2777	2088	2152
1785450	2784	2080	2145
1786090	2779	2084	2143
1786730	2770	2081	2148
1787370	2768	2081	2135
1788010	2769	2072	2110
1788650	2765	2044	2108
1789290	2740	2071	2141
1789930	2761	2047	2122
1790570	2770	2021	2131
1791210	2785	2009	2128
1791850	2799	2016	2140
1792490	2804	2003	2155
1793130	2820	1971	2130
1793770	2822	1951	2123
1794410	2821	1940	2148
1795050	2867	1919	2129
1795690	2848	1892	2110
1796330	2773	1937	2162
1796970	2750	1952	2124
1797610	2740	1953	2058
1798250	2736	1946	2057
1798890	2772	1936	2064
1799530	2851	1934	2035
1800170	2891	1933	2097
1800810	2899	1913	2163
1801450	2869	1893	2174
1802090	2819	1882	2134
1802730	2770	1877	2088
1803370	2748	1884	2070
1804010	2761	1887	2076
1804650	2792	1887	2080
1805290	2825	1882	2109
1805930	2836	1885	2176
1806570	2843	1886	2192
1807210	2823	1886	2159
1807850	2772	1884	2134
1808490	2737	1879	2098
1809130	2722	1881	2079
1809770	2717	1886	2092
1810410	2764	1879	2102
1811050	2832	1886	2083
1811690	2877	1901	2126
1812330	2872	1968	2192
1812970	2869	1984	2178
1813610	2848	2008	2078
1814250	2800	2018	2070
1814890	2769	1998	2071
1815530	2755	1984	2048
1816170	2758	1975	2054
1816810	2765	1978	2083
1817450	2782	1986	2091
1818090	2800	1985	2083
1818730	2814	1988	2088
1819370	2823	1989	2086
1820010	2825	1994	2077
1820650	2817	2002	2087
1821290	2804	2002	2088
1821930	2799	2004	2076
1822570	2789	2009	2062
1823210	2789	2005	2051
1823850	2798	2002	2046
1824490	2799	2000	2052
1825130	2799	1992	2055
1825770	2800	1992	2055
1826410	2804	1986	2049
1827050	2799	1983	2051
1827690	2793	1984	2048
1828330	2795	1988	2043
1828970	2795	1984	2038
1829610	2795	1985	2044
1830250	2797	1989	2049
1830890	2802	1987	2048
1831530	2798	1988	2050
1832170	2802	1991	2042
1832810	2805	1994	2035
1833450	2807	1986	2041
1834090	2808	1986	2043
1834730	2792	1980	2071
1835370	2805	1991	2035
1836010	2786	1980	2061
1836650	2796	1983	2036
1837290	2806	1984	2018
1837930	2806	1983	2045
1838570	2807	1976	2059
1839210	2815	1978	2051
1839850	2801	1986	2068
1840490	2795	1986	2067
1841130	2800	1985	2044
1841770	2802	1986	2056
1842410	2803	1982	2061
1843050	2815	1981	2053
1843690	2814	1969	2073
1844330	2803	1962	2083
1844970	2798	1970	2068
1845610	2798	1957	2039
1846250	2793	1955	2057
1846890	2799	1954	2051
1847530	2803	1952	2055
1848170	2806	1957	2066
1848810	2807	1960	2058
1849450	2800	1962	2058
1850090	2796	1970	2058
1850730	2796	1968	2050
1851370	2800	1970	2046
1852010	2806	1973	2047
1852650	2807	1969	2057
1853290	2803	1966	2061
1853930	2803	1966	2060
1854570	2796	1974	2064
1855210	2795	1976	2059
1855850	2797	1976	2050
1856490	2798	1976	2059
1857130	2805	1969	2053
1857770	2791	1980	2088
1858410	2824	1990	2033
1859050	2800	2003	2075
1859690	2811	2014	2043
1860330	2812	2016	2028
1860970	2801	2023	2047
1861610	2803	2034	2036
1862250	2790	2043	2052
1862890	2759	2063	2089
1863530	2758	2057	2086
1864170	2747	2060	2082
1864810	2726	2075	2113
1865450	2729	2095	2133
1866090	2756	2121	2136
1866730	2776	2137	2176
1867370	2795	2157	2225
1868010	2840	2170	2252
1868650	2867	2156	2283
1869290	2856	2134	2320
1869930	2883	2113	2287
1870570	2867	2074	2244
1871210	2829	2060	2242
1871850	2817	2066	2206
1872490	2793	2068	2164
1873130	2758	2087	2173
1873770	2749	2097	2177
1874410	2753	2108	2146
1875050	2774	2119	2150
1875690	2784	2126	2158
1876330	2774	2136	2159
1876970	2768	2171	2170
1877610	2756	2187	2161
1878250	2740	2168	2160
1878890	2749	2130	2164
1879530	2776	2096	2156
1880170	2803	2088	2180
1880810	2825	2055	2177
1881450	2835	2029	2167
1882090	2823	2022	2152
1882730	2781	1999	2142
1883370	2758	2041	2145
1884010	2751	2051	2113
1884650	2750	2047	2138
1885290	2777	2050	2131
1885930	2799	2038	2154
1886570	2806	2039	2189
1887210	2824	2019	2194
1887850	2825	2002	2174
1888490	2810	2001	2159
1889130	2789	2009	2148
1889770	2773	2019	2138
1890410	2775	2017	2123
1891050	2788	2019	2120
1891690	2789	2027	2134
1892330	2796	2010	2131
1892970	2796	2006	2145
1893610	2799	1990	2121
1894250	2802	1986	2108
1894890	2807	1964	2100
1895530	2815	1945	2092
1896170	2827	1939	2105
1896810	2821	1932	2121
1897450	2799	1922	2133
1898090	2801	1930	2129
1898730	2794	1936	2109
1899370	2783	1928	2108
1900010	2783	1935	2124
1900650	2780	1941	2150
1901290	2776	1946	2165
1901930	2774	1936	2182
1902570	2783	1926	2194
1903210	2783	1912	2193
1903850	2779	1889	2194
1904490	2798	1882	2180
1905130	2848	1891	2171
1905770	2852	1878	2139
1906410	2832	1915	2149
1907050	2819	1989	2178
1907690	2811	2027	2131
1908330	2818	2015	2078
1908970	2796	1986	2105
1909610	2778	1964	2112
1910250	2757	1963	2125
1910890	2771	1990	2096
1911530	2776	2024	2113
1912170	2784	2026	2125
1912810	2815	2038	2104
1913450	2827	2037	2116
1914090	2811	2049	2152
1914730	2808	2056	2141
1915370	2802	2058	2115
1916010	2782	2070	2120
1916650	2779	2063	2121
1917290	2786	2050	2121
1917930	2800	2040	2106
1918570	2791	2032	2118
1919210	2797	2037	2118
1919850	2805	2041	2101
1920490	2806	2043	2110
1921130	2804	2046	2116
1921770	2804	2050	2113
1922410	2800	2041	2115
1923050	2799	2036	2115
1923690	2797	2027	2113
1924330	2797	2022	2111
1924970	2799	2019	2112
1925610	2802	2013	2108
1926250	2804	2013	2109
1926890	2802	2012	2114
1927530	2801	2017	2110
1928170	2801	2018	2103
1928810	2797	2018	2101
1929450	2797	2020	2106
1930090	2800	2021	2107
1930730	2800	2018	2105
1931370	2801	2019	2108
1932010	2807	2019	2101
1932650	2803	2011	2099
1933290	2803	2017	2093
1933930	2786	2015	2113
1934570	2790	2018	2106
1935210	2789	2018	2103
1935850	2801	2013	2078
1936490	2801	2021	2098
1937130	2807	2015	2104
1937770	2799	2012	2113
1938410	2803	2013	2107
1939050	2787	2011	2109
1939690	2779	2014	2102
1940330	2791	2015	2088
1940970	2798	2010	2093
1941610	2806	2011	2101
1942250	2811	2007	2112
1942890	2817	2014	2099
1943530	2807	2014	2104
1944170	2798	2010	2109
1944810	2794	2019	2086
1945450	2800	2009	2075
1946090	2800	2008	2087
1946730	2807	2005	2090
1947370	2805	2011	2096
1948010	2810	2015	2090
1948650	2808	2011	2085
1949290	2802	2007	2088
1949930	2795	2008	2091
1950570	2798	2008	2087
1951210	2800	2007	2082
1951850	2801	2010	2093
1952490	2808	2012	2091
1953130	2800	2008	2099
1953770	2798	2013	2094
1954410	2808	2023	2081
1955050	2808	2023	2100
1955690	2800	2002	2100
1956330	2812	2005	2084
1956970	2807	1997	2085
1957610	2789	2009	2100
1958250	2811	1992	2069
1958890	2802	1982	2082
1959530	2801	1964	2058
1960170	2788	1960	2080
1960810	2782	1957	2092
1961450	2781	1952	2075
1962090	2784	1954	2076
1962730	2786	1952	2087
1963370	2806	1954	2089
1964010	2809	1951	2114
1964650	2800	1956	2137
1965290	2799	1955	2128
1965930	2801	1947	2126
1966570	2794	1943	2115
1967210	2776	1955	2144
1967850	2788	1959	2109
1968490	2818	1957	2086
1969130	2806	1960	2115
1969770	2813	1975	2119
1970410	2820	1980	2106
1971050	2810	1979	2111
1971690	2797	1975	2100
1972330	2800	1973	2094
1972970	2802	1954	2102
1973610	2803	1936	2109
1974250	2799	1932	2118
1974890	2793	1921	2115
1975530	2795	1920	2105
1976170	2796	1920	2110
1976810	2796	1913	2110
1977450	2805	1917	2109
1978090	2809	1914	2124
1978730	2786	1905	2140
1979370	2758	1922	2103
1980010	2734	1909	2084
1980650	2743	1927	2048
1981290	2745	1901	2079
1981930	2763	1878	2108
1982570	2806	1863	2125
1983210	2866	1854	2150
1983850	2871	1855	2189
1984490	2832	1819	2215
1985130	2796	1810	2197
1985770	2765	1818	2172
1986410	2776	1832	2135
1987050	2810	1840	2117
1987690	2816	1856	2176
1988330	2788	1851	2242
1988970	2802	1848	2223
1989610	2789	1819	2195
1990250	2763	1838	2196
1990890	2760	1850	2171
1991530	2755	1883	2156
1992170	2762	1880	2153
1992810	2780	1881	2171
1993450	2790	1885	2186
1994090	2787	1874	2177
1994730	2787	1878	2157
1995370	2794	1883	2134
1996010	2806	1886	2122
1996650	2784	1867	2160
1997290	2772	1863	2189
1997930	2794	1889	2148
1998570	2806	1892	2141
1999210	2800	1891	2165
1999850	2795	1881	2137
2000490	2811	1888	2116
2001130	2805	1904	2120
2001770	2768	1924	2123
2002410	2747	1957	2128
2003050	2759	1962	2096
2003690	2759	1968	2088
2004330	2790	2006	2059
2004970	2824	2041	2066
2005610	2857	2041	2077
2006250	2876	2059	2106
2006890	2875	2055	2109
2007530	2806	2004	2107
2008170	2765	1943	2085
2008810	2798	1907	2036
2009450	2823	1901	2029
2010090	2799	1937	2099
2010730	2798	1984	2118
2011370	2792	2009	2060
2012010	2782	2038	2050
2012650	2836	2051	2009
2013290	2873	2054	1990
2013930	2852	2063	2050
2014570	2833	2057	2090
2015210	2804	2070	2101
2015850	2739	2067	2092
2016490	2708	2057	2075
2017130	2695	2041	2046
2017770	2704	2034	2035
2018410	2735	2035	2068
2019050	2753	2021	2111
2019690	2790	2026	2148
2020330	2836	2023	2175
2020970	2846	2030	2218
2021610	2835	2046	2205
2022250	2797	2060	2177
2022890	2729	2051	2160
2023530	2689	2049	2128
2024170	2734	2066	2040
2024810	2880	2057	2042
2025450	3001	2003	2045
2026090	2876	1955	2168
2026730	2896	1945	2255
2027370	2898	1959	2195
2028010	2822	1990	2075
2028650	2752	2019	2026
2029290	2717	2027	2024
2029930	2716	2023	2003
2030570	2734	2014	2003
2031210	2783	2003	2036
2031850	2835	1999	2099
2032490	2854	2006	2167
2033130	2834	1998	2205
2033770	2794	1995	2134
2034410	2765	1994	2050
2035050	2754	1984	2027
2035690	2760	1982	2023
2036330	2791	1982	2019
2036970	2829	1987	2059
2037610	2842	1983	2127
2038250	2842	1975	2163
2038890	2821	1973	2128
2039530	2794	1971	2074
2040170	2772	1975	2040
2040810	2770	1978	2028
2041450	2783	1975	2035
2042090	2801	1978	2068
2042730	2819	1976	2107
2043370	2830	1979	2118
2044010	2813	1974	2107
2044650	2796	1988	2077
2045290	2777	1975	2064
2045930	2789	1974	2014
2046570	2792	1983	2045
2047210	2811	1976	2071
2047850	2810	1980	2092
2048490	2821	1972	2089
2049130	2809	1984	2076
2049770	2794	1989	2062
2050410	2787	1987	2053
2051050	2794	1989	2047
2051690	2797	1985	2059
2052330	2811	1990	2074
2052970	2826	1983	2050
2053610	2821	1962	2059
2054250	2786	2001	2114
2054890	2789	2028	2086
2055530	2801	2029	2033
2056170	2792	2032	2066
2056810	2795	2023	2083
2057450	2816	2015	2059
2058090	2811	2037	2072
2058730	2803	2050	2080
2059370	2798	2043	2072
2060010	2793	2030	2051
2060650	2795	2023	2057
2061290	2805	2021	2061
2061930	2814	2020	2066
2062570	2808	2012	2085
2063210	2801	2005	2096
2063850	2793	2010	2067
2064490	2765	2006	2093
2065130	2783	2016	2050
2065770	2771	2031	2085
2066410	2791	2047	2061
2067050	2799	2061	2073
2067690	2794	2085	2115
2068330	2803	2110	2114
2068970	2807	2131	2124
2069610	2794	2147	2163
2070250	2780	2143	2190
2070890	2781	2136	2197
2071530	2784	2131	2206
2072170	2823	2103	2197
2072810	2844	2062	2174
2073450	2838	2054	2200
2074090	2814	2071	2219
2074730	2793	2099	2178
2075370	2778	2104	2128
2076010	2773	2106	2128
2076650	2777	2103	2110
2077290	2791	2104	2105
2077930	2810	2103	2114
2078570	2810	2104	2116
2079210	2796	2106	2112
2079850	2785	2112	2099
2080490	2768	2102	2090
2081130	2769	2086	2089
2081770	2787	2066	2097
2082410	2803	2042	2110
2083050	2807	2024	2124
2083690	2803	2015	2126
2084330	2808	1982	2093
2084970	2810	1987	2090
2085610	2850	1965	2053
2086250	2823	1949	2094
2086890	2800	1946	2087
2087530	2787	1950	2038
2088170	2767	1955	2031
2088810	2753	1954	2033
2089450	2740	1953	2040
2090090	2737	1954	2064
2090730	2756	1950	2058
2091370	2806	1950	2050
2092010	2854	1948	2061
2092650	2895	1951	2066
2093290	2912	1974	2095
2093930	2878	1974	2105
2094570	2814	1974	2105
2095210	2788	1951	2049
2095850	2764	1942	2011
2096490	2761	1931	1992
2097130	2791	1922	2011
2097770	2811	1913	2050
2098410	2813	1896	2087
2099050	2837	1907	2099
2099690	2822	1922	2086
2100330	2779	1921	2067
2100970	2761	1922	2054
2101610	2762	1920	2044
2102250	2764	1929	2058
2102890	2771	1920	2083
2103530	2790	1908	2096
2104170	2824	1908	2092
2104810	2824	1920	2106
2105450	2851	1939	2066
2106090	2825	1946	2104
2106730	2833	1974	2067
2107370	2821	1985	2052
2108010	2787	1980	2078
2108650	2785	1963	2053
2109290	2785	1934	2033
2109930	2773	1935	2059
2110570	2780	1951	2054
2111210	2790	1966	2047
2111850	2795	1979	2068
2112490	2808	1984	2063
2113130	2819	1993	2067
2113770	2821	1990	2063
2114410	2798	2003	2087
2115050	2795	2017	2057
2115690	2790	2029	2044
2116330	2790	2019	2053
2116970	2796	2021	2053
2117610	2807	2025	2058
2118250	2817	2028	2062
2118890	2817	2022	2063
2119530	2807	2025	2063
2120170	2801	2023	2054
2120810	2799	2018	2048
2121450	2799	2010	2050
2122090	2806	2007	2052
2122730	2806	2005	2054
2123370	2807	2003	2051
2124010	2810	2004	2041
2124650	2792	2000	2065
2125290	2804	2011	2032
2125930	2789	2005	2064
2126570	2806	1994	2033
2127210	2808	1999	2039
2127850	2806	1992	2054
2128490	2803	1997	2049
2129130	2808	1994	2041
2129770	2804	1995	2046
2130410	2799	1998	2049
2131050	2803	1998	2043
2131690	2798	1995	2052
2132330	2803	1993	2046
2132970	2814	2001	2047
2133610	2822	1993	2037
2134250	2807	2001	2061
2134890	2806	2003	2041
2135530	2801	2003	2033
2136170	2794	1998	2043
2136810	2793	1991	2034
2137450	2798	1989	2039
2138090	2801	1986	2043
2138730	2808	1982	2047
2139370	2807	1978	2052
2140010	2804	1981	2048
2140650	2799	1981	2045
2141290	2801	1984	2044
2141930	2798	1981	2047
2142570	2800	1984	2047
2143210	2807	1983	2045
2143850	2810	1982	2047
2144490	2816	1985	2047
2145130	2818	1969	2049
2145770	2805	1995	2060
2146410	2808	1991	2045
2147050	2802	2001	2042
2147690	2802	1976	2034
2148330	2796	1968	2056
2148970	2804	1959	2036
2149610	2807	1959	2049
2150250	2806	1947	2058
2150890	2792	1942	2060
2151530	2774	1947	2063
2152170	2771	1945	2052
2152810	2770	1934	2044
2153450	2773	1932	2056
2154090	2783	1933	2079
2154730	2793	1925	2083
2155370	2783	1940	2111
2156010	2789	1943	2083
2156650	2787	1941	2088
2157290	2793	1926	2098
2157930	2801	1930	2098
2158570	2804	1926	2118
2159210	2806	1918	2119
2159850	2815	1907	2110
2160490	2816	1896	2115
2161130	2820	1890	2124
2161770	2819	1891	2131
2162410	2818	1896	2140
2163050	2824	1908	2139
2163690	2814	1912	2137
2164330	2801	1900	2140
2164970	2788	1884	2130
2165610	2781	1881	2129
2166250	2791	1881	2114
2166890	2804	1873	2102
2167530	2805	1882	2110
2168170	2815	1875	2105
2168810	2802	1900	2104
2169450	2797	1891	2094
2170090	2772	1880	2077
2170730	2773	1880	2043
2171370	2774	1892	2066
2172010	2784	1897	2089
2172650	2810	1881	2079
2173290	2813	1894	2094
2173930	2804	1912	2106
2174570	2807	1916	2078
2175210	2804	1924	2070
2175850	2798	1936	2074
2176490	2800	1939	2074
2177130	2789	1942	2088
2177770	2812	1966	2070
2178410	2830	1993	2071
2179050	2855	2023	2078
2179690	2816	2000	2066
2180330	2764	1957	2090
2180970	2753	1959	2063
2181610	2758	1962	2036
2182250	2762	1972	2064
2182890	2774	1981	2095
2183530	2816	1986	2103
2184170	2853	1985	2101
2184810	2828	1995	2123
2185450	2805	2031	2138
2186090	2787	2051	2105
2186730	2780	2050	2073
2187370	2817	2043	2061
2188010	2848	2042	2062
2188650	2847	2055	2099
2189290	2836	2070	2146
2189930	2805	2077	2119
2190570	2757	2064	2067
2191210	2737	2076	2054
2191850	2718	2068	2080
2192490	2730	2094	2087
2193130	2764	2073	2132
2193770	2787	2057	2158
2194410	2812	2047	2171
2195050	2794	2058	2224
2195690	2795	2069	2212
2196330	2793	2066	2167
2196970	2773	2077	2165
2197610	2754	2089	2159
2198250	2776	2086	2135
2198890	2857	2082	2136
2199530	2916	2019	2140
2200170	2913	2007	2167
2200810	2858	2009	2219
2201450	2814	2025	2177
2202090	2766	2047	2099
2202730	2734	2034	2064
2203370	2732	2033	2078
2204010	2751	2021	2068
2204650	2785	2015	2076
2205290	2814	2012	2131
2205930	2845	2005	2175
2206570	2846	2000	2194
2207210	2815	2006	2165
2207850	2786	1998	2106
2208490	2765	1997	2074
2209130	2756	1999	2059
2209770	2760	1995	2051
2210410	2789	1992	2068
2211050	2810	1990	2105
2211690	2817	1993	2129
2212330	2820	1995	2129
2212970	2807	1996	2104
2213610	2787	1999	2087
2214250	2780	2005	2075
2214890	2783	2008	2071
2215530	2798	2013	2088
2216170	2809	2026	2107
2216810	2820	2027	2118
2217450	2815	2036	2112
2218090	2786	2047	2129
2218730	2799	2074	2073
2219370	2787	2084	2086
2220010	2793	2105	2085
2220650	2794	2135	2087
2221290	2791	2156	2115
2221930	2797	2148	2123
2222570	2808	2118	2124
2223210	2805	2101	2148
2223850	2796	2089	2152
2224490	2796	2068	2165
2225130	2769	2056	2220
2225770	2781	2052	2218
2226410	2788	2026	2234
2227050	2775	2012	2271
2227690	2786	1962	2272
2228330	2784	1912	2254
2228970	2812	1885	2175
2229610	2822	1864	2163
2230250	2818	1849	2174
2230890	2832	1831	2133
2231530	2827	1840	2125
2232170	2838	1845	2087
2232810	2836	1858	2076
2233450	2808	1885	2099
2234090	2793	1931	2093
2234730	2779	2001	2098
2235370	2807	2011	2102
2236010	2850	1998	2103
2236650	2834	1959	2113
2237290	2803	1973	2143
2237930	2769	2002	2116
2238570	2748	2027	2043
2239210	2754	2011	2011
2239850	2738	2012	2021
2240490	2780	2028	1988
2241130	2826	2031	1985
2241770	2817	2026	2074
2242410	2811	2015	2084
2243050	2822	2011	2044
2243690	2812	2012	2031
2244330	2801	2015	2014
2244970	2784	2014	2020
2245610	2791	2004	2055
2246250	2816	2000	2056
2246890	2836	1990	2089
2247530	2815	1929	2059
2248170	2725	1926	2161
2248810	2744	1944	2076
2249450	2788	1992	1995
2250090	2833	1994	2039
2250730	2850	1983	2059
2251370	2832	1940	2068
2252010	2796	1949	2128
2252650	2794	1952	2102
2253290	2815	1959	2016
2253930	2825	1960	1997
2254570	2824	1960	2016
2255210	2827	1948	2038
2255850	2821	1955	2083
2256490	2815	1966	2095
2257130	2795	1993	2091
2257770	2765	1986	2053
2258410	2745	1979	2013
2259050	2737	1968	2025
2259690	2749	1968	2037
2260330	2791	1955	2051
2260970	2807	1962	2099
2261610	2831	1955	2113
2262250	2876	1957	2070
2262890	2898	1963	2041
2263530	2844	1956	2062
2264170	2782	1994	2095
2264810	2778	2015	2040
2265450	2793	2025	1981
2266090	2795	2005	2002
2266730	2794	1981	2020
2267370	2798	1966	2036
2268010	2803	1989	2055
2268650	2803	2013	2054
2269290	2793	2035	2046
2269930	2778	2041	2031
2270570	2780	2038	2011
2271210	2798	2030	2010
2271850	2815	2027	2016
2272490	2816	2032	2057
2273130	2822	2038	2052
2273770	2806	2036	2058
2274410	2807	2028	2010
2275050	2798	2029	2011
2275690	2800	2015	2015
2276330	2806	2011	2023
2276970	2810	1988	2024
2277610	2807	1984	2032
2278250	2796	1986	2029
2278890	2794	1994	2020
2279530	2805	2002	2008
2280170	2800	2008	2013
2280810	2808	2012	2020
2281450	2814	2014	2035
2282090	2816	2012	2030
2282730	2801	2021	2056
2283370	2799	2012	2034
2284010	2797	2006	2013
2284650	2799	1998	2022
2285290	2806	1996	2025
2285930	2810	1997	2035
2286570	2811	2000	2045
2287210	2813	2002	2043
2287850	2806	2001	2039
2288490	2798	2000	2035
2289130	2793	2003	2032
2289770	2795	2001	2028
2290410	2799	1996	2032
2291050	2804	1996	2039
2291690	2804	1995	2045
2292330	2803	1996	2046
2292970	2806	1999	2041
2293610	2795	2007	2048
2294250	2787	2010	2045
2294890	2795	2007	2048
2295530	2783	1978	2047
2296170	2783	1978	2042
2296810	2769	1969	2070
2297450	2808	1969	2020
2298090	2811	1925	2040
2298730	2796	1930	2060
2299370	2783	1934	2052
2300010	2760	1919	2050
2300650	2762	1923	2060
2301290	2797	1909	2024
2301930	2818	1888	2031
2302570	2800	1859	2106
2303210	2781	1826	2149
2303850	2779	1782	2142
2304490	2805	1753	2120
2305130	2816	1762	2152
2305770	2836	1796	2187
2306410	2848	1836	2208
2307050	2823	1865	2247
2307690	2826	1887	2242
2308330	2785	1886	2213
2308970	2747	1869	2202
2309610	2742	1857	2174
2310250	2772	1860	2163
2310890	2808	1880	2183
2311530	2836	1906	2206
2312170	2843	1940	2194
2312810	2830	1964	2156
2313450	2802	1976	2120
2314090	2780	1974	2071
2314730	2779	1969	2025
2315370	2778	1985	2029
2316010	2778	1994	2053
2316650	2766	1986	2063
2317290	2744	1980	2059
2317930	2723	1965	2039
2318570	2711	1963	2028
2319210	2697	1978	2065
2319850	2718	1918	2026
2320490	2769	1976	2058
2321130	2868	1972	2128
2321770	3035	2006	2084
2322410	3069	2045	2196
2323050	3014	2006	2306
2323690	2982	1937	2249
2324330	2860	1925	2153
2324970	2761	1994	2073
2325610	2712	2037	2006
2326250	2663	2066	1996
2326890	2666	2107	1979
2327530	2721	2109	1975
2328170	2782	2093	2035
2328810	2853	2090	2108
2329450	2863	2074	2163
2330090	2829	2090	2169
2330730	2791	2105	2090
2331370	2753	2114	2038
2332010	2737	2115	2027
2332650	2741	2105	2007
2333290	2749	2087	2028
2333930	2745	2077	2104
2334570	2754	2080	2153
2335210	2760	2079	2148
2335850	2755	2073	2139
2336490	2736	2077	2126
2337130	2746	2084	2099
2337770	2766	2079	2085
2338410	2766	2078	2100
2339050	2783	2077	2135
2339690	2808	2068	2135
2340330	2878	2072	2104
2340970	2933	1984	2077
2341610	2925	1920	2113
2342250	2929	1911	2138
2342890	2923	1948	2117
2343530	2857	1985	2079
2344170	2775	1983	2068
2344810	2711	1977	2050
2345450	2699	1953	1996
2346090	2710	1934	1994
2346730	2755	1930	2009
2347370	2790	1926	2065
2348010	2813	1925	2128
2348650	2827	1928	2140
2349290	2819	1939	2098
2349930	2791	1941	2062
2350570	2769	1946	2049
2351210	2765	1949	2035
2351850	2799	1946	2037
2352490	2819	1958	2074
2353130	2834	1960	2093
2353770	2833	1971	2071
2354410	2809	1966	2058
2355050	2783	1979	2049
2355690	2773	1977	2020
2356330	2779	1970	2028
2356970	2799	1968	2040
2357610	2815	1970	2054
2358250	2817	1973	2070
2358890	2809	1977	2065
2359530	2798	1976	2057
2360170	2797	1984	2038
2360810	2802	1977	2046
2361450	2810	1972	2057
2362090	2814	1969	2062
2362730	2809	1968	2072
2363370	2805	1968	2065
2364010	2800	1970	2054
2364650	2800	1971	2046
2365290	2797	1967	2044
2365930	2805	1967	2043
2366570	2800	1962	2066
2367210	2802	1973	2064
2367850	2798	1980	2059
2368490	2806	1972	2024
2369130	2792	1985	2047
2369770	2798	1977	2047
2370410	2803	1977	2048
2371050	2822	1977	2043
2371690	2822	1977	2049
2372330	2810	1977	2059
2372970	2803	1976	2050
2373610	2798	1978	2035
2374250	2791	1978	2043
2374890	2797	1972	2043
2375530	2804	1968	2051
2376170	2812	1956	2048
2376810	2800	1961	2067
2377450	2805	1961	2036
2378090	2804	1962	2025
2378730	2810	1968	2026
2379370	2809	1972	2038
2380010	2818	1989	2035
2380650	2796	1988	2046
2381290	2766	2008	2061
2381930	2755	2013	2048
2382570	2755	2014	2035
2383210	2761	2029	2049
2383850	2762	2036	2066
2384490	2789	2043	2071
2385130	2799	2051	2097
2385770	2796	2052	2119
2386410	2794	2068	2141
2387050	2789	2081	2162
2387690	2768	2099	2196
2388330	2731	2106	2272
2388970	2763	2116	2273
2389610	2808	2106	2292
2390250	2860	2090	2311
2390890	2892	2063	2324
2391530	2848	2063	2370
2392170	2826	2069	2358
2392810	2804	2056	2273
2393450	2762	2088	2228
2394090	2762	2110	2201
2394730	2770	2105	2186
2395370	2779	2106	2195
2396010	2793	2098	2221
2396650	2816	2077	2239
2397290	2809	2046	2247
2397930	2777	2049	2241
2398570	2757	2076	2218
2399210	2737	2092	2182
2399850	2724	2113	2198
2400490	2740	2106	2199
2401130	2760	2082	2201
2401770	2771	2067	2231
2402410	2774	2072	2241
2403050	2763	2079	2230
2403690	2767	2075	2204
2404330	2773	2043	2170
2404970	2766	2036	2165
2405610	2775	2040	2164
2406250	2769	2021	2148
2406890	2764	2021	2119
2407530	2778	2040	2080
2408170	2799	2040	2068
2408810	2833	1993	2060
2409450	2855	1936	2132
2410090	2901	1910	2120
2410730	2892	1922	2175
2411370	2867	1949	2185
2412010	2858	1971	2095
2412650	2795	1978	2095
2413290	2755	1972	2075
2413930	2769	1932	2023
2414570	2764	1906	2053
2415210	2781	1883	2084
2415850	2808	1873	2103
2416490	2836	1873	2112
2417130	2851	1864	2107
2417770	2868	1872	2096
2418410	2841	1883	2099
2419050	2791	1895	2103
2419690	2765	1908	2090
2420330	2751	1925	2049
2420970	2747	1931	2056
2421610	2767	1920	2052
2422250	2784	1916	2076
2422890	2792	1910	2108
2423530	2805	1904	2114
2424170	2801	1900	2104
2424810	2794	1910	2088
2425450	2784	1912	2080
2426090	2766	1911	2096
2426730	2763	1911	2108
2427370	2768	1900	2108
2428010	2766	1904	2117
2428650	2768	1896	2125
2429290	2781	1878	2121
2429930	2805	1879	2113
2430570	2803	1869	2137
2431210	2813	1905	2118
2431850	2806	1909	2115
2432490	2841	1911	2056
2433130	2853	1928	2039
2433770	2868	1942	2054
2434410	2851	1948	2081
2435050	2817	1937	2075
2435690	2794	1948	2050
2436330	2756	1950	2044
2436970	2727	1951	2049
2437610	2731	1969	2034
2438250	2743	2003	2040
2438890	2770	2034	2072
2439530	2800	2058	2069
2440170	2828	2060	2048
2440810	2810	2078	2085
2441450	2783	2087	2075
2442090	2756	2102	2045
2442730	2724	2108	2049
2443370	2732	2125	2055
2444010	2793	2131	2045
2444650	2849	2123	2052
2445290	2889	2129	2096
2445930	2924	2129	2130
2446570	2919	2117	2130
2447210	2879	2112	2123
2447850	2839	2097	2077
2448490	2791	2093	2050
2449130	2757	2105	2060
2449770	2760	2116	2060
2450410	2769	2108	2070
2451050	2771	2118	2102
2451690	2760	2125	2135
2452330	2764	2141	2099
2452970	2758	2135	2095
2453610	2769	2137	2061
2454250	2775	2133	2068
2454890	2774	2131	2094
2455530	2779	2118	2107
2456170	2802	2093	2081
2456810	2803	2087	2079
2457450	2807	2080	2081
2458090	2829	2081	2076
2458730	2809	2063	2084
2459370	2831	2061	2101
2460010	2872	2044	2110
2460650	2879	2012	2108
2461290	2862	2004	2146
2461930	2836	2017	2164
2462570	2805	2027	2129
2463210	2776	2020	2110
2463850	2739	2013	2131
2464490	2723	2008	2129
2465130	2740	1998	2110
2465770	2762	1983	2122
2466410	2789	1971	2153
2467050	2815	1964	2156
2467690	2825	1959	2169
2468330	2824	1951	2173
2468970	2818	1939	2146
2469610	2804	1932	2130
2470250	2788	1927	2130
2470890	2778	1921	2117
2471530	2773	1919	2113
2472170	2769	1907	2120
2472810	2752	1910	2148
2473450	2778	1906	2106
2474090	2776	1908	2135
2474730	2806	1916	2101
2475370	2818	1926	2122
2476010	2822	1914	2142
2476650	2832	1919	2125
2477290	2828	1914	2113
2477930	2813	1917	2107
2478570	2788	1922	2089
2479210	2777	1910	2088
2479850	2788	1899	2094
2480490	2799	1898	2100
2481130	2809	1910	2109
2481770	2808	1924	2115
2482410	2794	1911	2105
2483050	2777	1918	2084
2483690	2770	1916	2056
2484330	2759	1930	2070
2484970	2766	1927	2064
2485610	2790	1916	2077
2486250	2795	1903	2111
2486890	2802	1898	2121
2487530	2795	1911	2120
2488170	2789	1920	2111
2488810	2804	1922	2096
2489450	2821	1924	2097
2490090	2827	1936	2115
2490730	2845	1969	2132
2491370	2839	1985	2128
2492010	2818	1965	2121
2492650	2800	1938	2108
2493290	2790	1929	2103
2493930	2788	1926	2135
2494570	2816	1965	2132
2495210	2823	1955	2175
2495850	2812	1982	2186
2496490	2798	1992	2150
2497130	2769	1997	2149
2497770	2764	1987	2143
2498410	2778	1973	2134
2499050	2794	1974	2148
2499690	2799	1991	2167
2500330	2799	1997	2165
2500970	2797	1988	2153
2501610	2798	1985	2133
2502250	2806	1982	2122
2502890	2808	1986	2140
2503530	2817	1990	2133
2504170	2803	1983	2152
2504810	2851	1963	2177
2505450	2664	2032	1973
2506090	2773	1953	2170
2506730	2835	2000	2379
2507370	2992	2107	2180
2508010	2750	1933	1845
2508650	2780	2016	2110
2509290	2681	2005	2033
2509930	2711	1938	1889
2510570	2831	1978	2065
2511210	2877	1979	2302
2511850	2826	1967	2180
