Time Stamp	Low Noise Accelerometer X	Low Noise Accelerometer Y	Low Noise Accelerometer Z
RAW	RAW	RAW	RAW
no units	no units	no units	no units
16223916	1200	2076	2007
16224556	1198	2075	2007
16225196	1197	2076	2005
16225836	1198	2077	2006
16226476	1200	2074	2006
16227116	1198	2073	2004
16227756	1200	2074	2006
16228396	1202	2073	2006
16229036	1197	2072	2006
16229676	1197	2080	2006
16230316	1196	2078	2008
16230956	1198	2077	2007
16231596	1198	2079	2005
16232236	1197	2076	2002
16232876	1202	2074	2001
16233516	1204	2073	2002
16234156	1205	2073	2001
16234796	1202	2075	2002
16235436	1199	2075	2003
16236076	1200	2078	2007
16236716	1196	2078	2008
16237356	1201	2077	2012
16237996	1198	2073	2011
16238636	1196	2076	2013
16239276	1200	2074	2013
16239916	1199	2078	2013
16240556	1201	2083	2011
16241196	1200	2082	2010
16241836	1200	2080	2010
16242476	1197	2079	2011
16243116	1198	2085	2013
16243756	1200	2083	2013
16244396	1202	2080	2016
16245036	1201	2082	2019
16245676	1203	2078	2021
16246316	1204	2075	2027
16246956	1201	2071	2028
16247596	1200	2071	2033
16248236	1195	2068	2036
16248876	1197	2067	2037
16249516	1195	2069	2038
16250156	1195	2067	2040
16250796	1197	2069	2040
16251436	1202	2069	2037
16252076	1201	2066	2038
16252716	1197	2066	2041
16253356	1197	2068	2042
16253996	1195	2067	2044
16254636	1195	2066	2047
16255276	1191	2071	2053
16255916	1196	2073	2055
16256556	1198	2072	2058
16257196	1200	2071	2059
16257836	1202	2070	2062
16258476	1200	2068	2063
16259116	1202	2065	2066
16259756	1202	2064	2068
16260396	1198	2063	2070
16261036	1199	2061	2070
16261676	1199	2060	2073
16262316	1203	2060	2073
16262956	1195	2063	2076
16263596	1196	2064	2078
16264236	1196	2067	2078
16264876	1192	2067	2078
16265516	1191	2066	2079
16266156	1190	2069	2079
16266796	1192	2074	2078
16267436	1200	2074	2076
16268076	1208	2071	2076
16268716	1202	2070	2076
16269356	1199	2067	2079
16269996	1201	2065	2082
16270636	1198	2064	2086
16271276	1206	2064	2085
16271916	1191	2057	2089
16272556	1195	2063	2091
16273196	1196	2067	2092
16273836	1196	2065	2092
16274476	1196	2063	2090
16275116	1198	2065	2091
16275756	1202	2063	2088
16276396	1200	2065	2087
16277036	1198	2065	2087
16277676	1202	2064	2086
16278316	1202	2064	2086
16278956	1203	2061	2087
16279596	1200	2063	2087
16280236	1196	2065	2089
16280876	1197	2067	2089
16281516	1200	2065	2091
16282156	1200	2063	2092
16282796	1198	2064	2092
16283436	1198	2062	2093
16284076	1198	2067	2094
16284716	1197	2067	2093
16285356	1196	2065	2094
16285996	1198	2062	2091
16286636	1201	2061	2090
16287276	1198	2057	2089
16287916	1200	2057	2087
16288556	1199	2057	2087
16289196	1198	2062	2086
16289836	1197	2059	2088
16290476	1200	2056	2088
16291116	1200	2058	2089
16291756	1195	2056	2090
16292396	1194	2057	2087
16293036	1197	2056	2087
16293676	1201	2058	2086
16294316	1202	2060	2086
16294956	1203	2060	2086
16295596	1201	2060	2086
16296236	1200	2059	2088
16296876	1199	2059	2090
16297516	1203	2060	2091
16298156	1190	2056	2093
16298796	1202	2055	2092
16299436	1197	2063	2093
16300076	1198	2061	2093
16300716	1195	2060	2094
16301356	1196	2060	2093
16301996	1197	2058	2091
16302636	1199	2057	2092
16303276	1202	2056	2090
16303916	1202	2057	2090
16304556	1202	2057	2090
16305196	1199	2059	2088
16305836	1200	2059	2089
16306476	1201	2057	2087
16307116	1197	2060	2087
16307756	1196	2060	2086
16308396	1196	2057	2085
16309036	1197	2057	2085
16309676	1196	2057	2082
16310316	1199	2057	2082
16310956	1199	2059	2080
16311596	1200	2060	2080
16312236	1202	2059	2081
16312876	1201	2063	2083
16313516	1199	2061	2081
16314156	1197	2058	2080
16314796	1197	2061	2082
16315436	1201	2060	2082
16316076	1200	2059	2084
16316716	1200	2062	2083
16317356	1197	2063	2081
16317996	1195	2064	2081
16318636	1198	2065	2077
16319276	1200	2064	2077
16319916	1199	2064	2077
16320556	1200	2059	2076
16321196	1202	2059	2076
16321836	1203	2062	2076
16322476	1202	2064	2077
16323116	1200	2066	2080
16323756	1197	2063	2081
16324396	1197	2064	2084
16325036	1201	2059	2085
16325676	1197	2062	2087
16326316	1195	2060	2087
16326956	1200	2056	2087
16327596	1199	2060	2087
16328236	1194	2064	2085
16328876	1198	2068	2083
16329516	1200	2070	2084
16330156	1204	2067	2081
16330796	1204	2063	2082
16331436	1200	2064	2084
16332076	1201	2063	2086
16332716	1199	2066	2086
16333356	1199	2066	2086
16333996	1194	2066	2088
16334636	1195	2068	2089
16335276	1200	2062	2086
16335916	1201	2059	2084
16336556	1200	2061	2084
16337196	1199	2063	2086
16337836	1198	2065	2085
16338476	1200	2062	2084
16339116	1200	2064	2083
16339756	1196	2062	2084
16340396	1196	2061	2084
16341036	1202	2060	2081
16341676	1200	2058	2080
16342316	1193	2060	2080
16342956	1194	2058	2078
16343596	1194	2067	2080
16344236	1195	2066	2080
16344876	1197	2064	2079
16345516	1198	2062	2078
16346156	1197	2057	2075
16346796	1200	2055	2073
16347436	1202	2053	2073
16348076	1200	2054	2073
16348716	1198	2055	2073
16349356	1195	2056	2074
16349996	1194	2058	2073
16350636	1200	2053	2074
16351276	1204	2051	2073
16351916	1200	2054	2071
16352556	1197	2048	2071
16353196	1198	2051	2067
16353836	1199	2050	2067
16354476	1197	2052	2065
16355116	1200	2052	2064
16355756	1198	2054	2064
16356396	1196	2057	2061
16357036	1194	2058	2062
16357676	1199	2056	2063
16358316	1196	2059	2065
16358956	1203	2059	2067
16359596	1200	2050	2068
16360236	1199	2054	2069
16360876	1194	2056	2069
16361516	1187	2060	2071
16362156	1189	2063	2070
16362796	1192	2063	2072
16363436	1188	2064	2069
16364076	1183	2064	2072
16364716	1179	2058	2074
16365356	1162	2067	2083
16365996	1146	2078	2094
16366636	1135	2081	2107
16367276	1129	2087	2120
16367916	1142	2092	2131
16368556	1169	2093	2129
16369196	1180	2078	2110
16369836	1219	2072	2076
16370476	1266	2047	2031
16371116	1310	2043	1997
16371756	1321	2026	1947
16372396	1381	1998	1866
16373036	1409	1962	1786
16373676	1412	1965	1724
16374316	1340	1985	1652
16374956	1304	1992	1594
16375596	1349	1980	1565
16376236	1390	1977	1551
16376876	1369	1976	1543
16377516	1372	1961	1524
16378156	1347	1959	1505
16378796	1336	1956	1496
16379436	1339	1954	1492
16380076	1372	1945	1491
16380716	1391	1951	1487
16381356	1403	1955	1479
16381996	1390	1958	1478
16382636	1383	1966	1475
16383276	1382	1968	1467
16383916	1398	1958	1463
16384556	1395	1966	1462
16385196	1409	1966	1465
16385836	1404	1959	1471
16386476	1396	1951	1464
16387116	1396	1942	1453
16387756	1394	1935	1443
16388396	1408	1939	1435
16389036	1422	1938	1427
16389676	1416	1947	1432
16390316	1400	1961	1451
16390956	1385	1974	1485
16391596	1365	1985	1519
16392236	1361	1991	1550
16392876	1362	1994	1573
16393516	1362	2002	1587
16394156	1352	1998	1582
16394796	1356	1997	1570
16395436	1376	1985	1559
16396076	1386	1986	1551
16396716	1380	1990	1551
16397356	1375	1992	1559
16397996	1348	1989	1566
16398636	1331	1997	1577
16399276	1308	1989	1589
16399916	1291	1998	1610
16400556	1287	2017	1634
16401196	1281	2026	1660
16401836	1272	2036	1685
16402476	1271	2043	1710
16403116	1261	2049	1731
16403756	1253	2061	1749
16404396	1247	2066	1769
16405036	1250	2065	1787
16405676	1259	2059	1801
16406316	1253	2068	1819
16406956	1240	2072	1832
16407596	1233	2070	1842
16408236	1243	2060	1855
16408876	1226	2069	1865
16409516	1223	2079	1872
16410156	1226	2073	1877
16410796	1223	2071	1881
16411436	1224	2075	1887
16412076	1225	2076	1895
16412716	1215	2080	1902
16413356	1217	2085	1905
16413996	1213	2075	1913
16414636	1205	2070	1921
16415276	1201	2068	1927
16415916	1201	2067	1933
16416556	1193	2062	1937
16417196	1193	2069	1940
16417836	1203	2073	1944
16418476	1209	2067	1950
16419116	1200	2069	1952
16419756	1215	2066	1957
16420396	1202	2065	1962
16421036	1201	2063	1968
16421676	1202	2062	1971
16422316	1201	2067	1977
16422956	1199	2070	1987
16423596	1195	2075	1998
16424236	1193	2079	2002
16424876	1196	2075	2003
16425516	1203	2077	2003
16426156	1201	2074	2003
16426796	1202	2073	2003
16427436	1204	2067	2005
16428076	1199	2069	2004
16428716	1204	2071	2005
16429356	1193	2069	2010
16429996	1198	2063	2014
16430636	1204	2067	2012
16431276	1195	2063	2017
16431916	1197	2069	2019
16432556	1198	2070	2026
16433196	1202	2069	2033
16433836	1211	2064	2043
16434476	1205	2066	2055
16435116	1203	2075	2068
16435756	1206	2077	2082
16436396	1225	2070	2096
16437036	1232	2063	2111
16437676	1225	2053	2125
16438316	1224	2046	2132
16438956	1207	2039	2134
16439596	1179	2036	2127
16440236	1180	2040	2126
16440876	1174	2033	2122
16441516	1183	2044	2114
16442156	1188	2051	2106
16442796	1186	2054	2098
16443436	1187	2054	2090
16444076	1194	2046	2088
16444716	1200	2046	2089
16445356	1204	2044	2094
16445996	1207	2050	2102
16446636	1202	2053	2110
16447276	1204	2052	2119
16447916	1207	2050	2127
16448556	1199	2045	2134
16449196	1190	2039	2139
16449836	1195	2048	2141
16450476	1208	2038	2146
16451116	1210	2026	2146
16451756	1207	2027	2146
16452396	1204	2029	2147
16453036	1199	2029	2146
16453676	1200	2026	2146
16454316	1194	2033	2146
16454956	1197	2030	2147
16455596	1199	2023	2149
16456236	1196	2012	2156
16456876	1214	2004	2169
16457516	1221	1998	2183
16458156	1228	1987	2202
16458796	1229	1985	2211
16459436	1222	1986	2219
16460076	1214	1992	2221
16460716	1212	1998	2220
16461356	1210	2002	2215
16461996	1214	2012	2210
16462636	1220	2017	2205
16463276	1220	2016	2201
16463916	1217	2028	2196
16464556	1213	2030	2194
16465196	1203	2031	2194
16465836	1201	2033	2188
16466476	1191	2027	2187
16467116	1186	2020	2180
16467756	1205	2027	2174
16468396	1216	2023	2176
16469036	1213	2028	2176
16469676	1214	2029	2177
16470316	1223	2031	2176
16470956	1234	2040	2184
16471596	1243	2045	2192
16472236	1231	2058	2204
16472876	1225	2070	2218
16473516	1232	2070	2233
16474156	1247	2076	2241
16474796	1247	2083	2250
16475436	1221	2092	2253
16476076	1205	2112	2253
16476716	1208	2115	2247
16477356	1218	2114	2246
16477996	1255	2137	2242
16478636	1278	2142	2244
16479276	1299	2151	2251
16479916	1306	2170	2260
16480556	1306	2208	2266
16481196	1292	2221	2271
16481836	1262	2251	2273
16482476	1280	2259	2272
16483116	1275	2203	2272
16483756	1265	2183	2267
16484396	1254	2184	2262
16485036	1234	2223	2267
16485676	1216	2227	2268
16486316	1192	2255	2256
16486956	1171	2254	2246
16487596	1171	2234	2246
16488236	1165	2223	2262
16488876	1141	2232	2267
16489516	1116	2219	2271
16490156	1118	2261	2267
16490796	1161	2267	2262
16491436	1122	2265	2268
16492076	1089	2283	2258
16492716	1035	2286	2244
16493356	996	2285	2224
16493996	1002	2290	2189
16494636	1044	2287	2164
16495276	1052	2300	2163
16495916	1033	2325	2213
16496556	980	2352	2231
16497196	1038	2346	2153
16497836	1071	2334	2084
16498476	1141	2341	2076
16499116	1164	2289	2107
16499756	1123	2275	2161
16500396	1072	2288	2200
16501036	1035	2286	2226
16501676	1056	2308	2244
16502316	1090	2315	2256
16502956	1110	2342	2261
16503596	1125	2315	2260
16504236	1151	2343	2255
16504876	1177	2369	2260
16505516	1211	2377	2272
16506156	1245	2362	2283
16506796	1308	2355	2276
16507436	1402	2324	2273
16508076	1405	2320	2277
16508716	1425	2312	2267
16509356	1453	2311	2258
16509996	1484	2288	2254
16510636	1493	2262	2265
16511276	1504	2241	2271
16511916	1480	2223	2286
16512556	1482	2203	2302
16513196	1508	2201	2319
16513836	1498	2201	2323
16514476	1505	2187	2313
16515116	1479	2148	2292
16515756	1445	2122	2282
16516396	1433	2120	2276
16517036	1438	2141	2269
16517676	1456	2131	2275
16518316	1451	2103	2285
16518956	1461	2089	2297
16519596	1443	2076	2304
16520236	1442	2077	2310
16520876	1399	2069	2327
16521516	1391	2072	2342
16522156	1361	2079	2363
16522796	1354	2082	2376
16523436	1341	2058	2396
16524076	1345	2034	2416
16524716	1351	2035	2432
16525356	1292	2050	2469
16525996	1309	2070	2488
16526636	1191	2045	2535
16527276	1341	2055	2523
16527916	1237	2009	2541
16528556	1226	2002	2530
16529196	1203	1984	2518
16529836	1197	1952	2499
16530476	1262	1945	2450
16531116	1223	1902	2432
16531756	1278	1897	2391
16532396	1247	1860	2366
16533036	1239	1860	2341
16533676	1225	1841	2322
16534316	1218	1851	2306
16534956	1204	1872	2295
16535596	1165	1865	2282
16536236	1171	1894	2239
16536876	1172	1904	2203
16537516	1182	1884	2188
16538156	1209	1883	2176
16538796	1239	1902	2168
16539436	1265	1928	2166
16540076	1290	1948	2162
16540716	1287	1948	2157
16541356	1288	1951	2151
16541996	1265	1946	2147
16542636	1243	1938	2145
16543276	1246	1907	2146
16543916	1264	1885	2144
16544556	1277	1865	2145
16545196	1280	1848	2144
16545836	1262	1853	2149
16546476	1254	1866	2158
16547116	1256	1884	2172
16547756	1244	1895	2192
16548396	1232	1893	2204
16549036	1215	1894	2217
16549676	1191	1910	2236
16550316	1234	1935	2235
16550956	1242	1944	2240
16551596	1219	1943	2260
16552236	1237	1947	2278
16552876	1164	1940	2314
16553516	1270	1968	2296
16554156	1137	1937	2351
16554796	1172	1970	2370
16555436	1212	1975	2362
16556076	1228	1949	2356
16556716	1178	1952	2369
16557356	1196	1991	2368
16557996	1238	2035	2357
16558636	1313	2070	2352
16559276	1352	2072	2361
16559916	1352	2106	2379
16560556	1346	2186	2396
16561196	1247	2237	2433
16561836	1256	2292	2434
16562476	1242	2315	2432
16563116	1265	2324	2409
16563756	1296	2311	2373
16564396	1298	2276	2351
16565036	1298	2254	2337
16565676	1299	2256	2318
16566316	1278	2269	2321
16566956	1297	2315	2307
16567596	1299	2326	2298
16568236	1289	2309	2290
16568876	1251	2294	2294
16569516	1188	2258	2294
16570156	1236	2270	2263
16570796	1221	2256	2253
16571436	1253	2226	2234
16572076	1308	2196	2210
16572716	1305	2175	2223
16573356	1313	2191	2235
16573996	1308	2195	2236
16574636	1284	2194	2237
16575276	1229	2188	2247
16575916	1169	2158	2268
16576556	1196	2148	2279
16577196	1238	2148	2284
16577836	1235	2144	2281
16578476	1213	2117	2268
16579116	1186	2119	2254
16579756	1204	2128	2254
16580396	1235	2112	2257
16581036	1249	2074	2258
16581676	1246	2088	2259
16582316	1228	2114	2266
16582956	1223	2107	2264
16583596	1227	2102	2263
16584236	1262	2116	2252
16584876	1263	2138	2250
16585516	1252	2132	2258
16586156	1259	2135	2272
16586796	1264	2164	2286
16587436	1244	2155	2293
16588076	1235	2130	2296
16588716	1239	2129	2296
16589356	1218	2093	2292
16589996	1184	2077	2285
16590636	1168	2093	2268
16591276	1155	2105	2252
16591916	1187	2098	2234
16592556	1224	2074	2219
16593196	1269	2064	2214
16593836	1264	2081	2222
16594476	1238	2093	2233
16595116	1219	2113	2233
16595756	1239	2132	2234
16596396	1273	2127	2239
16597036	1302	2107	2255
16597676	1276	2118	2265
16598316	1267	2177	2273
16598956	1246	2132	2289
16599596	1238	2063	2305
16600236	1256	2005	2325
16600876	1239	2017	2333
16601516	1194	2058	2316
16602156	1152	2094	2303
16602796	1157	2109	2307
16603436	1205	2109	2314
16604076	1232	2094	2317
16604716	1217	2065	2292
16605356	1227	2084	2274
16605996	1237	2114	2279
16606636	1262	2092	2278
16607276	1264	2065	2279
16607916	1261	2077	2282
16608556	1286	2100	2291
16609196	1293	2085	2303
16609836	1291	2076	2322
16610476	1300	2081	2335
16611116	1303	2087	2348
16611756	1284	2069	2356
16612396	1277	2066	2368
16613036	1267	2068	2371
16613676	1273	2076	2379
16614316	1262	2075	2392
16614956	1272	2073	2398
16615596	1254	2075	2407
16616236	1252	2080	2418
16616876	1261	2089	2424
16617516	1264	2083	2430
16618156	1268	2083	2436
16618796	1263	2080	2435
16619436	1259	2077	2435
16620076	1281	2077	2430
16620716	1279	2091	2425
16621356	1309	2112	2405
16621996	1308	2119	2388
16622636	1299	2134	2367
16623276	1292	2143	2343
16623916	1286	2133	2332
16624556	1233	2132	2357
16625196	1240	2179	2356
16625836	1231	2199	2357
16626476	1215	2191	2349
16627116	1232	2175	2338
16627756	1255	2168	2339
16628396	1260	2182	2341
16629036	1275	2192	2341
16629676	1255	2181	2346
16630316	1250	2162	2354
16630956	1272	2167	2364
16631596	1295	2172	2378
16632236	1304	2179	2388
16632876	1322	2195	2389
16633516	1304	2202	2398
16634156	1282	2212	2415
16634796	1293	2206	2408
16635436	1306	2193	2404
16636076	1306	2185	2407
16636716	1309	2186	2407
16637356	1321	2204	2395
16637996	1295	2191	2398
16638636	1292	2184	2392
16639276	1263	2155	2400
16639916	1339	2159	2390
16640556	1354	2145	2390
16641196	1355	2149	2393
16641836	1326	2144	2398
16642476	1264	2147	2408
16643116	1238	2148	2424
16643756	1252	2139	2433
16644396	1224	2099	2428
16645036	1235	2082	2399
16645676	1214	2056	2367
16646316	1239	2029	2344
16646956	1252	1998	2334
16647596	1306	2008	2306
16648236	1338	1996	2276
16648876	1306	1987	2267
16649516	1263	1980	2265
16650156	1212	1990	2279
16650796	1176	2008	2295
16651436	1172	2013	2310
16652076	1176	2013	2295
16652716	1180	2006	2276
16653356	1199	1991	2260
16653996	1232	1951	2254
16654636	1283	1917	2242
16655276	1292	1900	2233
16655916	1296	1900	2231
16656556	1314	1908	2222
16657196	1332	1922	2204
16657836	1296	1932	2213
16658476	1095	1880	2306
16659116	1234	1969	2284
16659756	1188	1942	2315
16660396	1132	1976	2354
16661036	1128	2034	2349
16661676	1135	2070	2321
16662316	1149	2071	2302
16662956	1253	2067	2277
16663596	1347	2069	2268
16664236	1364	2076	2281
16664876	1362	2104	2293
16665516	1349	2133	2302
16666156	1315	2141	2317
16666796	1235	2140	2355
16667436	1216	2146	2379
16668076	1218	2139	2380
16668716	1206	2132	2371
16669356	1210	2125	2357
16669996	1231	2121	2344
16670636	1256	2108	2344
16671276	1283	2099	2343
16671916	1299	2091	2345
16672556	1300	2095	2353
16673196	1283	2106	2363
16673836	1276	2115	2371
16674476	1268	2115	2381
16675116	1269	2106	2383
16675756	1266	2102	2385
16676396	1269	2096	2386
16677036	1273	2092	2386
16677676	1267	2088	2387
16678316	1268	2086	2384
16678956	1268	2098	2384
16679596	1270	2107	2388
16680236	1264	2105	2388
16680876	1271	2096	2386
16681516	1266	2091	2381
16682156	1260	2090	2381
16682796	1260	2080	2379
16683436	1266	2080	2375
16684076	1266	2079	2373
16684716	1262	2081	2371
16685356	1264	2086	2366
16685996	1260	2093	2365
16686636	1263	2096	2358
16687276	1270	2096	2357
16687916	1277	2097	2351
16688556	1279	2099	2347
16689196	1276	2105	2346
16689836	1269	2105	2346
16690476	1272	2115	2346
16691116	1270	2118	2350
16691756	1264	2120	2351
16692396	1260	2122	2355
16693036	1255	2120	2357
16693676	1257	2113	2358
16694316	1257	2114	2358
16694956	1259	2110	2360
16695596	1256	2107	2361
16696236	1256	2113	2358
16696876	1255	2116	2354
16697516	1261	2122	2352
16698156	1264	2119	2352
16698796	1262	2124	2351
16699436	1264	2114	2348
16700076	1265	2113	2344
16700716	1257	2112	2345
16701356	1254	2114	2344
16701996	1259	2106	2341
16702636	1269	2108	2344
16703276	1270	2105	2348
16703916	1279	2112	2349
16704556	1271	2118	2349
16705196	1255	2124	2354
16705836	1273	2119	2346
16706476	1291	2123	2340
16707116	1309	2121	2330
16707756	1258	2117	2354
16708396	1243	2132	2364
16709036	1242	2140	2351
16709676	1234	2136	2335
16710316	1252	2137	2323
16710956	1246	2125	2337
16711596	1307	2124	2322
16712236	1276	2108	2323
16712876	1234	2103	2329
16713516	1224	2105	2326
16714156	1226	2105	2322
16714796	1244	2098	2317
16715436	1255	2084	2313
16716076	1264	2081	2311
16716716	1263	2078	2311
16717356	1253	2082	2314
16717996	1243	2098	2319
16718636	1232	2111	2317
16719276	1228	2112	2309
16719916	1226	2123	2305
16720556	1248	2128	2300
16721196	1274	2129	2299
16721836	1286	2123	2304
16722476	1276	2122	2311
16723116	1264	2119	2316
16723756	1241	2121	2325
16724396	1219	2120	2333
16725036	1229	2125	2339
16725676	1239	2135	2341
16726316	1274	2159	2337
16726956	1273	2174	2342
16727596	1287	2197	2331
16728236	1328	2236	2309
16728876	1329	2274	2305
16729516	1281	2355	2335
16730156	1280	2443	2387
16730796	1324	2391	2418
16731436	1373	2348	2416
16732076	1360	2304	2421
16732716	1314	2285	2447
16733356	1311	2293	2488
16733996	1316	2296	2539
16734636	1367	2262	2572
16735276	1390	2199	2584
16735916	1365	2211	2592
16736556	1297	2216	2636
16737196	1339	2188	2642
16737836	1414	2144	2601
16738476	1389	2083	2595
16739116	1276	2074	2622
16739756	1260	2029	2617
16740396	1277	1985	2584
16741036	1228	1963	2554
16741676	1238	1930	2510
16742316	1210	1941	2482
16742956	1217	1908	2475
16743596	1212	1903	2464
16744236	1248	1967	2431
16744876	1252	2012	2412
16745516	1251	2014	2397
16746156	1285	2058	2386
16746796	1271	2075	2381
16747436	1283	2099	2375
16748076	1291	2179	2372
16748716	1257	2195	2384
16749356	1234	2180	2390
16749996	1232	2163	2392
16750636	1226	2148	2386
16751276	1236	2190	2378
16751916	1220	2124	2378
16752556	1254	2076	2357
16753196	1335	2031	2316
16753836	1358	2058	2273
16754476	1264	2118	2278
16755116	1179	2098	2294
16755756	1223	2007	2287
16756396	1256	2022	2281
16757036	1264	2152	2285
16757676	1283	2201	2298
16758316	1285	2180	2335
16758956	1274	2132	2359
16759596	1239	2135	2365
16760236	1232	2142	2356
16760876	1203	2162	2329
16761516	1215	2141	2299
16762156	1228	2135	2269
16762796	1276	2174	2238
16763436	1301	2242	2224
16764076	1296	2265	2230
16764716	1224	2244	2240
16765356	1218	2248	2217
16765996	1185	2302	2197
16766636	1157	2332	2191
16767276	1150	2336	2190
16767916	1193	2290	2169
16768556	1197	2244	2148
16769196	1203	2215	2132
16769836	1250	2220	2122
16770476	1277	2226	2125
16771116	1293	2219	2134
16771756	1287	2203	2145
16772396	1261	2200	2160
16773036	1253	2203	2170
16773676	1256	2198	2171
16774316	1242	2203	2174
16774956	1245	2201	2168
16775596	1260	2182	2154
16776236	1258	2168	2141
16776876	1319	2138	2122
300	1250	2125	2168
940	1320	2126	2194
1580	1151	2136	2295
2220	1111	2139	2349
2860	1148	2104	2336
3500	1117	2087	2306
4140	1114	2081	2274
4780	1164	2065	2259
5420	1282	2050	2241
6060	1347	2036	2249
6700	1345	2029	2274
7340	1302	2039	2300
7980	1267	2067	2313
8620	1196	2097	2327
9260	1173	2107	2328
9900	1174	2105	2326
10540	1219	2093	2322
11180	1262	2087	2321
11820	1284	2094	2321
12460	1282	2089	2321
13100	1270	2086	2323
13740	1258	2086	2325
14380	1250	2084	2333
15020	1256	2081	2331
15660	1238	2074	2341
16300	1240	2086	2340
16940	1235	2087	2339
17580	1229	2092	2336
18220	1242	2100	2330
18860	1239	2091	2329
19500	1250	2085	2325
20140	1262	2095	2323
20780	1258	2110	2324
21420	1256	2111	2321
22060	1258	2112	2317
22700	1247	2107	2321
23340	1249	2114	2322
23980	1259	2102	2321
24620	1253	2099	2319
25260	1255	2108	2311
25900	1239	2098	2313
26540	1243	2102	2314
27180	1244	2059	2313
27820	1236	1972	2315
28460	1230	1845	2323
29100	1239	1739	2335
29740	1274	1674	2363
30380	1307	1666	2417
31020	1339	1831	2504
31660	1329	2034	2575
32300	1340	2168	2595
32940	1322	2229	2576
33580	1296	2272	2544
34220	1271	2333	2511
34860	1293	2343	2458
35500	1286	2289	2403
36140	1260	2239	2371
36780	1223	2168	2349
37420	1240	2108	2343
38060	1249	2065	2341
38700	1288	2042	2343
39340	1296	2063	2344
39980	1324	2087	2334
40620	1313	2113	2342
41260	1271	2167	2362
41900	1290	2242	2356
42540	1256	2290	2359
43180	1248	2280	2358
43820	1262	2256	2346
44460	1248	2230	2346
45100	1264	2229	2350
45740	1283	2228	2353
46380	1333	2203	2356
47020	1293	2121	2377
47660	1287	2164	2383
48300	1275	2208	2384
48940	1275	2180	2381
49580	1286	2146	2383
50220	1277	2110	2384
50860	1267	2087	2390
51500	1325	2092	2380
52140	1278	2080	2389
52780	1247	2047	2396
53420	1244	2042	2384
54060	1193	1976	2406
54700	1219	1956	2413
55340	1268	1949	2400
55980	1269	1942	2401
56620	1206	1946	2411
57260	1210	1971	2397
57900	1250	1949	2382
58540	1273	1927	2379
59180	1272	1924	2383
59820	1291	1925	2383
60460	1298	1928	2396
61100	1287	1938	2414
61740	1301	1952	2409
62380	1287	1961	2396
63020	1254	1977	2386
63660	1264	1983	2378
64300	1297	1987	2374
64940	1314	1974	2373
65580	1311	1976	2376
66220	1284	1986	2379
66860	1287	2001	2378
67500	1260	2000	2379
68140	1269	1997	2368
68780	1280	1987	2353
69420	1267	1966	2356
70060	1296	1966	2348
70700	1298	1970	2345
71340	1281	1986	2344
71980	1264	1990	2340
72620	1055	2004	2456
73260	1367	2025	2364
73900	1206	2036	2385
74540	1232	2051	2393
75180	1237	2088	2362
75820	1245	2093	2359
76460	1271	2106	2359
77100	1289	2110	2368
77740	1325	2133	2363
78380	1302	2150	2367
79020	1285	2170	2366
79660	1279	2172	2367
80300	1287	2172	2369
80940	1292	2173	2370
81580	1303	2168	2370
82220	1304	2160	2372
82860	1293	2148	2380
83500	1298	2148	2383
84140	1301	2148	2388
84780	1300	2142	2394
85420	1294	2139	2401
86060	1303	2136	2405
86700	1293	2114	2409
87340	1293	2095	2418
87980	1284	2088	2428
88620	1282	2099	2430
89260	1269	2102	2437
89900	1267	2074	2436
90540	1269	2082	2435
91180	1263	2116	2430
91820	1260	2138	2428
92460	1270	2155	2420
93100	1282	2154	2409
93740	1288	2134	2397
94380	1281	2131	2393
95020	1304	2134	2383
95660	1309	2141	2379
96300	1306	2151	2382
96940	1296	2139	2380
97580	1297	2135	2378
98220	1292	2124	2379
98860	1273	2116	2383
99500	1269	2119	2387
100140	1279	2108	2384
100780	1285	2093	2384
101420	1281	2084	2387
102060	1276	2083	2390
102700	1282	2085	2388
103340	1276	2086	2391
103980	1274	2085	2391
104620	1278	2094	2389
105260	1275	2095	2391
105900	1282	2107	2393
106540	1288	2097	2394
107180	1283	2105	2393
107820	1281	2116	2394
108460	1281	2121	2396
109100	1279	2112	2404
109740	1294	2114	2404
110380	1292	2099	2403
111020	1282	2094	2408
111660	1283	2087	2405
112300	1276	2083	2404
112940	1280	2092	2407
113580	1275	2115	2405
114220	1273	2107	2398
114860	1284	2103	2388
115500	1278	2103	2388
116140	1289	2097	2385
116780	1279	2106	2390
117420	1273	2102	2392
118060	1268	2080	2389
118700	1264	2042	2393
119340	1280	2046	2391
119980	1288	2066	2399
120620	1299	2054	2403
121260	1302	2037	2404
121900	1268	2082	2408
122540	1271	2116	2403
123180	1270	2132	2393
123820	1267	2140	2387
124460	1311	2165	2372
125100	1329	2220	2359
125740	1328	2254	2345
126380	1356	2235	2319
127020	1308	2202	2321
127660	1290	2183	2324
128300	1156	2154	2376
128940	1161	2143	2384
129580	1218	2131	2358
130220	1299	2097	2310
130860	1271	2043	2297
131500	1279	2002	2307
132140	1264	1956	2331
132780	1259	1931	2346
133420	1223	1956	2355
134060	1236	1997	2346
134700	1231	1996	2346
135340	1261	2002	2339
135980	1275	1986	2325
136620	1241	1981	2324
137260	1240	1989	2323
137900	1238	1975	2323
138540	1240	1976	2329
139180	1258	1966	2334
139820	1235	1983	2340
140460	1236	2010	2340
141100	1260	2015	2333
141740	1306	2009	2323
142380	1320	2009	2319
143020	1286	2008	2332
143660	1308	2008	2336
144300	1309	2010	2338
144940	1283	2007	2340
145580	1257	1997	2339
146220	1222	1969	2340
146860	1160	1953	2348
147500	1145	1940	2368
148140	1137	1921	2380
148780	1251	1940	2346
149420	1208	1928	2347
150060	1181	1947	2333
150700	1202	1983	2311
151340	1196	2003	2299
151980	1249	2026	2287
152620	1283	2036	2291
153260	1318	2057	2285
153900	1300	2085	2290
154540	1226	2132	2312
155180	1214	2151	2319
155820	1220	2167	2326
156460	1225	2188	2330
157100	1255	2222	2316
157740	1263	2224	2313
158380	1298	2223	2292
159020	1286	2231	2294
159660	1304	2252	2290
160300	1310	2291	2282
160940	1306	2311	2273
161580	1298	2319	2268
162220	1283	2335	2271
162860	1287	2325	2277
163500	1303	2312	2287
164140	1299	2298	2284
164780	1296	2289	2273
165420	1259	2266	2279
166060	1267	2248	2277
166700	1234	2237	2295
167340	1310	2237	2293
167980	1152	2229	2356
168620	1196	2244	2358
169260	1287	2221	2318
169900	1269	2184	2315
170540	1244	2151	2320
171180	1289	2122	2315
171820	1311	2103	2321
172460	1319	2103	2338
173100	1311	2099	2361
173740	1297	2099	2377
174380	1270	2108	2387
175020	1239	2111	2387
175660	1240	2103	2382
176300	1250	2099	2380
176940	1266	2090	2378
177580	1274	2089	2376
178220	1279	2091	2372
178860	1282	2085	2370
179500	1272	2077	2370
180140	1269	2078	2368
180780	1268	2084	2368
181420	1265	2073	2367
182060	1266	2065	2370
182700	1268	2065	2374
183340	1261	2059	2380
183980	1262	2068	2380
184620	1271	2070	2380
185260	1257	2068	2382
185900	1244	2072	2385
186540	1237	2078	2383
187180	1248	2084	2377
187820	1264	2086	2374
188460	1271	2088	2373
189100	1278	2096	2368
189740	1275	2100	2364
190380	1274	2100	2362
191020	1279	2096	2362
191660	1283	2100	2362
192300	1271	2106	2363
192940	1262	2116	2363
193580	1260	2116	2359
194220	1253	2112	2358
194860	1264	2114	2358
195500	1274	2112	2355
196140	1275	2110	2356
196780	1269	2103	2355
197420	1267	2096	2355
198060	1264	2087	2359
198700	1271	2090	2361
199340	1273	2082	2365
199980	1276	2080	2368
200620	1271	2072	2368
201260	1267	2069	2371
201900	1255	2071	2374
202540	1260	2076	2374
203180	1261	2076	2372
203820	1260	2077	2374
204460	1264	2086	2367
205100	1266	2096	2364
205740	1264	2099	2363
206380	1267	2104	2359
207020	1265	2108	2360
207660	1264	2109	2361
208300	1267	2105	2361
208940	1273	2107	2359
209580	1272	2098	2358
210220	1256	2107	2364
210860	1285	2107	2359
211500	1273	2107	2367
212140	1286	2103	2366
212780	1268	2096	2374
213420	1265	2091	2379
214060	1266	2081	2380
214700	1264	2074	2382
215340	1263	2062	2378
215980	1251	2041	2376
216620	1235	2024	2377
217260	1226	1987	2377
217900	1246	1912	2374
218540	1248	1894	2386
219180	1248	1932	2401
219820	1265	1935	2414
220460	1258	1934	2426
221100	1277	1962	2422
221740	1265	2001	2426
222380	1264	2044	2426
223020	1295	2044	2407
223660	1320	2040	2386
224300	1344	2063	2372
224940	1324	2125	2373
225580	1307	2167	2377
226220	1259	2182	2389
226860	1269	2207	2374
227500	1255	2244	2358
228140	1235	2291	2334
228780	1209	2318	2308
229420	1218	2292	2285
230060	1287	2259	2259
230700	1270	2217	2256
231340	1244	2191	2262
231980	1237	2163	2257
232620	1227	2124	2267
233260	1228	2128	2277
233900	1224	2138	2279
234540	1211	2133	2285
235180	1227	2143	2279
235820	1245	2128	2271
236460	1252	2107	2273
237100	1237	2113	2277
237740	1255	2130	2274
238380	1229	2120	2278
239020	1230	2110	2275
239660	1239	2096	2271
240300	1239	2093	2273
240940	1235	2087	2278
241580	1238	2090	2280
242220	1227	2074	2285
242860	1227	2087	2272
243500	1218	2081	2268
244140	1225	2080	2268
244780	1240	2071	2263
245420	1245	2058	2260
246060	1240	2032	2267
246700	1266	2026	2259
247340	1252	2003	2258
247980	1195	1971	2272
248620	1139	1931	2292
249260	1142	1940	2290
249900	1201	1957	2265
250540	1215	1957	2247
251180	1203	1980	2235
251820	1227	1970	2229
252460	1227	1937	2239
253100	1240	1945	2243
253740	1277	1967	2228
254380	1247	1955	2232
255020	1266	1919	2231
255660	1255	1864	2238
256300	1240	1866	2248
256940	1232	1860	2253
257580	1240	1901	2247
258220	1267	1913	2242
258860	1252	1921	2268
259500	1142	1944	2328
260140	1190	1968	2327
260780	1256	1994	2307
261420	1258	2023	2298
262060	1200	2042	2302
262700	1204	2075	2289
263340	1221	2080	2278
263980	1243	2088	2274
264620	1272	2105	2272
265260	1272	2118	2271
265900	1265	2141	2273
266540	1261	2162	2280
267180	1255	2179	2288
267820	1256	2199	2295
268460	1255	2209	2302
269100	1224	2204	2307
269740	1218	2180	2304
270380	1239	2182	2300
271020	1265	2181	2303
271660	1276	2176	2306
272300	1269	2165	2306
272940	1245	2150	2306
273580	1232	2136	2307
274220	1233	2128	2304
274860	1242	2121	2307
275500	1246	2116	2309
276140	1241	2103	2309
276780	1243	2093	2306
277420	1235	2088	2305
278060	1231	2091	2306
278700	1245	2098	2307
279340	1253	2103	2305
279980	1254	2103	2304
280620	1239	2100	2306
281260	1239	2107	2302
281900	1232	2107	2301
282540	1242	2109	2301
283180	1243	2101	2303
283820	1250	2097	2299
284460	1244	2096	2299
285100	1243	2094	2302
285740	1245	2088	2306
286380	1240	2088	2305
287020	1244	2090	2305
287660	1236	2090	2307
288300	1235	2087	2311
288940	1238	2104	2311
289580	1237	2111	2310
290220	1260	2111	2297
290860	1256	2117	2299
291500	1271	2118	2303
292140	1257	2145	2313
292780	1262	2230	2308
293420	1245	2299	2307
294060	1200	2330	2320
294700	1281	2460	2304
295340	1329	2462	2316
295980	1385	2402	2366
296620	1397	2314	2423
297260	1366	2295	2486
297900	1411	2222	2514
298540	1320	2111	2543
299180	1284	2048	2532
299820	1256	2026	2494
300460	1257	1994	2458
301100	1227	1995	2416
301740	1192	2048	2380
302380	1198	2020	2350
303020	1236	2075	2314
303660	1245	2134	2291
304300	1240	2175	2298
304940	1253	2190	2302
305580	1276	2207	2316
306220	1259	2206	2340
306860	1259	2179	2373
307500	1275	2151	2380
308140	1316	2146	2379
308780	1314	2141	2401
309420	1289	2121	2427
310060	1231	2104	2444
310700	1267	2082	2435
311340	1261	2085	2411
311980	1379	2060	2375
312620	1239	2059	2391
313260	1265	2043	2372
313900	1239	2057	2373
314540	1267	2084	2349
315180	1265	2129	2328
315820	1276	2155	2314
316460	1261	2188	2320
317100	1246	2182	2325
317740	1262	2191	2314
318380	1240	2166	2311
319020	1227	2165	2309
319660	1221	2199	2316
320300	1169	2234	2344
320940	1215	2206	2325
321580	1236	2187	2284
322220	1250	2206	2247
322860	1238	2216	2240
323500	1265	2210	2236
324140	1294	2202	2241
324780	1321	2209	2246
325420	1317	2218	2250
326060	1288	2223	2259
326700	1269	2224	2260
327340	1252	2221	2263
327980	1271	2209	2260
328620	1266	2208	2261
329260	1284	2208	2261
329900	1252	2214	2270
330540	1230	2231	2282
331180	1203	2229	2293
331820	1177	2223	2300
332460	1193	2210	2296
333100	1223	2199	2291
333740	1240	2209	2281
334380	1252	2194	2278
335020	1263	2176	2273
335660	1278	2167	2272
336300	1284	2166	2276
336940	1288	2154	2276
337580	1287	2145	2266
338220	1266	2143	2265
338860	1253	2130	2258
339500	1255	2122	2249
340140	1283	2111	2238
340780	1275	2119	2271
341420	1055	2220	2370
342060	1286	2150	2295
342700	1197	2166	2304
343340	1159	2185	2318
343980	1154	2175	2322
344620	1254	2154	2310
345260	1328	2132	2315
345900	1370	2158	2331
346540	1368	2147	2344
347180	1319	2164	2362
347820	1297	2172	2372
348460	1272	2171	2377
349100	1254	2164	2384
349740	1236	2167	2391
350380	1245	2166	2384
351020	1246	2157	2375
351660	1257	2149	2365
352300	1269	2139	2363
352940	1276	2146	2359
353580	1278	2154	2356
354220	1275	2167	2356
354860	1275	2162	2359
355500	1279	2171	2356
356140	1273	2182	2357
356780	1276	2183	2358
357420	1264	2189	2363
358060	1274	2185	2359
358700	1272	2176	2360
359340	1272	2191	2363
359980	1280	2208	2364
360620	1276	2242	2366
361260	1285	2312	2372
361900	1306	2368	2388
362540	1322	2351	2412
363180	1374	2382	2431
363820	1423	2384	2465
364460	1418	2346	2514
365100	1393	2323	2562
365740	1347	2304	2608
366380	1338	2266	2633
367020	1341	2204	2653
367660	1390	2150	2643
368300	1395	2103	2650
368940	1421	2023	2640
369580	1385	1970	2638
370220	1239	1949	2675
370860	1268	1869	2660
371500	1268	1846	2618
372140	1303	1850	2588
372780	1240	1875	2587
373420	1245	1876	2565
374060	1254	1915	2534
374700	1255	1994	2503
375340	1263	2094	2490
375980	1254	2141	2477
376620	1266	2207	2462
377260	1251	2188	2452
377900	1265	2096	2423
378540	1277	2063	2384
379180	1220	2061	2347
379820	1276	2010	2296
380460	1278	1998	2244
381100	1334	2032	2216
381740	1341	2048	2205
382380	1278	2131	2208
383020	1239	2147	2213
383660	1179	2154	2211
384300	1136	2123	2207
384940	1011	2222	2216
385580	1122	2199	2145
386220	1150	2174	2101
386860	1212	2143	2074
387500	1221	2146	2071
388140	1209	2170	2093
388780	1261	2183	2104
389420	1222	2232	2132
390060	1191	2257	2147
390700	1183	2259	2166
391340	1150	2246	2181
391980	1222	2220	2171
392620	1219	2211	2172
393260	1220	2222	2179
393900	1245	2226	2178
394540	1266	2231	2183
395180	1274	2229	2190
395820	1283	2234	2204
396460	1268	2232	2220
397100	1291	2216	2229
397740	1286	2206	2241
398380	1274	2226	2253
399020	1287	2213	2262
399660	1297	2196	2268
400300	1304	2180	2275
400940	1320	2170	2272
401580	1319	2167	2274
402220	1318	2168	2274
402860	1312	2152	2291
403500	1279	2159	2342
404140	1140	2196	2431
404780	1234	2186	2428
405420	1242	2164	2419
406060	1210	2148	2422
406700	1220	2119	2409
407340	1272	2086	2391
407980	1341	2059	2381
408620	1353	2036	2399
409260	1342	2047	2418
409900	1323	2054	2432
410540	1287	2051	2434
411180	1229	2043	2445
411820	1192	2034	2456
412460	1217	2033	2440
413100	1250	2046	2423
413740	1246	2051	2416
414380	1261	2055	2399
415020	1277	2058	2391
415660	1291	2054	2386
416300	1312	2059	2382
416940	1317	2059	2383
417580	1316	2071	2386
418220	1305	2079	2393
418860	1295	2085	2393
419500	1285	2094	2396
420140	1280	2104	2397
420780	1279	2110	2401
421420	1268	2109	2404
422060	1270	2107	2402
422700	1278	2099	2400
423340	1275	2100	2403
423980	1280	2106	2401
424620	1276	2115	2402
425260	1273	2128	2401
425900	1273	2134	2397
426540	1268	2133	2393
427180	1277	2133	2387
427820	1275	2132	2383
428460	1278	2139	2380
429100	1271	2126	2378
429740	1270	2127	2377
430380	1288	2132	2371
431020	1278	2126	2370
431660	1278	2121	2371
432300	1278	2115	2370
432940	1283	2106	2371
433580	1280	2093	2378
434220	1286	2087	2386
434860	1293	2077	2392
435500	1282	2075	2403
436140	1281	2061	2411
436780	1272	2042	2423
437420	1281	2024	2436
438060	1270	1996	2448
438700	1281	1990	2449
439340	1295	1949	2447
439980	1307	1949	2453
440620	1303	1959	2455
441260	1320	1986	2448
441900	1336	2038	2444
442540	1320	2101	2443
443180	1314	2110	2434
443820	1286	2170	2432
444460	1239	2206	2441
445100	1219	2264	2441
445740	1253	2294	2409
446380	1255	2281	2383
447020	1283	2288	2365
447660	1296	2280	2351
448300	1330	2282	2333
448940	1328	2267	2327
449580	1341	2244	2319
450220	1319	2234	2332
450860	1305	2213	2345
451500	1284	2200	2358
452140	1276	2163	2366
452780	1275	2152	2374
453420	1284	2144	2383
454060	1294	2126	2393
454700	1309	2112	2401
455340	1314	2111	2397
455980	1273	2107	2411
456620	1283	2124	2416
457260	1266	2128	2420
457900	1296	2144	2403
458540	1267	2134	2407
459180	1256	2135	2401
459820	1243	2128	2392
460460	1226	2107	2386
461100	1240	2084	2375
461740	1266	2062	2362
462380	1293	2052	2355
463020	1285	2039	2354
463660	1275	2039	2353
464300	1272	2038	2344
464940	1253	2031	2348
465580	1256	2030	2359
466220	1259	2040	2361
466860	1268	2036	2359
467500	1286	2019	2352
468140	1296	1999	2345
468780	1303	1983	2338
469420	1274	1970	2348
470060	1265	1971	2362
470700	1229	1948	2381
471340	1187	1932	2404
471980	1210	1940	2402
472620	1226	1939	2399
473260	1259	1940	2387
473900	1290	1949	2380
474540	1301	1951	2380
475180	1309	1947	2385
475820	1334	1949	2384
476460	1317	1934	2396
477100	1317	1930	2396
477740	1288	1929	2409
478380	1271	1927	2417
479020	1270	1914	2421
479660	1275	1911	2421
480300	1288	1909	2416
480940	1301	1920	2409
481580	1315	1939	2403
482220	1291	1954	2421
482860	1264	1966	2438
483500	1271	2002	2425
484140	1246	2023	2436
484780	1257	2051	2430
485420	1273	2084	2418
486060	1300	2102	2405
486700	1318	2104	2396
487340	1343	2104	2393
487980	1368	2121	2392
488620	1354	2129	2403
489260	1331	2150	2413
489900	1294	2175	2424
490540	1282	2184	2425
491180	1272	2185	2423
491820	1263	2179	2422
492460	1266	2168	2416
493100	1280	2161	2410
493740	1305	2156	2405
494380	1322	2150	2406
495020	1323	2148	2405
495660	1303	2146	2412
496300	1290	2144	2415
496940	1289	2149	2416
497580	1279	2144	2419
498220	1275	2133	2418
498860	1282	2120	2411
499500	1285	2117	2409
500140	1292	2113	2410
500780	1302	2116	2409
501420	1304	2117	2412
502060	1301	2122	2413
502700	1299	2126	2415
503340	1302	2126	2416
503980	1300	2118	2416
504620	1299	2110	2419
505260	1301	2107	2420
505900	1302	2111	2422
506540	1303	2108	2425
507180	1297	2104	2430
507820	1300	2107	2432
508460	1297	2102	2435
509100	1295	2106	2439
509740	1291	2110	2440
510380	1295	2111	2436
511020	1298	2106	2433
511660	1296	2107	2432
512300	1295	2108	2429
512940	1300	2106	2427
513580	1304	2107	2427
514220	1310	2106	2428
514860	1312	2110	2427
515500	1295	2092	2426
516140	1301	2092	2426
516780	1302	2102	2425
517420	1299	2106	2426
518060	1301	2111	2426
518700	1302	2122	2426
519340	1294	2121	2426
519980	1291	2114	2422
520620	1294	2116	2419
521260	1286	2119	2420
521900	1292	2128	2412
522540	1293	2130	2409
523180	1297	2129	2407
523820	1298	2126	2406
524460	1300	2124	2404
525100	1298	2119	2407
525740	1303	2116	2406
526380	1296	2117	2409
527020	1284	2122	2410
527660	1285	2130	2413
528300	1288	2130	2411
528940	1281	2133	2416
529580	1281	2136	2413
530220	1298	2134	2407
530860	1286	2134	2406
531500	1286	2145	2402
532140	1304	2153	2395
532780	1311	2155	2401
533420	1316	2157	2408
534060	1296	2166	2416
534700	1285	2165	2420
535340	1284	2162	2423
535980	1301	2158	2422
536620	1319	2141	2415
537260	1309	2131	2416
537900	1287	2107	2417
538540	1264	2075	2410
539180	1257	2054	2403
539820	1290	2034	2390
540460	1313	2032	2384
541100	1292	2032	2391
541740	1268	2041	2398
542380	1246	2051	2400
543020	1280	2059	2376
543660	1257	2076	2378
544300	1268	2085	2364
544940	1297	2111	2344
545580	1327	2106	2337
546220	1344	2073	2346
546860	1328	2068	2366
547500	1308	2084	2392
548140	1271	2099	2408
548780	1245	2087	2422
549420	1194	2083	2447
550060	1215	2075	2444
550700	1259	2054	2425
551340	1259	2055	2410
551980	1278	2052	2410
552620	1240	2038	2437
553260	1305	2061	2428
553900	1412	2079	2389
554540	1364	2072	2401
555180	1308	2060	2422
555820	1274	2035	2434
556460	1273	2042	2435
557100	1261	2053	2438
557740	1258	2061	2440
558380	1263	2073	2433
559020	1271	2066	2427
559660	1294	2033	2427
560300	1287	2010	2425
560940	1294	2011	2417
561580	1293	2022	2418
562220	1295	2061	2417
562860	1259	2073	2427
563500	1244	2068	2426
564140	1251	2070	2415
564780	1267	2063	2408
565420	1272	2063	2402
566060	1294	2057	2384
566700	1348	2065	2362
567340	1346	2076	2352
567980	1299	2091	2385
568620	1275	2093	2434
569260	1284	2127	2462
569900	1295	2139	2462
570540	1294	2132	2438
571180	1241	2146	2431
571820	1251	2159	2420
572460	1301	2147	2407
573100	1358	2165	2399
573740	1388	2162	2404
574380	1396	2164	2405
575020	1369	2170	2403
575660	1329	2181	2398
576300	1320	2175	2380
576940	1329	2169	2379
577580	1328	2145	2394
578220	1289	2141	2420
578860	1134	2119	2494
579500	1233	2130	2473
580140	1230	2106	2428
580780	1262	2097	2385
581420	1260	2073	2371
582060	1285	2054	2360
582700	1290	2046	2350
583340	1310	2046	2341
583980	1317	2030	2345
584620	1292	2008	2353
585260	1254	1990	2366
585900	1237	1998	2367
586540	1249	1997	2362
587180	1241	1992	2364
587820	1256	1996	2361
588460	1269	2026	2356
589100	1276	2039	2358
589740	1285	2033	2356
590380	1280	2062	2362
591020	1265	2063	2372
591660	1272	2058	2379
592300	1279	2043	2378
592940	1265	2049	2382
593580	1258	2067	2378
594220	1249	2059	2375
594860	1281	2050	2372
595500	1299	2036	2375
596140	1279	2044	2383
596780	1269	2054	2388
597420	1257	2054	2390
598060	1246	2077	2393
598700	1239	2112	2393
599340	1233	2212	2385
599980	1235	2317	2383
600620	1240	2353	2388
601260	1273	2299	2407
601900	1302	2271	2422
602540	1339	2247	2449
603180	1381	2190	2481
603820	1402	2117	2501
604460	1388	2034	2512
605100	1354	1981	2506
605740	1324	1953	2490
606380	1309	1960	2476
607020	1296	1971	2458
607660	1289	1954	2447
608300	1279	1957	2424
608940	1265	1982	2409
609580	1264	1997	2400
610220	1260	2013	2395
610860	1270	2024	2391
611500	1268	2034	2387
612140	1259	2051	2384
612780	1249	2065	2376
613420	1254	2070	2371
614060	1267	2068	2369
614700	1277	2082	2369
615340	1281	2092	2369
615980	1282	2105	2368
616620	1275	2117	2365
617260	1269	2126	2366
617900	1265	2134	2365
618540	1259	2139	2362
619180	1267	2139	2360
619820	1273	2143	2360
620460	1278	2143	2360
621100	1276	2142	2359
621740	1275	2142	2356
622380	1276	2140	2354
623020	1262	2140	2354
623660	1267	2139	2356
624300	1277	2142	2351
624940	1266	2143	2353
625580	1270	2143	2351
626220	1260	2146	2353
626860	1271	2152	2347
627500	1267	2149	2343
628140	1262	2144	2337
628780	1266	2140	2335
629420	1262	2134	2333
630060	1271	2132	2332
630700	1263	2133	2335
631340	1254	2104	2336
631980	1251	2018	2329
632620	1228	1926	2327
633260	1252	1899	2340
633900	1261	1792	2361
634540	1294	1755	2395
635180	1328	1779	2447
635820	1347	1826	2494
636460	1334	1974	2544
637100	1340	2134	2574
637740	1342	2183	2573
638380	1344	2208	2552
639020	1324	2273	2528
639660	1308	2320	2503
640300	1312	2339	2460
640940	1294	2281	2422
641580	1267	2246	2399
642220	1257	2191	2379
642860	1251	2129	2368
643500	1270	2084	2359
644140	1260	2052	2359
644780	1258	2042	2363
645420	1261	2018	2367
646060	1268	2020	2372
646700	1249	2008	2378
647340	1236	1996	2379
647980	1252	1979	2380
648620	1260	1952	2389
649260	1277	1933	2400
649900	1277	1933	2403
650540	1311	1959	2394
651180	1324	2004	2387
651820	1322	2055	2398
652460	1317	2117	2410
653100	1312	2149	2403
653740	1291	2164	2397
654380	1230	2169	2408
655020	1213	2211	2403
655660	1268	2246	2382
656300	1256	2224	2364
656940	1277	2225	2341
657580	1299	2227	2330
658220	1314	2234	2332
658860	1314	2234	2334
659500	1286	2209	2344
660140	1307	2214	2343
660780	1276	2220	2355
661420	1258	2222	2363
662060	1249	2170	2364
662700	1268	2157	2361
663340	1241	2154	2374
663980	1238	2145	2375
664620	1228	2127	2373
665260	1234	2108	2374
665900	1269	2098	2362
666540	1248	2067	2359
667180	1259	2062	2338
667820	1273	2056	2325
668460	1275	2041	2331
669100	1281	2019	2340
669740	1302	2018	2341
670380	1334	2017	2344
671020	1329	2005	2353
671660	1302	2006	2367
672300	1288	2032	2368
672940	1271	2038	2368
673580	1212	2017	2383
674220	1209	2008	2393
674860	1213	2005	2399
675500	1223	2004	2398
676140	1240	1998	2389
676780	1261	1990	2378
677420	1259	1978	2376
678060	1282	1983	2367
678700	1303	1975	2367
679340	1288	1955	2384
679980	1312	1979	2385
680620	1294	1977	2402
681260	1269	1992	2419
681900	1254	1992	2420
682540	1249	1990	2419
683180	1254	1993	2411
683820	1279	1999	2400
684460	1294	1990	2396
685100	1276	1983	2396
685740	1273	1997	2387
686380	1284	2005	2372
687020	1250	2012	2384
687660	1256	2028	2374
688300	1229	2043	2372
688940	1200	2060	2381
689580	1200	2097	2370
690220	1219	2106	2354
690860	1240	2114	2347
691500	1278	2121	2327
692140	1309	2126	2308
692780	1308	2124	2304
693420	1299	2136	2308
694060	1284	2139	2317
694700	1281	2152	2318
695340	1281	2162	2316
695980	1260	2174	2325
696620	1258	2181	2329
697260	1228	2181	2341
697900	1247	2187	2337
698540	1272	2188	2330
699180	1287	2169	2327
699820	1288	2146	2328
700460	1293	2126	2331
701100	1291	2121	2337
701740	1286	2107	2344
702380	1276	2103	2351
703020	1273	2100	2358
703660	1277	2108	2367
704300	1276	2112	2376
704940	1274	2118	2386
705580	1269	2122	2388
706220	1256	2128	2395
706860	1254	2114	2398
707500	1246	2092	2401
708140	1269	2088	2399
708780	1273	2073	2401
709420	1284	2030	2403
710060	1277	1999	2405
710700	1275	1931	2407
711340	1274	1914	2412
711980	1262	1882	2423
712620	1300	1847	2427
713260	1287	1749	2434
713900	1307	1715	2472
714540	1308	1850	2510
715180	1334	1846	2539
715820	1345	1844	2561
716460	1355	1879	2586
717100	1378	1909	2605
717740	1366	1946	2619
718380	1384	1997	2614
719020	1353	2039	2604
719660	1341	2138	2591
720300	1356	2219	2552
720940	1351	2300	2511
721580	1341	2334	2478
722220	1294	2357	2450
722860	1254	2360	2425
723500	1207	2359	2408
724140	1213	2310	2394
724780	1259	2260	2378
725420	1249	2240	2369
726060	1256	2221	2362
726700	1266	2206	2359
727340	1278	2169	2358
727980	1293	2154	2356
728620	1288	2119	2363
729260	1351	2089	2372
729900	1296	2080	2399
730540	1276	2115	2409
731180	1275	2106	2412
731820	1267	2099	2411
732460	1318	2085	2395
733100	1313	2069	2398
733740	1294	2050	2400
734380	1244	2042	2412
735020	1271	2078	2400
735660	1277	2091	2378
736300	1265	2096	2362
736940	1291	2092	2343
737580	1248	2081	2332
738220	1249	2077	2324
738860	1216	2030	2333
739500	1211	2018	2338
740140	1181	1994	2342
740780	1247	1992	2312
741420	1231	1954	2304
742060	1228	1955	2295
742700	1240	1965	2282
743340	1268	1962	2273
743980	1254	1952	2276
744620	1241	1950	2288
745260	1215	1956	2298
745900	1180	1954	2308
746540	1191	1965	2310
747180	1170	1964	2320
747820	1247	2009	2292
748460	1227	1993	2281
749100	1267	1985	2266
749740	1262	1979	2256
750380	1302	1973	2240
751020	1276	1962	2246
751660	1245	1982	2255
752300	1219	1996	2258
752940	1255	1971	2242
753580	1231	1964	2242
754220	1192	1986	2245
754860	1232	2051	2253
755500	1095	2004	2314
756140	1173	2049	2305
756780	1204	2060	2288
757420	1198	2086	2291
758060	1230	2118	2297
758700	1285	2108	2292
759340	1322	2105	2297
759980	1352	2123	2308
760620	1342	2144	2327
761260	1321	2150	2343
761900	1293	2147	2358
762540	1261	2120	2371
763180	1246	2126	2375
763820	1219	2133	2384
764460	1217	2136	2385
765100	1227	2129	2381
765740	1238	2114	2373
766380	1252	2098	2368
767020	1266	2096	2356
767660	1264	2096	2350
768300	1250	2106	2339
768940	1245	2105	2328
769580	1246	2091	2316
770220	1244	2092	2314
770860	1262	2107	2313
771500	1262	2111	2315
772140	1254	2119	2312
772780	1251	2118	2312
773420	1255	2088	2310
774060	1251	2062	2312
774700	1255	2062	2311
775340	1248	2065	2313
775980	1248	2066	2314
776620	1241	2064	2314
777260	1234	2060	2316
777900	1243	2060	2315
778540	1251	2060	2316
779180	1248	2055	2316
779820	1248	2064	2311
780460	1242	2073	2310
781100	1239	2094	2309
781740	1241	2116	2310
782380	1248	2144	2313
783020	1252	2211	2309
783660	1249	2285	2306
784300	1255	2254	2313
784940	1267	2190	2322
785580	1277	2165	2330
786220	1273	2096	2339
786860	1265	2018	2344
787500	1246	1999	2334
788140	1229	2042	2327
788780	1236	2060	2325
789420	1245	2067	2325
790060	1269	2080	2326
790700	1264	2033	2329
791340	1260	2036	2326
791980	1250	2051	2324
792620	1249	2063	2325
793260	1248	2068	2325
793900	1251	2077	2326
794540	1250	2077	2327
795180	1244	2093	2325
795820	1235	2097	2326
796460	1231	2098	2321
797100	1237	2095	2316
797740	1249	2091	2312
798380	1254	2087	2313
799020	1268	2085	2310
799660	1254	2089	2312
800300	1245	2093	2311
800940	1246	2094	2308
801580	1238	2099	2310
802220	1235	2106	2312
802860	1247	2105	2310
803500	1250	2106	2308
804140	1244	2105	2312
804780	1248	2101	2313
805420	1253	2095	2311
806060	1251	2088	2315
806700	1254	2085	2317
807340	1243	2082	2322
807980	1245	2078	2322
808620	1248	2068	2323
809260	1243	2071	2326
809900	1247	2069	2326
810540	1252	2074	2323
811180	1257	2085	2320
811820	1238	2099	2321
812460	1241	2105	2314
813100	1250	2108	2310
813740	1257	2112	2307
814380	1272	2122	2303
815020	1253	2127	2309
815660	1243	2150	2310
816300	1242	2167	2305
816940	1249	2225	2297
817580	1245	2303	2296
818220	1233	2311	2293
818860	1239	2312	2299
819500	1272	2411	2302
820140	1315	2462	2306
820780	1320	2436	2331
821420	1331	2394	2365
822060	1330	2338	2408
822700	1327	2282	2433
823340	1331	2241	2457
823980	1289	2170	2477
824620	1300	2161	2477
825260	1315	2165	2464
825900	1306	2174	2449
826540	1303	2147	2424
827180	1324	2170	2396
827820	1320	2194	2373
828460	1323	2228	2361
829100	1310	2234	2364
829740	1256	2206	2379
830380	1256	2215	2389
831020	1275	2151	2388
831660	1272	2083	2391
832300	1292	2050	2392
832940	1263	2038	2400
833580	1255	2011	2396
834220	1285	2025	2398
834860	1192	2053	2421
835500	1199	2036	2432
836140	1234	2044	2415
836780	1222	2054	2408
837420	1263	2059	2390
838060	1257	2098	2398
838700	1275	2058	2399
839340	1290	2048	2382
839980	1343	2104	2367
840620	1314	2092	2376
841260	1302	2095	2388
841900	1284	2086	2397
842540	1259	2046	2395
843180	1283	2080	2385
843820	1287	2113	2377
844460	1254	2123	2376
845100	1257	2174	2375
845740	1255	2162	2369
846380	1300	2194	2357
847020	1279	2202	2368
847660	1290	2188	2359
848300	1285	2240	2363
848940	1267	2210	2358
849580	1249	2156	2341
850220	1221	2161	2332
850860	1181	2188	2341
851500	1146	2107	2306
852140	1129	2144	2289
852780	1301	2061	2211
853420	1255	2070	2193
854060	1187	2084	2220
854700	1158	2160	2224
855340	1245	2161	2188
855980	1264	2198	2172
856620	1227	2161	2181
857260	1242	2170	2192
857900	1256	2160	2198
858540	1218	2182	2201
859180	1188	2163	2202
859820	1206	2185	2203
860460	1252	2230	2205
861100	1227	2231	2218
861740	1187	2241	2229
862380	1248	2218	2212
863020	1271	2236	2215
863660	1260	2202	2219
864300	1251	2175	2223
864940	1243	2143	2225
865580	1248	2159	2222
866220	1266	2191	2216
866860	1279	2190	2209
867500	1252	2172	2214
868140	1265	2114	2223
868780	1251	2113	2229
869420	1268	2109	2232
870060	1193	2126	2273
870700	1182	2086	2288
871340	1103	2133	2318
871980	1113	2154	2332
872620	1302	2075	2285
873260	1230	2064	2303
873900	1258	2072	2305
874540	1281	2072	2306
875180	1280	2064	2318
875820	1279	2042	2327
876460	1283	2027	2327
877100	1263	2040	2337
877740	1244	2048	2340
878380	1246	2074	2330
879020	1236	2070	2322
879660	1223	2070	2317
880300	1246	2071	2309
880940	1262	2080	2299
881580	1252	2094	2301
882220	1242	2100	2299
882860	1245	2109	2291
883500	1250	2114	2293
884140	1244	2117	2296
884780	1253	2122	2291
885420	1246	2132	2292
886060	1244	2136	2292
886700	1258	2134	2300
887340	1256	2126	2307
887980	1257	2126	2310
888620	1241	2130	2316
889260	1239	2134	2317
889900	1250	2136	2320
890540	1251	2139	2320
891180	1247	2146	2317
891820	1243	2142	2313
892460	1246	2141	2308
893100	1246	2150	2306
893740	1256	2150	2302
894380	1248	2146	2302
895020	1247	2137	2300
895660	1249	2134	2300
896300	1253	2130	2298
896940	1247	2139	2301
897580	1243	2139	2301
898220	1247	2131	2300
898860	1249	2131	2300
899500	1245	2149	2300
900140	1245	2161	2297
900780	1240	2155	2299
901420	1241	2144	2299
902060	1247	2138	2294
902700	1247	2136	2289
903340	1246	2129	2286
903980	1247	2141	2290
904620	1252	2143	2289
905260	1248	2137	2291
905900	1250	2150	2290
906540	1236	2167	2296
907180	1249	2188	2290
907820	1248	2261	2289
908460	1274	2330	2285
909100	1281	2393	2292
909740	1318	2446	2308
910380	1334	2450	2342
911020	1368	2448	2382
911660	1369	2353	2453
912300	1339	2190	2494
912940	1306	2110	2507
913580	1298	2037	2491
914220	1226	1963	2477
914860	1195	1939	2447
915500	1211	1947	2411
916140	1190	1925	2380
916780	1219	1948	2339
917420	1243	2019	2319
918060	1219	2088	2323
918700	1234	2080	2320
919340	1247	2091	2322
919980	1284	2100	2325
920620	1266	2079	2335
921260	1284	2100	2325
921900	1266	2107	2336
922540	1245	2087	2347
923180	1242	2069	2340
923820	1254	2099	2321
924460	1255	2114	2308
925100	1240	2104	2305
925740	1233	2121	2302
926380	1241	2142	2300
927020	1253	2151	2295
927660	1232	2169	2296
928300	1235	2179	2295
928940	1237	2200	2293
929580	1266	2180	2279
930220	1248	2190	2275
930860	1231	2189	2276
931500	1244	2157	2270
932140	1250	2166	2257
932780	1225	2173	2264
933420	1243	2167	2250
934060	1214	2195	2272
934700	1242	2144	2265
935340	1219	2167	2261
935980	1211	2168	2258
936620	1241	2140	2239
937260	1247	2129	2231
937900	1236	2136	2236
938540	1236	2146	2233
939180	1255	2149	2224
939820	1248	2161	2224
940460	1241	2157	2226
941100	1237	2140	2223
941740	1236	2158	2225
942380	1221	2159	2226
943020	1191	2166	2227
943660	1179	2157	2214
944300	1176	2168	2205
944940	1186	2157	2199
945580	1183	2171	2189
946220	1201	2186	2172
946860	1172	2194	2177
947500	1169	2170	2170
948140	1277	2191	2144
948780	1269	2192	2145
949420	1263	2159	2143
950060	1211	2115	2148
950700	1209	2098	2142
951340	1231	2166	2141
951980	1236	2203	2147
952620	1234	2177	2139
953260	1232	2155	2131
953900	1237	2137	2112
954540	1260	2169	2098
955180	1239	2185	2114
955820	1259	2161	2124
956460	1257	2135	2143
957100	1221	2125	2175
957740	1076	2156	2248
958380	1159	2155	2235
959020	1224	2114	2205
959660	1199	2101	2220
960300	1218	2105	2235
960940	1266	2102	2248
961580	1287	2100	2265
962220	1285	2096	2282
962860	1268	2090	2297
963500	1222	2086	2303
964140	1180	2090	2300
964780	1183	2078	2293
965420	1207	2063	2284
966060	1229	2061	2276
966700	1244	2068	2270
967340	1246	2071	2266
967980	1244	2070	2268
968620	1237	2074	2269
969260	1234	2078	2267
969900	1231	2082	2267
970540	1220	2082	2269
971180	1232	2076	2271
971820	1231	2081	2271
972460	1225	2088	2272
973100	1229	2093	2272
973740	1238	2097	2271
974380	1232	2102	2267
975020	1229	2115	2265
975660	1230	2118	2259
976300	1222	2118	2257
976940	1219	2117	2254
977580	1227	2092	2250
978220	1234	2058	2246
978860	1234	2010	2243
979500	1222	1987	2241
980140	1225	1900	2245
980780	1237	1818	2255
981420	1249	1737	2270
982060	1260	1781	2314
982700	1284	1894	2373
983340	1309	2060	2424
983980	1301	2155	2447
984620	1287	2214	2440
985260	1249	2231	2426
985900	1231	2299	2401
986540	1234	2308	2376
987180	1252	2284	2348
987820	1261	2259	2328
988460	1258	2220	2312
989100	1242	2184	2304
989740	1245	2150	2293
990380	1243	2121	2284
991020	1240	2084	2279
991660	1231	2064	2278
992300	1214	2060	2281
992940	1219	2066	2290
993580	1208	2070	2298
994220	1230	2082	2295
994860	1227	2083	2298
995500	1242	2093	2302
996140	1263	2110	2308
996780	1273	2129	2305
997420	1277	2144	2303
998060	1268	2154	2301
998700	1273	2184	2302
999340	1279	2213	2299
999980	1256	2224	2310
1000620	1252	2238	2315
1001260	1252	2244	2307
1001900	1254	2233	2303
1002540	1269	2212	2293
1003180	1251	2194	2301
1003820	1272	2194	2304
1004460	1260	2180	2317
1005100	1254	2169	2324
1005740	1236	2162	2332
1006380	1235	2178	2336
1007020	1242	2182	2334
1007660	1244	2182	2332
1008300	1265	2173	2322
1008940	1280	2159	2320
1009580	1281	2142	2326
1010220	1294	2115	2326
1010860	1284	2095	2327
1011500	1269	2103	2328
1012140	1262	2114	2332
1012780	1242	2118	2336
1013420	1194	2106	2351
1014060	1253	2121	2338
1014700	1248	2115	2329
1015340	1244	2119	2322
1015980	1261	2118	2315
1016620	1242	2091	2326
1017260	1210	2055	2354
1017900	1235	2077	2341
1018540	1284	2089	2302
1019180	1255	2072	2290
1019820	1264	2039	2285
1020460	1267	2007	2294
1021100	1267	1988	2307
1021740	1247	1989	2324
1022380	1222	1970	2334
1023020	1196	1958	2343
1023660	1194	1973	2340
1024300	1211	1971	2337
1024940	1229	1957	2330
1025580	1261	1964	2321
1026220	1255	1953	2326
1026860	1261	1942	2326
1027500	1294	1956	2317
1028140	1254	1944	2329
1028780	1265	1952	2326
1029420	1254	1940	2326
1030060	1247	1939	2320
1030700	1225	1930	2319
1031340	1251	1917	2312
1031980	1258	1907	2310
1032620	1271	1923	2306
1033260	1199	1933	2333
1033900	1255	1977	2313
1034540	1192	1980	2321
1035180	1260	2013	2300
1035820	1152	1999	2337
1036460	1229	2044	2312
1037100	1230	2070	2304
1037740	1252	2080	2303
1038380	1289	2088	2300
1039020	1323	2084	2302
1039660	1320	2082	2314
1040300	1300	2100	2328
1040940	1280	2124	2338
1041580	1265	2145	2346
1042220	1259	2152	2350
1042860	1251	2156	2355
1043500	1243	2152	2361
1044140	1255	2145	2363
1044780	1257	2130	2364
1045420	1261	2120	2363
1046060	1250	2110	2359
1046700	1244	2100	2351
1047340	1241	2097	2346
1047980	1264	2101	2344
1048620	1277	2101	2344
1049260	1277	2100	2343
1049900	1260	2107	2345
1050540	1264	2119	2341
1051180	1260	2116	2341
1051820	1257	2110	2340
1052460	1251	2114	2338
1053100	1249	2118	2338
1053740	1256	2119	2333
1054380	1257	2120	2334
1055020	1263	2116	2334
1055660	1261	2117	2333
1056300	1265	2109	2328
1056940	1262	2108	2327
1057580	1263	2109	2329
1058220	1263	2115	2332
1058860	1258	2123	2333
1059500	1258	2121	2330
1060140	1258	2119	2330
1060780	1257	2132	2328
1061420	1255	2141	2329
1062060	1263	2142	2327
1062700	1250	2141	2330
1063340	1254	2164	2328
1063980	1243	2174	2329
1064620	1235	2164	2334
1065260	1251	2151	2333
1065900	1255	2137	2335
1066540	1253	2118	2338
1067180	1267	2101	2331
1067820	1289	2074	2325
1068460	1263	2059	2343
1069100	1246	2042	2358
1069740	1256	2032	2361
1070380	1271	2034	2357
1071020	1283	2054	2353
1071660	1245	2051	2366
1072300	1234	2050	2367
1072940	1234	2058	2364
1073580	1230	2076	2366
1074220	1227	2109	2369
1074860	1255	2089	2356
1075500	1256	2080	2345
1076140	1253	2070	2338
1076780	1247	2099	2332
1077420	1287	2112	2325
1078060	1284	2100	2332
1078700	1309	2091	2327
1079340	1304	2107	2332
1079980	1287	2138	2349
1080620	1271	2154	2361
1081260	1302	2151	2356
1081900	1255	2127	2365
1082540	1258	2122	2359
1083180	1273	2125	2352
1083820	1222	2142	2383
1084460	1144	2148	2402
1085100	1380	2125	2332
1085740	1224	2148	2369
1086380	1288	2115	2333
1087020	1201	2122	2337
1087660	1215	2111	2319
1088300	1234	2083	2306
1088940	1243	2098	2320
1089580	1269	2101	2327
1090220	1306	2130	2325
1090860	1305	2155	2328
1091500	1241	2197	2339
1092140	1247	2191	2339
1092780	1214	2203	2346
1093420	1238	2216	2339
1094060	1293	2186	2313
1094700	1277	2188	2316
1095340	1153	2217	2353
1095980	1252	2163	2309
1096620	1280	2153	2278
1097260	1296	2143	2257
1097900	1299	2173	2227
1098540	1294	2163	2226
1099180	1304	2141	2204
1099820	1285	2146	2211
1100460	1235	2110	2217
1101100	1242	2120	2230
1101740	1170	2181	2271
1102380	1211	2139	2272
1103020	1233	2171	2269
1103660	1240	2190	2274
1104300	1237	2150	2287
1104940	1188	2167	2307
1105580	1196	2161	2306
1106220	1263	2166	2302
1106860	1264	2174	2303
1107500	1233	2185	2314
1108140	1246	2207	2316
1108780	1303	2234	2310
1109420	1262	2192	2311
1110060	1246	2197	2311
1110700	1285	2220	2309
1111340	1290	2210	2319
1111980	1240	2200	2326
1112620	1239	2189	2320
1113260	1254	2188	2310
1113900	1258	2198	2299
1114540	1240	2169	2295
1115180	1218	2106	2293
1115820	1174	1969	2303
1116460	1140	1935	2310
1117100	1149	1906	2327
1117740	1192	1880	2344
1118380	1232	1948	2373
1119020	1304	2037	2391
1119660	1357	2147	2416
1120300	1386	2213	2422
1120940	1360	2296	2426
1121580	1365	2268	2408
1122220	1335	2255	2399
1122860	1304	2254	2388
1123500	1313	2291	2388
1124140	1313	2304	2378
1124780	1286	2283	2373
1125420	1277	2249	2363
1126060	1264	2246	2364
1126700	1290	2252	2360
1127340	1307	2272	2355
1127980	1293	2259	2351
1128620	1285	2239	2346
1129260	1270	2219	2346
1129900	1250	2210	2346
1130540	1262	2203	2341
1131180	1265	2187	2339
1131820	1267	2174	2343
1132460	1268	2166	2344
1133100	1273	2160	2342
1133740	1271	2157	2343
1134380	1273	2149	2343
1135020	1262	2146	2344
1135660	1269	2137	2344
1136300	1267	2128	2343
1136940	1264	2128	2342
1137580	1255	2129	2344
1138220	1265	2129	2344
1138860	1261	2130	2349
1139500	1272	2130	2346
1140140	1267	2133	2346
1140780	1262	2138	2344
1141420	1266	2134	2341
1142060	1264	2133	2340
1142700	1267	2130	2343
1143340	1274	2128	2343
1143980	1269	2128	2346
1144620	1263	2124	2346
1145260	1257	2125	2345
1145900	1250	2128	2347
1146540	1261	2125	2346
1147180	1263	2130	2347
1147820	1266	2132	2347
1148460	1270	2133	2344
1149100	1270	2134	2346
1149740	1266	2138	2346
1150380	1262	2142	2346
1151020	1260	2145	2347
1151660	1268	2141	2349
1152300	1270	2136	2351
1152940	1272	2132	2352
1153580	1267	2132	2353
1154220	1268	2134	2356
1154860	1268	2132	2355
1155500	1260	2131	2357
1156140	1259	2127	2356
1156780	1263	2131	2353
1157420	1261	2133	2354
1158060	1270	2131	2352
1158700	1263	2130	2349
1159340	1267	2124	2348
1159980	1265	2121	2349
1160620	1269	2125	2348
1161260	1267	2122	2349
1161900	1268	2089	2350
1162540	1263	2074	2349
1163180	1252	1989	2352
1163820	1262	2016	2354
1164460	1258	2049	2363
1165100	1265	2093	2370
1165740	1265	2040	2379
1166380	1279	2060	2381
1167020	1265	2095	2387
1167660	1266	2126	2385
1168300	1257	2152	2379
1168940	1264	2144	2376
1169580	1279	2150	2371
1170220	1279	2137	2367
1170860	1278	2135	2365
1171500	1278	2137	2361
1172140	1274	2120	2360
1172780	1274	2115	2362
1173420	1270	2113	2361
1174060	1258	2099	2364
1174700	1259	2096	2365
1175340	1265	2094	2363
1175980	1252	2086	2365
1176620	1263	2080	2363
1177260	1251	2062	2359
1177900	1262	2035	2358
1178540	1263	2012	2362
1179180	1258	1989	2364
1179820	1259	1988	2356
1180460	1253	1986	2359
1181100	1265	1989	2365
1181740	1273	1992	2367
1182380	1267	1997	2376
1183020	1262	2002	2386
1183660	1269	1999	2394
1184300	1244	2007	2407
1184940	1258	2035	2410
1185580	1273	2059	2402
1186220	1256	2084	2396
1186860	1254	2112	2379
1187500	1232	2137	2358
1188140	1236	2144	2332
1188780	1246	2117	2315
1189420	1261	2107	2301
1190060	1286	2098	2294
1190700	1287	2090	2292
1191340	1275	2097	2295
1191980	1268	2102	2300
1192620	1263	2106	2310
1193260	1265	2119	2316
1193900	1267	2127	2322
1194540	1256	2135	2331
1195180	1247	2118	2338
1195820	1265	2119	2344
1196460	1278	2117	2352
1197100	1283	2124	2354
1197740	1273	2119	2355
1198380	1242	2109	2354
1199020	1235	2120	2349
1199660	1241	2123	2346
1200300	1259	2111	2340
1200940	1268	2103	2335
1201580	1265	2100	2330
1202220	1256	2099	2323
1202860	1230	2101	2322
1203500	1247	2109	2317
1204140	1249	2101	2317
1204780	1275	2107	2309
1205420	1269	2107	2309
1206060	1274	2103	2302
1206700	1260	2097	2304
1207340	1259	2095	2306
1207980	1220	2079	2316
1208620	1201	2074	2312
1209260	1207	2061	2293
1209900	1214	2060	2277
1210540	1237	2028	2269
1211180	1262	2011	2272
1211820	1223	2004	2292
1212460	1198	2012	2300
1213100	1197	2013	2295
1213740	1119	1998	2314
1214380	1217	2008	2283
1215020	1211	2000	2265
1215660	1210	1988	2262
1216300	1225	1978	2258
1216940	1272	1961	2247
1217580	1304	1948	2241
1218220	1300	1956	2249
1218860	1278	1959	2260
1219500	1246	1949	2267
1220140	1329	1969	2248
1220780	1263	1965	2262
1221420	1217	1980	2270
1222060	1185	1977	2287
1222700	1173	1947	2297
1223340	1056	1903	2348
1223980	1271	1948	2303
1224620	1247	1936	2299
1225260	1232	1969	2308
1225900	1197	2012	2320
1226540	1241	2056	2308
1227180	1283	2073	2303
1227820	1290	2091	2311
1228460	1306	2112	2315
1229100	1286	2134	2324
1229740	1268	2159	2335
1230380	1277	2183	2334
1231020	1285	2201	2328
1231660	1286	2199	2322
1232300	1193	2186	2355
1232940	1207	2214	2359
1233580	1243	2222	2344
1234220	1250	2205	2332
1234860	1265	2188	2315
1235500	1255	2174	2310
1236140	1226	2188	2308
1236780	1228	2194	2293
1237420	1254	2195	2272
1238060	1274	2191	2266
1238700	1265	2182	2276
1239340	1279	2191	2274
1239980	1258	2191	2274
1240620	1259	2181	2274
1241260	1286	2172	2266
1241900	1289	2163	2268
1242540	1279	2158	2275
1243180	1261	2161	2288
1243820	1254	2162	2295
1244460	1222	2154	2315
1245100	1218	2150	2322
1245740	1216	2144	2327
1246380	1226	2139	2328
1247020	1231	2121	2329
1247660	1242	2108	2330
1248300	1259	2098	2329
1248940	1270	2095	2324
1249580	1258	2095	2326
1250220	1236	2093	2333
1250860	1247	2096	2329
1251500	1241	2092	2327
1252140	1230	2101	2325
1252780	1241	2107	2321
1253420	1249	2113	2316
1254060	1261	2118	2313
1254700	1257	2120	2315
1255340	1249	2131	2311
1255980	1236	2134	2313
1256620	1241	2135	2307
1257260	1246	2130	2305
1257900	1256	2123	2301
1258540	1256	2100	2300
1259180	1256	2108	2300
1259820	1244	2118	2298
1260460	1225	2135	2302
1261100	1217	2143	2303
1261740	1239	2128	2297
1262380	1273	2119	2289
1263020	1253	2129	2293
1263660	1231	2190	2291
1264300	1195	2144	2291
1264940	1238	2124	2275
1265580	1267	2117	2267
1266220	1267	2103	2271
1266860	1273	2083	2279
1267500	1272	2107	2290
1268140	1286	2145	2302
1268780	1270	2112	2310
1269420	1233	2066	2314
1270060	1244	2097	2317
1270700	1252	2145	2317
1271340	1239	2158	2318
1271980	1233	2166	2308
1272620	1235	2150	2295
1273260	1236	2161	2285
1273900	1234	2207	2279
1274540	1226	2199	2280
1275180	1218	2195	2273
1275820	1223	2205	2266
1276460	1246	2184	2258
1277100	1233	2181	2259
1277740	1244	2165	2258
1278380	1246	2175	2258
1279020	1275	2180	2255
1279660	1255	2165	2256
1280300	1220	2101	2258
1280940	1188	2052	2257
1281580	1152	1949	2265
1282220	1149	1877	2276
1282860	1220	1824	2288
1283500	1276	1956	2323
1284140	1347	1967	2362
1284780	1366	2023	2411
1285420	1324	2108	2463
1286060	1333	2145	2489
1286700	1292	2128	2508
1287340	1262	2228	2522
1287980	1280	2271	2491
1288620	1342	2311	2449
1289260	1322	2355	2407
1289900	1324	2375	2370
1290540	1333	2377	2343
1291180	1307	2348	2323
1291820	1285	2324	2309
1292460	1247	2294	2309
1293100	1261	2251	2311
1293740	1249	2199	2312
1294380	1205	2171	2329
1295020	1194	2127	2332
1295660	1235	2116	2322
1296300	1230	2085	2321
1296940	1217	2059	2323
1297580	1234	2047	2317
1298220	1260	2026	2318
1298860	1272	2019	2321
1299500	1276	2010	2326
1300140	1277	1997	2330
1300780	1263	1987	2337
1301420	1241	1982	2344
1302060	1295	1974	2330
1302700	1302	1952	2332
1303340	1257	1957	2346
1303980	1267	1981	2339
1304620	1245	1997	2326
1305260	1124	1960	2369
1305900	1247	1981	2352
1306540	1223	1964	2359
1307180	1259	1991	2349
1307820	1226	2036	2339
1308460	1207	2083	2329
1309100	1242	2122	2305
1309740	1250	2125	2301
1310380	1293	2133	2297
1311020	1290	2147	2303
1311660	1247	2179	2312
1312300	1224	2234	2308
1312940	1208	2255	2296
1313580	1232	2236	2278
1314220	1249	2220	2269
1314860	1240	2213	2268
1315500	1271	2227	2268
1316140	1256	2227	2267
1316780	1250	2236	2252
1317420	1241	2205	2243
1318060	1236	2189	2240
1318700	1261	2195	2233
1319340	1274	2189	2229
1319980	1303	2177	2219
1320620	1272	2152	2235
1321260	1286	2156	2241
1321900	1266	2145	2265
1322540	1274	2142	2268
1323180	1240	2128	2285
1323820	1207	2123	2305
1324460	1175	2121	2325
1325100	1188	2128	2322
1325740	1230	2124	2308
1326380	1231	2101	2311
1327020	1250	2084	2315
1327660	1274	2082	2322
1328300	1284	2082	2332
1328940	1284	2085	2343
1329580	1264	2078	2351
1330220	1231	2081	2358
1330860	1217	2085	2359
1331500	1217	2082	2353
1332140	1226	2085	2345
1332780	1237	2088	2339
1333420	1245	2097	2334
1334060	1260	2096	2324
1334700	1263	2098	2318
1335340	1256	2099	2316
1335980	1250	2096	2311
1336620	1242	2096	2311
1337260	1251	2096	2311
1337900	1253	2100	2308
1338540	1249	2101	2310
1339180	1246	2094	2313
1339820	1249	2098	2312
1340460	1255	2100	2308
1341100	1254	2094	2313
1341740	1254	2098	2315
1342380	1250	2101	2318
1343020	1245	2104	2320
1343660	1246	2107	2322
1344300	1243	2115	2324
1344940	1239	2118	2323
1345580	1243	2117	2324
1346220	1253	2124	2323
1346860	1255	2128	2321
1347500	1259	2140	2319
1348140	1244	2144	2322
1348780	1249	2150	2325
1349420	1227	2159	2334
1350060	1263	2172	2327
1350700	1284	2161	2317
1351340	1257	2174	2333
1351980	1254	2202	2338
1352620	1257	2212	2334
1353260	1270	2222	2322
1353900	1265	2226	2311
1354540	1271	2231	2313
1355180	1263	2236	2317
1355820	1287	2269	2308
1356460	1307	2267	2310
1357100	1190	2255	2366
1357740	1280	2286	2351
1358380	1249	2276	2364
1359020	1229	2279	2382
1359660	1252	2234	2377
1360300	1294	2187	2376
1360940	1340	2160	2381
1361580	1323	2137	2400
1362220	1323	2130	2413
1362860	1306	2092	2418
1363500	1271	2055	2422
1364140	1253	2029	2419
1364780	1265	2024	2402
1365420	1245	2043	2392
1366060	1239	2063	2397
1366700	1255	2094	2402
1367340	1342	2074	2384
1367980	1318	2122	2399
1368620	1330	2072	2421
1369260	1348	2019	2419
1369900	1297	2006	2437
1370540	1244	2011	2438
1371180	1246	1988	2414
1371820	1219	1971	2397
1372460	1216	1986	2379
1373100	1198	2017	2365
1373740	1232	2046	2343
1374380	1211	2068	2332
1375020	1232	2072	2319
1375660	1240	2089	2307
1376300	1256	2141	2301
1376940	1244	2196	2316
1377580	1285	2186	2321
1378220	1103	2244	2357
1378860	1286	2212	2342
1379500	1222	2151	2328
1380140	1261	2135	2296
1380780	1283	2099	2274
1381420	1280	2104	2262
1382060	1255	2096	2275
1382700	1242	2111	2279
1383340	1233	2143	2278
1383980	1234	2157	2280
1384620	1239	2163	2289
1385260	1224	2164	2296
1385900	1232	2142	2304
1386540	1238	2135	2315
1387180	1259	2125	2323
1387820	1265	2123	2330
1388460	1248	2117	2335
1389100	1233	2117	2334
1389740	1266	2111	2322
1390380	1255	2108	2323
1391020	1268	2102	2319
1391660	1235	2112	2324
1392300	1253	2095	2314
1392940	1300	2112	2299
1393580	1272	2145	2294
1394220	1230	2181	2306
1394860	1257	2180	2311
1395500	1252	2208	2328
1396140	1265	2236	2343
1396780	1192	2234	2344
1397420	1301	2174	2299
1398060	1309	2171	2278
1398700	1284	2217	2286
1399340	1242	2270	2310
1399980	1117	2296	2341
1400620	1158	2258	2326
1401260	1176	2266	2288
1401900	1265	2222	2231
1402540	1326	2202	2191
1403180	1320	2186	2187
1403820	1350	2173	2181
1404460	1319	2159	2186
1405100	1274	2155	2186
1405740	1248	2195	2196
1406380	1271	2209	2198
1407020	1252	2201	2212
1407660	1200	2201	2246
1408300	1176	2202	2260
1408940	1104	2266	2287
1409580	1246	2217	2261
1410220	1306	2169	2250
1410860	1274	2151	2274
1411500	1250	2165	2292
1412140	1266	2203	2294
1412780	1273	2239	2296
1413420	1248	2225	2316
1414060	1221	2193	2330
1414700	1219	2164	2331
1415340	1233	2155	2327
1415980	1246	2128	2318
1416620	1259	2101	2311
1417260	1276	2075	2299
1417900	1260	2063	2298
1418540	1257	2061	2293
1419180	1240	2077	2295
1419820	1231	2084	2295
1420460	1222	2090	2296
1421100	1220	2093	2292
1421740	1235	2111	2289
1422380	1248	2118	2289
1423020	1256	2114	2287
1423660	1243	2122	2284
1424300	1239	2122	2278
1424940	1232	2122	2270
1425580	1228	2125	2266
1426220	1231	2128	2260
1426860	1230	2131	2259
1427500	1241	2126	2251
1428140	1240	2134	2245
1428780	1237	2135	2241
1429420	1220	2142	2243
1430060	1233	2141	2242
1430700	1235	2145	2243
1431340	1239	2144	2245
1431980	1228	2151	2248
1432620	1234	2148	2243
1433260	1231	2149	2248
1433900	1235	2147	2245
1434540	1226	2150	2250
1435180	1231	2144	2245
1435820	1231	2144	2243
1436460	1227	2143	2242
1437100	1230	2138	2239
1437740	1238	2132	2237
1438380	1236	2119	2240
1439020	1238	2117	2239
1439660	1224	2126	2248
1440300	1232	2122	2248
1440940	1226	2121	2250
1441580	1226	2118	2248
1442220	1226	2109	2250
1442860	1231	2107	2249
1443500	1235	2113	2254
1444140	1238	2097	2257
1444780	1236	2085	2261
1445420	1235	2077	2262
1446060	1225	2077	2263
1446700	1234	2101	2266
1447340	1225	2128	2272
1447980	1244	2128	2276
1448620	1245	2129	2280
1449260	1242	2151	2284
1449900	1236	2158	2286
1450540	1239	2149	2286
1451180	1242	2147	2285
1451820	1247	2163	2291
1452460	1254	2175	2290
1453100	1255	2208	2291
1453740	1275	2275	2294
1454380	1287	2339	2293
1455020	1313	2402	2307
1455660	1337	2432	2330
1456300	1353	2457	2372
1456940	1376	2360	2422
1457580	1387	2368	2454
1458220	1350	2284	2502
1458860	1283	2135	2508
1459500	1226	2032	2476
1460140	1209	1944	2421
1460780	1202	1876	2378
1461420	1205	1866	2341
1462060	1177	1955	2310
1462700	1214	2081	2280
1463340	1196	2155	2287
1463980	1216	2159	2296
1464620	1202	2139	2293
1465260	1211	2097	2295
1465900	1240	2088	2278
1466540	1261	2118	2278
1467180	1251	2112	2292
1467820	1232	2137	2324
1468460	1261	2132	2315
1469100	1275	2140	2325
1469740	1259	2100	2328
1470380	1255	2079	2331
1471020	1264	2052	2335
1471660	1277	2043	2335
1472300	1287	2052	2332
1472940	1264	2057	2331
1473580	1237	2065	2334
1474220	1248	2066	2328
1474860	1252	2082	2325
1475500	1266	2099	2320
1476140	1250	2139	2329
1476780	1261	2135	2332
1477420	1262	2159	2333
1478060	1261	2168	2333
1478700	1252	2160	2331
1479340	1243	2160	2330
1479980	1241	2131	2327
1480620	1251	2154	2328
1481260	1242	2183	2331
1481900	1294	2164	2319
1482540	1293	2134	2315
1483180	1268	2134	2312
1483820	1231	2158	2340
1484460	1281	2144	2305
1485100	1235	2160	2320
1485740	1164	2164	2350
1486380	1218	2130	2303
1487020	1267	2132	2257
1487660	1206	2198	2273
1488300	1208	2211	2284
1488940	1240	2202	2276
1489580	1249	2200	2271
1490220	1233	2213	2264
1490860	1243	2222	2259
1491500	1228	2223	2261
1492140	1223	2230	2271
1492780	1247	2215	2271
1493420	1260	2185	2276
1494060	1233	2184	2283
1494700	1302	2191	2261
1495340	1283	2225	2265
1495980	1287	2207	2272
1496620	1275	2195	2273
1497260	1284	2174	2271
1497900	1272	2226	2274
1498540	1257	2250	2281
1499180	1267	2243	2279
1499820	1280	2203	2271
1500460	1289	2225	2267
1501100	1322	2264	2252
1501740	1320	2265	2246
1502380	1329	2256	2237
1503020	1311	2241	2242
1503660	1329	2245	2246
1504300	1152	2300	2335
1504940	1171	2295	2362
1505580	1276	2264	2337
1506220	1269	2249	2343
1506860	1259	2252	2350
1507500	1281	2235	2345
1508140	1315	2220	2346
1508780	1326	2208	2361
1509420	1332	2197	2380
1510060	1314	2193	2400
1510700	1286	2189	2415
1511340	1257	2177	2421
1511980	1241	2163	2421
1512620	1234	2146	2412
1513260	1254	2147	2404
1513900	1279	2150	2403
1514540	1299	2155	2399
1515180	1299	2152	2394
1515820	1301	2158	2388
1516460	1288	2165	2387
1517100	1284	2166	2392
1517740	1295	2164	2388
1518380	1297	2172	2388
1519020	1293	2177	2390
1519660	1286	2181	2392
1520300	1282	2179	2391
1520940	1279	2177	2390
1521580	1279	2168	2382
1522220	1283	2159	2380
1522860	1290	2154	2381
1523500	1291	2152	2383
1524140	1295	2147	2382
1524780	1294	2146	2383
1525420	1296	2153	2384
1526060	1285	2154	2388
1526700	1291	2164	2387
1527340	1282	2171	2390
1527980	1282	2169	2392
1528620	1286	2172	2391
1529260	1290	2174	2388
1529900	1291	2173	2389
1530540	1291	2170	2388
1531180	1288	2173	2384
1531820	1285	2175	2386
1532460	1288	2173	2384
1533100	1282	2171	2383
1533740	1289	2167	2378
1534380	1286	2165	2380
1535020	1284	2161	2377
1535660	1286	2158	2374
1536300	1281	2161	2372
1536940	1279	2162	2371
1537580	1282	2162	2371
1538220	1285	2155	2371
1538860	1283	2153	2373
1539500	1285	2151	2372
1540140	1281	2146	2375
1540780	1279	2148	2376
1541420	1281	2152	2375
1542060	1285	2156	2379
1542700	1284	2158	2380
1543340	1283	2162	2382
1543980	1283	2162	2384
1544620	1287	2163	2384
1545260	1284	2160	2385
1545900	1289	2162	2384
1546540	1286	2155	2387
1547180	1286	2160	2387
1547820	1278	2155	2386
1548460	1278	2154	2385
1549100	1276	2159	2383
1549740	1281	2168	2381
1550380	1287	2174	2379
1551020	1291	2176	2379
1551660	1282	2174	2381
1552300	1278	2158	2380
1552940	1279	2167	2377
1553580	1286	2174	2374
1554220	1281	2196	2374
1554860	1283	2199	2374
1555500	1280	2194	2370
1556140	1288	2201	2367
1556780	1288	2217	2365
1557420	1286	2218	2367
1558060	1276	2258	2369
1558700	1284	2287	2367
1559340	1276	2320	2373
1559980	1303	2394	2377
1560620	1323	2396	2397
1561260	1356	2383	2411
1561900	1380	2399	2426
1562540	1383	2375	2451
1563180	1374	2325	2482
1563820	1378	2281	2504
1564460	1366	2239	2527
1565100	1380	2218	2549
1565740	1350	2164	2568
1566380	1348	2124	2568
1567020	1343	2072	2558
1567660	1329	2007	2535
1568300	1303	1981	2517
1568940	1256	1958	2498
1569580	1255	1947	2477
1570220	1224	1978	2452
1570860	1243	1974	2426
1571500	1261	1985	2406
1572140	1269	2012	2390
1572780	1267	2025	2380
1573420	1264	2036	2375
1574060	1257	2061	2372
1574700	1272	2065	2366
1575340	1254	2068	2366
1575980	1273	2072	2354
1576620	1278	2092	2349
1577260	1269	2102	2354
1577900	1259	2123	2364
1578540	1254	2130	2365
1579180	1269	2147	2357
1579820	1276	2171	2353
1580460	1270	2176	2358
1581100	1276	2178	2360
1581740	1231	2203	2374
1582380	1295	2194	2356
1583020	1281	2193	2355
1583660	1255	2186	2360
1584300	1284	2170	2356
1584940	1179	2194	2364
1585580	1335	2159	2334
1586220	1203	2175	2356
1586860	1256	2165	2328
1587500	1264	2153	2307
1588140	1273	2154	2294
1588780	1273	2153	2294
1589420	1284	2150	2290
1590060	1288	2150	2285
1590700	1255	2177	2283
1591340	1220	2181	2294
1591980	1211	2173	2300
1592620	1201	2146	2294
1593260	1210	2146	2278
1593900	1212	2177	2264
1594540	1212	2230	2267
1595180	1231	2247	2266
1595820	1260	2227	2263
1596460	1219	2245	2273
1597100	1261	2243	2253
1597740	1317	2262	2226
1598380	1280	2272	2232
1599020	1290	2248	2227
1599660	1266	2245	2223
1600300	1262	2264	2213
1600940	1270	2274	2204
1601580	1253	2278	2205
1602220	1248	2246	2202
1602860	1254	2241	2195
1603500	1256	2245	2193
1604140	1272	2238	2186
1604780	1302	2220	2175
1605420	1285	2206	2185
1606060	1311	2187	2194
1606700	1222	2198	2246
1607340	1090	2265	2351
1607980	1209	2197	2338
1608620	1332	2162	2287
1609260	1206	2194	2324
1609900	1231	2182	2327
1610540	1258	2164	2331
1611180	1286	2145	2343
1611820	1284	2140	2362
1612460	1291	2124	2375
1613100	1280	2111	2383
1613740	1245	2099	2383
1614380	1241	2094	2377
1615020	1242	2090	2368
1615660	1277	2100	2359
1616300	1290	2110	2357
1616940	1291	2120	2357
1617580	1278	2132	2357
1618220	1269	2141	2358
1618860	1262	2143	2359
1619500	1265	2145	2358
1620140	1260	2150	2359
1620780	1264	2153	2360
1621420	1260	2149	2359
1622060	1267	2146	2358
1622700	1267	2146	2358
1623340	1270	2142	2361
1623980	1273	2141	2360
1624620	1266	2141	2360
1625260	1268	2144	2359
1625900	1261	2145	2359
1626540	1267	2143	2360
1627180	1265	2148	2359
1627820	1262	2151	2359
1628460	1262	2149	2354
1629100	1267	2145	2350
1629740	1270	2142	2344
1630380	1269	2138	2341
1631020	1263	2149	2340
1631660	1258	2138	2339
1632300	1268	2133	2342
1632940	1267	2125	2342
1633580	1265	2129	2343
1634220	1261	2122	2342
1634860	1249	2114	2346
1635500	1253	2067	2347
1636140	1248	2037	2349
1636780	1240	1935	2352
1637420	1243	1880	2357
1638060	1253	1912	2372
1638700	1279	1965	2394
1639340	1308	1942	2417
1639980	1344	1799	2438
1640620	1331	1937	2478
1641260	1325	2069	2518
1641900	1352	2072	2544
1642540	1343	2138	2557
1643180	1331	2189	2548
1643820	1303	2253	2529
1644460	1290	2310	2503
1645100	1294	2319	2457
1645740	1310	2276	2415
1646380	1293	2227	2388
1647020	1264	2221	2368
1647660	1252	2186	2350
1648300	1249	2132	2343
1648940	1264	2106	2343
1649580	1274	2099	2344
1650220	1262	2093	2344
1650860	1254	2088	2351
1651500	1256	2098	2359
1652140	1253	2093	2364
1652780	1247	2079	2364
1653420	1237	2068	2374
1654060	1249	2058	2376
1654700	1243	2062	2381
1655340	1256	2077	2386
1655980	1290	2099	2376
1656620	1305	2111	2374
1657260	1297	2124	2369
1657900	1295	2122	2353
1658540	1271	2106	2352
1659180	1240	2104	2359
1659820	1259	2152	2364
1660460	1246	2164	2366
1661100	1276	2162	2350
1661740	1263	2154	2341
1662380	1249	2171	2334
1663020	1243	2162	2334
1663660	1280	2131	2331
1664300	1292	2094	2335
1664940	1296	2096	2329
1665580	1286	2101	2332
1666220	1276	2115	2340
1666860	1259	2082	2348
1667500	1258	2073	2345
1668140	1254	2097	2345
1668780	1283	2114	2341
1669420	1280	2103	2344
1670060	1299	2072	2337
1670700	1300	2029	2332
1671340	1270	2045	2319
1671980	1220	2073	2319
1672620	1229	2088	2314
1673260	1217	2091	2333
1673900	1148	2083	2374
1674540	1265	2108	2326
1675180	1267	2080	2304
1675820	1246	2057	2313
1676460	1285	2034	2315
1677100	1296	2038	2326
1677740	1284	2048	2339
1678380	1240	2054	2357
1679020	1183	2068	2371
1679660	1196	2070	2366
1680300	1218	2059	2364
1680940	1246	2052	2361
1681580	1259	2050	2352
1682220	1271	2034	2348
1682860	1260	2030	2358
1683500	1246	2042	2371
1684140	1264	2051	2367
1684780	1254	2050	2366
1685420	1246	2046	2362
1686060	1256	2045	2356
1686700	1281	2036	2349
1687340	1298	2033	2344
1687980	1320	2036	2342
1688620	1332	2050	2343
1689260	1275	2079	2371
1689900	1266	2094	2375
1690540	1215	2117	2383
1691180	1238	2135	2378
1691820	1239	2143	2384
1692460	1256	2147	2373
1693100	1252	2156	2374
1693740	1276	2160	2370
1694380	1320	2165	2362
1695020	1323	2171	2366
1695660	1315	2175	2372
1696300	1307	2181	2372
1696940	1289	2191	2375
1697580	1292	2192	2377
1698220	1270	2191	2385
1698860	1264	2183	2390
1699500	1262	2173	2388
1700140	1269	2165	2382
1700780	1272	2153	2381
1701420	1285	2159	2377
1702060	1289	2155	2376
1702700	1293	2157	2374
1703340	1285	2153	2374
1703980	1289	2162	2375
1704620	1291	2166	2376
1705260	1289	2168	2379
1705900	1287	2169	2383
1706540	1291	2165	2384
1707180	1280	2163	2390
1707820	1283	2158	2388
1708460	1277	2157	2387
1709100	1277	2160	2389
1709740	1278	2157	2388
1710380	1282	2155	2385
1711020	1280	2155	2382
1711660	1279	2151	2378
1712300	1279	2146	2375
1712940	1271	2140	2374
1713580	1283	2139	2370
1714220	1285	2136	2369
1714860	1280	2141	2369
1715500	1292	2142	2367
1716140	1281	2144	2372
1716780	1279	2159	2373
1717420	1276	2157	2373
1718060	1284	2141	2374
1718700	1287	2139	2376
1719340	1282	2138	2381
1719980	1278	2133	2385
1720620	1266	2125	2386
1721260	1266	2123	2385
1721900	1268	2121	2385
1722540	1264	2121	2383
1723180	1279	2125	2378
1723820	1275	2120	2377
1724460	1287	2126	2374
1725100	1280	2125	2375
1725740	1279	2120	2370
1726380	1275	2112	2371
1727020	1273	2111	2370
1727660	1274	2109	2370
1728300	1277	2104	2371
1728940	1278	2104	2371
1729580	1276	2105	2373
1730220	1276	2110	2374
1730860	1279	2109	2374
1731500	1274	2113	2380
1732140	1274	2117	2382
1732780	1277	2119	2381
1733420	1278	2120	2382
1734060	1276	2117	2383
1734700	1276	2112	2383
1735340	1272	2109	2386
1735980	1276	2115	2384
1736620	1271	2114	2385
1737260	1276	2110	2384
1737900	1255	2099	2387
1738540	1274	2070	2388
1739180	1251	2041	2400
1739820	1274	1970	2403
1740460	1271	1960	2414
1741100	1284	1964	2429
1741740	1315	1948	2442
1742380	1333	1973	2454
1743020	1342	1970	2459
1743660	1355	1979	2467
1744300	1356	1986	2474
1744940	1344	2030	2485
1745580	1313	2055	2489
1746220	1305	2084	2486
1746860	1264	2137	2504
1747500	1286	2180	2505
1748140	1266	2231	2500
1748780	1246	2266	2495
1749420	1277	2279	2468
1750060	1292	2290	2448
1750700	1269	2304	2438
1751340	1311	2292	2408
1751980	1316	2265	2388
1752620	1309	2260	2379
1753260	1303	2260	2368
1753900	1291	2246	2369
1754540	1279	2226	2370
1755180	1291	2230	2361
1755820	1282	2204	2359
1756460	1281	2181	2352
1757100	1297	2166	2350
1757740	1295	2134	2350
1758380	1267	2119	2355
1759020	1264	2118	2359
1759660	1251	2107	2347
1760300	1222	2091	2345
1760940	1244	2115	2334
1761580	1263	2134	2317
1762220	1260	2119	2305
1762860	1263	2116	2295
1763500	1254	2111	2296
1764140	1268	2089	2299
1764780	1256	2076	2302
1765420	1252	2080	2299
1766060	1231	2079	2302
1766700	1221	2080	2299
1767340	1217	2087	2290
1767980	1229	2082	2274
1768620	1240	2082	2267
1769260	1244	2065	2262
1769900	1222	2022	2265
1770540	1227	2013	2263
1771180	1237	2022	2260
1771820	1233	2006	2270
1772460	1250	1992	2276
1773100	1236	1964	2288
1773740	1225	1978	2301
1774380	1221	1994	2313
1775020	1205	1978	2326
1775660	1229	1947	2333
1776300	1279	1960	2318
1776940	1242	1974	2326
1777580	1248	1996	2323
1778220	1249	1974	2319
1778860	1259	1948	2321
1779500	1255	1943	2325
1780140	1256	1965	2326
1780780	1267	1993	2323
1781420	1247	1971	2333
1782060	1278	1964	2327
1782700	1271	1961	2325
1783340	1257	1976	2326
1783980	1145	1981	2379
1784620	1243	2016	2358
1785260	1259	2024	2350
1785900	1222	2018	2379
1786540	1266	2057	2363
1787180	1259	2081	2362
1787820	1254	2104	2362
1788460	1272	2121	2353
1789100	1300	2113	2350
1789740	1313	2110	2353
1790380	1296	2126	2363
1791020	1286	2158	2370
1791660	1267	2175	2375
1792300	1254	2172	2375
1792940	1260	2150	2369
1793580	1262	2152	2368
1794220	1266	2154	2369
1794860	1274	2137	2367
1795500	1283	2122	2367
1796140	1276	2116	2368
1796780	1266	2112	2367
1797420	1259	2114	2364
1798060	1263	2121	2364
1798700	1268	2134	2365
1799340	1274	2135	2370
1799980	1275	2132	2367
1800620	1271	2120	2363
1801260	1262	2122	2362
1801900	1264	2123	2361
1802540	1268	2117	2358
1803180	1273	2110	2357
1803820	1270	2110	2355
1804460	1266	2116	2356
1805100	1263	2122	2358
1805740	1273	2126	2355
1806380	1272	2126	2355
1807020	1270	2120	2356
1807660	1273	2114	2353
1808300	1266	2112	2357
1808940	1265	2110	2358
1809580	1273	2105	2358
1810220	1271	2099	2363
1810860	1268	2100	2364
1811500	1267	2097	2364
1812140	1273	2104	2364
1812780	1271	2106	2366
1813420	1274	2099	2368
1814060	1269	2096	2370
1814700	1275	2102	2373
1815340	1261	2103	2380
1815980	1271	2108	2378
1816620	1270	2084	2377
1817260	1270	2082	2375
1817900	1268	2083	2374
1818540	1278	2085	2369
1819180	1284	2083	2369
1819820	1279	2076	2366
1820460	1270	2086	2366
1821100	1259	2098	2364
1821740	1255	2104	2362
1822380	1251	2102	2363
1823020	1270	2103	2361
1823660	1276	2104	2359
1824300	1276	2091	2360
1824940	1271	2092	2360
1825580	1265	2099	2364
1826220	1263	2112	2362
1826860	1262	2116	2365
1827500	1269	2117	2367
1828140	1272	2120	2367
1828780	1272	2121	2369
1829420	1269	2126	2368
1830060	1267	2159	2366
1830700	1266	2181	2368
1831340	1273	2206	2368
1831980	1273	2287	2370
1832620	1274	2419	2368
1833260	1302	2434	2387
1833900	1336	2381	2418
1834540	1359	2428	2448
1835180	1363	2359	2499
1835820	1387	2310	2536
1836460	1371	2261	2569
1837100	1376	2190	2588
1837740	1345	2156	2594
1838380	1374	2142	2583
1839020	1355	2086	2568
1839660	1359	2064	2534
1840300	1341	2043	2493
1840940	1308	1990	2449
1841580	1265	1992	2417
1842220	1227	1994	2387
1842860	1216	1973	2346
1843500	1221	2006	2309
1844140	1243	2007	2287
1844780	1216	2044	2270
1845420	1227	2054	2263
1846060	1243	2082	2265
1846700	1257	2101	2280
1847340	1219	2084	2305
1847980	1246	2089	2317
1848620	1242	2111	2327
1849260	1241	2104	2341
1849900	1234	2112	2341
1850540	1273	2136	2343
1851180	1255	2139	2351
1851820	1243	2118	2349
1852460	1246	2118	2346
1853100	1268	2120	2334
1853740	1282	2144	2329
1854380	1263	2156	2329
1855020	1255	2153	2326
1855660	1280	2173	2318
1856300	1277	2195	2322
1856940	1246	2193	2320
1857580	1244	2226	2313
1858220	1250	2212	2306
1858860	1237	2188	2303
1859500	1273	2213	2296
1860140	1267	2260	2297
1860780	1270	2290	2301
1861420	1254	2304	2306
1862060	1240	2316	2325
1862700	1254	2266	2339
1863340	1271	2231	2336
1863980	1292	2184	2345
1864620	1330	2126	2365
1865260	1293	2097	2395
1865900	1248	2082	2417
1866540	1225	2047	2424
1867180	1258	2036	2410
1867820	1260	2034	2401
1868460	1272	2047	2393
1869100	1266	2053	2386
1869740	1269	2073	2377
1870380	1275	2097	2369
1871020	1268	2096	2369
1871660	1269	2083	2364
1872300	1263	2097	2357
1872940	1252	2099	2355
1873580	1245	2137	2355
1874220	1235	2120	2349
1874860	1247	2095	2339
1875500	1245	2080	2322
1876140	1271	2120	2314
1876780	1265	2131	2313
1877420	1255	2113	2305
1878060	1228	2117	2304
1878700	1243	2101	2297
1879340	1225	2154	2301
1879980	1266	2188	2293
1880620	1282	2157	2285
1881260	1291	2119	2282
1881900	1269	2131	2285
1882540	1271	2141	2283
1883180	1278	2159	2283
1883820	1249	2159	2290
1884460	1236	2168	2300
1885100	1204	2196	2314
1885740	1180	2222	2330
1886380	1228	2203	2313
1887020	1273	2192	2292
1887660	1233	2202	2300
1888300	1236	2207	2302
1888940	1268	2197	2298
1889580	1282	2172	2303
1890220	1264	2148	2311
1890860	1253	2165	2312
1891500	1214	2204	2330
1892140	1187	2209	2335
1892780	1204	2153	2325
1893420	1209	2149	2317
1894060	1223	2181	2322
1894700	1338	2191	2298
1895340	1328	2193	2290
1895980	1330	2170	2279
1896620	1331	2191	2278
1897260	1304	2206	2284
1897900	1300	2202	2283
1898540	1264	2190	2286
1899180	1249	2182	2286
1899820	1243	2196	2288
1900460	1257	2186	2276
1901100	1253	2156	2260
1901740	1290	2145	2230
1902380	1301	2131	2225
1903020	1293	2128	2239
1903660	1074	2185	2377
1904300	1175	2155	2382
1904940	1299	2127	2298
1905580	1207	2123	2306
1906220	1169	2113	2319
1906860	1218	2097	2315
1907500	1247	2088	2316
1908140	1289	2086	2326
1908780	1312	2086	2340
1909420	1297	2088	2355
1910060	1261	2095	2363
1910700	1228	2101	2366
1911340	1236	2101	2357
1911980	1259	2101	2354
1912620	1285	2101	2351
1913260	1291	2109	2350
1913900	1283	2115	2349
1914540	1266	2112	2350
1915180	1246	2112	2353
1915820	1234	2113	2354
1916460	1235	2105	2347
1917100	1250	2097	2344
1917740	1264	2092	2343
1918380	1269	2094	2343
1919020	1271	2099	2342
1919660	1267	2101	2343
1920300	1259	2106	2348
1920940	1259	2111	2349
1921580	1257	2108	2348
1922220	1259	2110	2347
1922860	1265	2101	2348
1923500	1262	2109	2346
1924140	1258	2108	2346
1924780	1264	2110	2342
1925420	1252	2111	2347
1926060	1262	2111	2348
1926700	1274	2107	2344
1927340	1271	2114	2346
1927980	1273	2103	2347
1928620	1267	2100	2347
1929260	1260	2110	2345
1929900	1252	2093	2345
1930540	1260	2072	2345
1931180	1246	1960	2354
1931820	1216	1678	2354
1932460	1237	1645	2381
1933100	1269	1766	2449
1933740	1311	1922	2508
1934380	1354	2039	2534
1935020	1384	2078	2542
1935660	1365	2248	2534
1936300	1337	2317	2515
1936940	1327	2370	2472
1937580	1293	2349	2425
1938220	1271	2310	2386
1938860	1253	2257	2360
1939500	1273	2221	2351
1940140	1265	2171	2348
1940780	1241	2118	2346
1941420	1246	2072	2342
1942060	1251	2038	2341
1942700	1253	2027	2342
1943340	1261	2028	2348
1943980	1260	2033	2349
1944620	1241	2020	2355
1945260	1248	2020	2353
1945900	1246	2016	2366
1946540	1287	2023	2365
1947180	1285	2037	2365
1947820	1268	2084	2370
1948460	1258	2112	2366
1949100	1276	2131	2362
1949740	1309	2131	2356
1950380	1296	2150	2354
1951020	1225	2167	2378
1951660	1254	2215	2371
1952300	1255	2225	2366
1952940	1260	2196	2357
1953580	1277	2193	2342
1954220	1284	2205	2338
1954860	1282	2218	2343
1955500	1287	2220	2341
1956140	1282	2200	2350
1956780	1283	2158	2358
1957420	1300	2160	2362
1958060	1299	2163	2370
1958700	1304	2153	2378
1959340	1286	2137	2373
1959980	1281	2131	2376
1960620	1266	2123	2381
1961260	1236	2121	2389
1961900	1272	2134	2381
1962540	1269	2113	2375
1963180	1257	2100	2379
1963820	1242	2119	2383
1964460	1226	2128	2388
1965100	1269	2128	2362
1965740	1284	2112	2346
1966380	1277	2088	2337
1967020	1278	2096	2334
1967660	1288	2098	2339
1968300	1327	2095	2336
1968940	1319	2080	2343
1969580	1314	2074	2346
1970220	1260	2051	2364
1970860	1221	2034	2381
1971500	1186	2041	2398
1972140	1177	2033	2404
1972780	1209	2031	2384
1973420	1251	2027	2363
1974060	1268	2020	2359
1974700	1276	2018	2358
1975340	1292	2018	2355
1975980	1273	2009	2368
1976620	1268	2011	2378
1977260	1297	2028	2372
1977900	1265	2033	2379
1978540	1253	2036	2375
1979180	1268	2027	2363
1979820	1276	2010	2363
1980460	1279	2003	2365
1981100	1280	1994	2365
1981740	1291	1990	2361
1982380	1285	1996	2360
1983020	1237	2008	2374
1983660	1246	2031	2381
1984300	1220	2044	2392
1984940	1239	2064	2382
1985580	1253	2080	2378
1986220	1266	2094	2365
1986860	1268	2097	2364
1987500	1288	2096	2362
1988140	1308	2097	2359
1988780	1304	2113	2364
1989420	1303	2129	2368
1990060	1294	2146	2374
1990700	1289	2160	2376
1991340	1273	2167	2375
1991980	1257	2167	2378
1992620	1252	2166	2377
1993260	1255	2158	2375
1993900	1276	2145	2371
1994540	1283	2142	2370
1995180	1286	2139	2369
1995820	1286	2139	2367
1996460	1279	2139	2366
1997100	1265	2143	2368
1997740	1261	2147	2369
1998380	1268	2146	2369
1999020	1278	2143	2370
1999660	1277	2139	2372
2000300	1277	2136	2370
2000940	1274	2133	2374
2001580	1276	2128	2372
2002220	1281	2128	2374
2002860	1276	2136	2376
2003500	1277	2141	2378
2004140	1279	2143	2377
2004780	1283	2140	2377
2005420	1282	2136	2379
2006060	1271	2133	2382
2006700	1278	2133	2382
2007340	1281	2130	2380
2007980	1280	2128	2380
2008620	1280	2126	2381
2009260	1276	2125	2381
2009900	1279	2123	2381
2010540	1286	2116	2382
2011180	1284	2115	2383
2011820	1276	2114	2383
2012460	1257	2113	2385
2013100	1260	2115	2381
2013740	1278	2111	2378
2014380	1286	2109	2379
2015020	1285	2106	2379
2015660	1288	2106	2377
2016300	1283	2113	2382
2016940	1282	2116	2383
2017580	1275	2116	2385
2018220	1276	2115	2388
2018860	1276	2113	2388
2019500	1276	2107	2387
2020140	1274	2111	2387
2020780	1273	2115	2385
2021420	1278	2131	2384
2022060	1275	2172	2382
2022700	1277	2265	2379
2023340	1282	2305	2379
2023980	1299	2331	2382
2024620	1320	2417	2389
2025260	1345	2436	2410
2025900	1382	2390	2454
2026540	1389	2302	2504
2027180	1379	2282	2535
2027820	1370	2209	2556
2028460	1336	2100	2561
2029100	1318	2070	2538
2029740	1298	2022	2512
2030380	1294	1999	2469
2031020	1265	1996	2429
2031660	1251	2023	2394
2032300	1250	2079	2364
2032940	1244	2114	2349
2033580	1258	2134	2332
2034220	1269	2170	2319
2034860	1289	2189	2310
2035500	1278	2192	2311
2036140	1267	2185	2322
2036780	1272	2162	2331
2037420	1272	2149	2341
2038060	1275	2131	2353
2038700	1263	2135	2365
2039340	1258	2130	2373
2039980	1261	2118	2385
2040620	1267	2103	2386
2041260	1268	2095	2387
2041900	1259	2106	2391
2042540	1263	2096	2385
2043180	1268	2097	2378
2043820	1270	2109	2371
2044460	1265	2095	2373
2045100	1276	2100	2366
2045740	1277	2099	2362
2046380	1283	2107	2357
2047020	1270	2118	2363
2047660	1262	2124	2365
2048300	1281	2138	2361
2048940	1291	2164	2363
2049580	1305	2167	2366
2050220	1290	2153	2380
2050860	1280	2151	2380
2051500	1274	2165	2384
2052140	1270	2169	2390
2052780	1270	2176	2389
2053420	1269	2176	2393
2054060	1276	2160	2389
2054700	1278	2154	2380
2055340	1261	2154	2376
2055980	1275	2160	2364
2056620	1221	2182	2383
2057260	1276	2163	2379
2057900	1214	2166	2399
2058540	1315	2149	2350
2059180	1292	2159	2336
2059820	1266	2170	2340
2060460	1279	2154	2338
2061100	1296	2144	2332
2061740	1314	2163	2330
2062380	1267	2193	2346
2063020	1242	2197	2353
2063660	1264	2172	2336
2064300	1250	2160	2328
2064940	1257	2175	2319
2065580	1258	2195	2318
2066220	1235	2220	2328
2066860	1215	2229	2340
2067500	1248	2207	2328
2068140	1250	2197	2327
2068780	1250	2196	2317
2069420	1294	2202	2292
2070060	1288	2202	2293
2070700	1307	2196	2294
2071340	1310	2191	2297
2071980	1303	2213	2305
2072620	1291	2215	2308
2073260	1273	2217	2303
2073900	1265	2211	2295
2074540	1252	2220	2300
2075180	1257	2215	2299
2075820	1273	2202	2288
2076460	1251	2184	2280
2077100	1254	2182	2278
2077740	1147	2189	2340
2078380	1215	2190	2333
2079020	1232	2178	2320
2079660	1244	2158	2307
2080300	1246	2140	2310
2080940	1264	2135	2315
2081580	1306	2133	2320
2082220	1307	2127	2331
2082860	1295	2133	2341
2083500	1278	2132	2349
2084140	1252	2123	2356
2084780	1230	2108	2357
2085420	1227	2104	2355
2086060	1234	2100	2352
2086700	1254	2100	2344
2087340	1269	2102	2346
2087980	1281	2104	2344
2088620	1282	2115	2345
2089260	1269	2127	2349
2089900	1260	2137	2353
2090540	1259	2131	2354
2091180	1269	2130	2353
2091820	1267	2129	2356
2092460	1264	2130	2355
2093100	1262	2138	2356
2093740	1256	2137	2357
2094380	1260	2135	2354
2095020	1260	2132	2351
2095660	1256	2141	2349
2096300	1255	2140	2344
2096940	1267	2145	2340
2097580	1261	2154	2341
2098220	1260	2167	2339
2098860	1268	2165	2338
2099500	1271	2154	2333
2100140	1263	2158	2337
2100780	1279	2142	2335
2101420	1272	2134	2338
2102060	1263	2155	2338
2102700	1269	2166	2329
2103340	1257	2190	2329
2103980	1285	2241	2326
2104620	1288	2228	2333
2105260	1285	2210	2338
2105900	1282	2205	2337
2106540	1284	2162	2336
2107180	1263	2107	2331
2107820	1234	2071	2327
2108460	1257	2067	2321
2109100	1260	2079	2307
2109740	1223	2108	2313
2110380	1240	2107	2310
2111020	1204	2149	2303
2111660	1195	2180	2299
2112300	1206	2165	2286
2112940	1234	2172	2282
2113580	1264	2166	2266
2114220	1223	2154	2270
2114860	1167	2156	2267
2115500	1203	2145	2239
2116140	1243	2163	2216
2116780	1270	2164	2202
2117420	1270	2137	2202
2118060	1248	2186	2221
2118700	1279	2199	2234
2119340	1270	2216	2259
2119980	1291	2211	2282
2120620	1279	2238	2304
2121260	1288	2239	2316
2121900	1271	2250	2337
2122540	1259	2241	2346
2123180	1231	2210	2351
2123820	1270	2160	2337
2124460	1248	2159	2341
2125100	1250	2162	2343
2125740	1170	2192	2366
2126380	1263	2146	2326
2127020	1311	2127	2305
2127660	1274	2105	2327
2128300	1250	2077	2355
2128940	1182	2062	2378
2129580	1204	2036	2367
2130220	1256	2002	2345
2130860	1249	1989	2345
2131500	1250	1992	2353
2132140	1231	2006	2370
2132780	1214	2016	2378
2133420	1238	2003	2375
2134060	1249	2049	2379
2134700	1274	2079	2378
2135340	1327	2100	2371
2135980	1339	2147	2361
2136620	1349	2179	2351
2137260	1360	2201	2340
2137900	1324	2203	2340
2138540	1323	2202	2333
2139180	1300	2191	2332
2139820	1283	2192	2326
2140460	1257	2184	2325
2141100	1218	2190	2348
2141740	1166	2192	2376
2142380	1267	2187	2338
2143020	1272	2174	2328
2143660	1281	2175	2324
2144300	1249	2175	2330
2144940	1229	2173	2335
2145580	1251	2177	2330
2146220	1268	2174	2329
2146860	1272	2172	2334
2147500	1269	2176	2339
2148140	1265	2173	2340
2148780	1268	2173	2334
2149420	1264	2166	2330
2150060	1252	2161	2333
2150700	1250	2163	2332
2151340	1246	2159	2335
2151980	1259	2160	2331
2152620	1256	2156	2330
2153260	1271	2151	2328
2153900	1252	2148	2327
2154540	1251	2150	2323
2155180	1244	2140	2320
2155820	1250	2129	2318
2156460	1254	2126	2318
2157100	1260	2127	2317
2157740	1262	2129	2323
2158380	1261	2133	2330
2159020	1266	2137	2334
2159660	1255	2133	2337
2160300	1250	2134	2339
2160940	1260	2131	2338
2161580	1258	2130	2342
2162220	1272	2131	2343
2162860	1272	2134	2344
2163500	1259	2134	2342
2164140	1247	2132	2344
2164780	1253	2131	2340
2165420	1254	2135	2339
2166060	1257	2136	2338
2166700	1261	2131	2339
2167340	1264	2119	2338
2167980	1263	2116	2338
2168620	1263	2119	2337
2169260	1261	2128	2340
2169900	1264	2136	2339
2170540	1263	2135	2343
2171180	1264	2134	2344
2171820	1263	2146	2347
2172460	1267	2160	2346
2173100	1266	2172	2347
2173740	1272	2182	2349
2174380	1273	2195	2351
2175020	1284	2214	2351
2175660	1282	2226	2357
2176300	1266	2240	2359
2176940	1259	2252	2356
2177580	1258	2262	2359
2178220	1266	2282	2365
2178860	1321	2300	2367
2179500	1322	2318	2380
2180140	1317	2314	2393
2180780	1293	2290	2403
2181420	1290	2285	2407
2182060	1322	2266	2408
2182700	1346	2233	2428
2183340	1330	2181	2456
2183980	1307	2107	2474
2184620	1285	2053	2485
2185260	1273	2023	2482
2185900	1307	1994	2464
2186540	1260	1980	2474
2187180	1309	1953	2450
2187820	1313	1937	2438
2188460	1301	1927	2427
2189100	1275	1921	2426
2189740	1245	1927	2423
2190380	1242	1940	2412
2191020	1238	1927	2403
2191660	1227	1946	2396
2192300	1241	1956	2390
2192940	1255	1961	2387
2193580	1267	1974	2383
2194220	1266	1986	2373
2194860	1271	2002	2364
2195500	1299	2019	2350
2196140	1301	2021	2345
2196780	1324	2033	2334
2197420	1319	2049	2325
2198060	1293	2088	2335
2198700	1412	2080	2294
2199340	1234	2115	2336
2199980	1138	2140	2394
2200620	1092	2136	2420
2201260	1107	2118	2369
2201900	1115	2126	2295
2202540	1021	2141	2251
2203180	1133	2146	2202
2203820	1251	2146	2182
2204460	1300	2156	2171
2205100	1336	2190	2167
2205740	1322	2229	2178
2206380	1314	2257	2195
2207020	1269	2278	2220
2207660	1226	2292	2249
2208300	1240	2293	2256
2208940	1256	2292	2256
2209580	1262	2309	2252
2210220	1268	2327	2247
2210860	1278	2326	2242
2211500	1281	2329	2237
2212140	1289	2321	2229
2212780	1312	2308	2220
2213420	1321	2301	2220
2214060	1327	2294	2214
2214700	1311	2294	2216
2215340	1317	2290	2213
2215980	1298	2282	2213
2216620	1276	2274	2217
2217260	1288	2248	2213
2217900	1282	2226	2224
2218540	1307	2198	2226
2219180	1099	2221	2298
2219820	1152	2198	2306
2220460	1190	2149	2292
2221100	1182	2111	2288
2221740	1138	2083	2300
2222380	1183	2055	2287
2223020	1256	2029	2282
2223660	1294	2014	2285
2224300	1311	2009	2296
2224940	1289	2000	2316
2225580	1269	2000	2335
2226220	1249	2006	2352
2226860	1250	2024	2360
2227500	1242	2034	2366
2228140	1243	2039	2363
2228780	1240	2056	2362
2229420	1241	2068	2355
2230060	1246	2070	2350
2230700	1241	2077	2349
2231340	1246	2079	2342
2231980	1236	2078	2337
2232620	1233	2081	2328
2233260	1236	2086	2318
2233900	1250	2085	2313
2234540	1265	2087	2306
2235180	1268	2086	2305
2235820	1258	2089	2305
2236460	1256	2090	2306
2237100	1245	2098	2307
2237740	1245	2106	2308
2238380	1243	2108	2310
2239020	1254	2109	2310
2239660	1244	2109	2315
2240300	1238	2112	2315
2240940	1243	2115	2314
2241580	1245	2118	2316
2242220	1251	2119	2318
2242860	1264	2117	2318
2243500	1251	2117	2321
2244140	1256	2115	2321
2244780	1254	2114	2322
2245420	1248	2112	2324
2246060	1255	2111	2323
2246700	1250	2109	2325
2247340	1261	2113	2327
2247980	1245	2118	2331
2248620	1259	2121	2326
2249260	1270	2117	2328
2249900	1258	2113	2333
2250540	1250	2105	2334
2251180	1245	2096	2333
2251820	1241	2091	2336
2252460	1250	2080	2339
2253100	1260	2076	2340
2253740	1264	2069	2344
2254380	1256	2051	2343
2255020	1261	2013	2347
2255660	1242	2004	2350
2256300	1244	1977	2350
2256940	1246	1954	2358
2257580	1244	1966	2365
2258220	1235	2008	2377
2258860	1247	2048	2383
2259500	1264	2051	2388
2260140	1288	2063	2390
2260780	1288	2054	2394
2261420	1297	2054	2394
2262060	1278	2059	2397
2262700	1286	2058	2389
2263340	1246	2054	2398
2263980	1254	2049	2400
2264620	1278	2047	2390
2265260	1283	2051	2385
2265900	1292	2067	2368
2266540	1286	2079	2341
2267180	1292	2063	2317
2267820	1293	2038	2309
2268460	1246	2106	2312
2269100	1179	2137	2332
2269740	1190	2189	2327
2270380	1250	2213	2302
2271020	1225	2226	2307
2271660	1243	2245	2293
2272300	1260	2228	2279
2272940	1277	2224	2282
2273580	1276	2206	2299
2274220	1284	2177	2313
2274860	1286	2122	2335
2275500	1264	2123	2368
2276140	1275	2134	2380
2276780	1279	2136	2385
2277420	1258	2127	2392
2278060	1286	2139	2383
2278700	1279	2140	2379
2279340	1273	2145	2374
2279980	1259	2143	2367
2280620	1268	2154	2358
2281260	1271	2155	2349
2281900	1280	2158	2337
2282540	1260	2147	2343
2283180	1283	2167	2334
2283820	1275	2182	2315
2284460	1255	2172	2296
2285100	1272	2147	2272
2285740	1280	2112	2256
2286380	1254	2093	2270
2287020	1255	2069	2282
2287660	1235	2045	2298
2288300	1205	1990	2320
2288940	1166	1980	2324
2289580	1165	1967	2304
2290220	1141	1958	2277
2290860	1150	1941	2249
2291500	1200	1919	2218
2292140	1242	1894	2205
2292780	1250	1876	2209
2293420	1247	1855	2220
2294060	1242	1852	2236
2294700	1220	1861	2251
2295340	1208	1871	2267
2295980	1190	1898	2272
2296620	1151	1896	2282
2297260	1174	1890	2276
2297900	1229	1889	2261
2298540	1241	1878	2258
2299180	1255	1876	2258
2299820	1261	1879	2262
2300460	1260	1900	2269
2301100	1248	1918	2276
2301740	1261	1929	2284
2302380	1239	1938	2291
2303020	1231	1970	2295
2303660	1238	1995	2293
2304300	1242	2010	2291
2304940	1263	2017	2286
2305580	1268	2009	2292
2306220	1276	2015	2296
2306860	1278	2015	2296
2307500	1272	2018	2295
2308140	1257	2021	2298
2308780	1242	2029	2300
2309420	1266	2034	2288
2310060	1230	2028	2277
2310700	1227	2039	2270
2311340	1178	2041	2279
2311980	1188	2047	2284
2312620	1208	2046	2287
2313260	1233	2059	2280
2313900	1263	2070	2266
2314540	1249	2080	2266
2315180	1264	2093	2267
2315820	1271	2099	2276
2316460	1268	2105	2292
2317100	1275	2117	2301
2317740	1252	2131	2312
2318380	1234	2141	2314
2319020	1230	2152	2308
2319660	1227	2160	2297
2320300	1236	2167	2282
2320940	1252	2169	2270
2321580	1294	2171	2248
2322220	1277	2185	2240
2322860	1226	2211	2237
2323500	1203	2242	2221
2324140	1174	2262	2201
2324780	1134	2285	2187
2325420	1156	2297	2158
2326060	1177	2286	2134
2326700	1200	2279	2119
2327340	1240	2273	2111
2327980	1260	2246	2114
2328620	1265	2232	2127
2329260	1266	2219	2141
2329900	1274	2208	2152
2330540	1265	2207	2164
2331180	1254	2210	2171
2331820	1247	2215	2177
2332460	1243	2219	2186
2333100	1237	2224	2191
2333740	1262	2228	2188
2334380	1240	2232	2188
2335020	1239	2232	2188
2335660	1231	2232	2191
2336300	1225	2233	2197
2336940	1192	2236	2216
2337580	1250	2226	2203
2338220	1192	2213	2229
2338860	1128	2208	2255
2339500	1146	2194	2254
2340140	1172	2166	2244
2340780	1172	2125	2227
2341420	1178	2106	2209
2342060	1209	2102	2192
2342700	1242	2092	2179
2343340	1279	2089	2163
2343980	1262	2085	2150
2344620	1236	2091	2141
2345260	1203	2089	2141
2345900	1207	2082	2134
2346540	1207	2076	2130
2347180	1195	2066	2133
2347820	1200	2057	2129
2348460	1207	2039	2126
2349100	1192	2026	2129
2349740	1209	2019	2134
2350380	1229	2015	2139
2351020	1233	2008	2149
2351660	1235	2006	2159
2352300	1223	2006	2167
2352940	1200	2011	2177
2353580	1196	2010	2186
2354220	1183	2012	2192
2354860	1193	2012	2187
2355500	1185	2004	2185
2356140	1185	1999	2181
2356780	1186	1999	2175
2357420	1203	1995	2165
2358060	1214	1995	2159
2358700	1213	2002	2153
2359340	1206	2012	2146
2359980	1198	2021	2137
2360620	1197	2022	2130
2361260	1209	2025	2128
2361900	1215	2019	2129
2362540	1231	2014	2127
2363180	1223	2012	2136
2363820	1230	2007	2144
2364460	1211	2004	2163
2365100	1223	2006	2171
2365740	1211	2003	2178
2366380	1211	2007	2179
2367020	1215	2008	2177
2367660	1190	2008	2184
2368300	1171	2018	2186
2368940	1197	2017	2175
2369580	1164	2031	2166
2370220	1170	2036	2150
2370860	1193	2043	2122
2371500	1207	2050	2092
2372140	1205	2058	2077
2372780	1198	2068	2073
2373420	1194	2067	2072
2374060	1190	2071	2070
2374700	1188	2071	2064
2375340	1189	2073	2062
2375980	1199	2067	2064
2376620	1209	2062	2069
2377260	1212	2053	2074
2377900	1205	2054	2081
2378540	1201	2049	2086
2379180	1202	2050	2089
2379820	1208	2054	2089
2380460	1201	2060	2096
2381100	1195	2072	2096
2381740	1193	2073	2099
2382380	1183	2078	2100
2383020	1182	2085	2104
2383660	1196	2084	2106
2384300	1201	2092	2108
2384940	1209	2086	2106
2385580	1204	2090	2109
2386220	1210	2090	2111
