Time Stamp	Gyroscope X	Gyroscope Y	Gyroscope Z
RAW	RAW	RAW	RAW
no units	no units	no units	no units
4032618	458	-1229	-6996
4032946	1162	-1291	-5508
4033274	1646	-1139	-3832
4033602	1989	-898	-2286
4033930	2438	-929	-910
4034258	3135	-830	454
4034586	3829	-537	1879
4034914	4379	-358	3195
4035242	4936	-310	4400
4035570	5893	10	5603
4035898	2513	5173	6279
4036226	4887	137	5045
4036554	875	-361	2907
4036882	5657	-1112	4383
4037210	4884	-976	4748
4037538	3726	-475	5272
4037866	1974	914	4755
4038194	2175	1167	4915
4038522	3209	913	5061
4038850	3231	1643	4741
4039178	3608	2197	4454
4039506	3217	2116	4023
4039834	2598	2116	3710
4040162	1749	2217	3620
4040490	707	2323	3353
4040818	-36	2382	3090
4041146	-363	2401	2946
4041474	-345	2213	2983
4041802	-101	1868	3020
4042130	208	1473	2938
4042458	299	1313	2891
4042786	66	1340	2805
4043114	-453	1438	2536
4043442	-1148	1516	2300
4043770	-1610	1966	2157
4044098	-1722	1893	2165
4044426	-1575	1749	2306
4044754	-1159	1442	2383
4045082	-598	1294	2440
4045410	-70	1092	2502
4045738	459	821	2539
4046066	741	706	2539
4046394	831	678	2584
4046722	691	750	2709
4047050	481	797	2853
4047378	352	749	3076
4047706	274	732	3270
4048034	379	626	3512
4048362	625	567	3736
4048690	817	459	3899
4049018	891	481	4047
4049346	1868	-72	3998
4049674	830	659	4337
4050002	218	806	4440
4050330	-1	767	4670
4050658	-242	1009	4830
4050986	-96	1012	4949
4051314	-259	1279	5112
4051642	-666	1481	5177
4051970	-851	1459	5424
4052298	-1260	1363	5408
4052626	-1170	1410	5481
4052954	-1090	1465	5540
4053282	-1125	1915	5569
4053610	-1161	1558	5630
4053938	-1162	1339	5797
4054266	-1109	952	5987
4054594	-750	779	5876
4054922	-634	496	5887
4055250	-808	438	5887
4055578	-1088	393	5890
4055906	-1312	522	6041
4056234	-1430	633	6160
4056562	-1898	193	6458
4056890	-749	155	6845
4057218	-1343	683	6967
4057546	-1389	1381	7503
4057874	-2210	2031	7884
4058202	-2890	2214	8468
4058530	-3559	2421	9000
4058858	-2211	2767	9547
4059186	-3760	2398	9029
4059514	-2446	486	8014
4059842	209	-889	7133
4060170	2409	-2229	6688
4060498	2269	-1225	6413
4060826	1652	1936	5798
4061154	1749	802	4799
4061482	1835	1645	3600
4061810	1010	3007	3196
4062138	870	3260	1989
4062466	15	3441	726
4062794	-103	3659	-449
4063122	-285	3339	-1748
4063450	-199	3152	-2917
4063778	-96	2852	-3806
4064106	-64	2621	-4647
4064434	-16	2335	-5852
4064762	158	1927	-6974
4065090	938	1285	-8129
4065418	746	609	-9310
4065746	486	125	-10009
4066074	-206	137	-10864
4066402	-523	-389	-11702
4066730	-350	-1887	-13298
4067058	-267	-2318	-13864
4067386	-249	-2852	-14342
4067714	57	-3273	-14840
4068042	-37	-3721	-15402
4068370	-755	-4020	-15519
4068698	-1519	-3949	-15847
4069026	-2098	-4009	-15963
4069354	-2474	-3734	-15911
4069682	-2844	-3119	-15662
4070010	-3129	-2448	-15223
4070338	-3238	-2346	-15515
4070666	-4198	-2229	-15820
4070994	-5808	-659	-15794
4071322	-5947	-248	-14970
4071650	-5477	5	-14167
4071978	-3987	73	-12906
4072306	-3788	-279	-12139
4072634	-2994	-620	-10705
4072962	-2419	-817	-9127
4073290	-1134	-928	-7119
4073618	166	-1248	-4967
4073946	1047	-1244	-2687
4074274	1323	-782	-538
4074602	1258	-102	1514
4074930	1439	144	3426
4075258	2640	1669	5246
4075586	1205	3940	4701
4075914	113	-217	2658
4076242	1268	-520	2570
4076570	3110	-635	3377
4076898	3949	-54	5768
4077226	5681	-547	6541
4077554	4001	-1461	5121
4077882	3933	-353	4991
4078210	3183	1508	4790
4078538	2466	2278	4379
4078866	1368	2264	4484
4079194	-251	2554	4229
4079522	-574	1730	3930
4079850	-1011	1501	3782
4080178	-220	1181	3780
4080506	1062	977	3705
4080834	1920	775	3668
4081162	1881	882	3446
4081490	1123	938	3306
4081818	123	1048	3156
4082146	-895	1470	3009
4082474	-1840	1713	2976
4082802	-2094	1674	3033
4083130	-1873	1433	3101
4083458	-1367	1147	3078
4083786	-825	880	3015
4084114	-549	671	3008
4084442	-451	479	3028
4084770	-282	253	3120
4085098	-83	100	3229
4085426	133	60	3293
4085754	295	26	3453
4086082	174	7	3637
4086410	-94	45	3754
4086738	-351	103	3891
4087066	-412	4	4040
4087394	-208	-43	4180
4087722	-93	163	4240
4088050	-219	355	4353
4088378	-548	460	4414
4088706	-827	506	4516
4089034	-1017	549	4573
4089362	-1050	510	4753
4089690	-1493	636	4769
4090018	-1255	588	4853
4090346	-1423	607	4974
4090674	-1597	545	5081
4091002	-1545	529	5239
4091330	-1468	544	5341
4091658	-1490	710	5477
4091986	-1826	763	5603
4092314	-1914	483	5767
4092642	-2281	433	6002
4092970	-2646	314	6254
4093298	-3309	-224	6701
4093626	-2178	-413	7034
4093954	-2135	523	7511
4094282	-1926	1326	8400
4094610	-2318	1945	9124
4094938	-2048	1800	9801
4095266	-3442	1688	10037
4095594	-3846	2221	9918
4095922	-3581	648	9279
4096250	-3231	-419	8767
4096578	-4821	902	7510
4096906	-3329	-626	5499
4097234	-3561	-5376	2626
4097562	-5827	-157	450
4097890	-5667	5541	-96
4098218	-5769	5480	-1601
4098546	-3765	4149	-3129
4098874	-2188	4029	-4602
4099202	-1657	4299	-5898
4099530	-962	4149	-7208
4099858	-45	3960	-8335
4100186	-352	4367	-9167
4100514	-908	5059	-10079
4100842	-2258	5363	-11053
4101170	509	4273	-12315
4101498	-2969	6621	-12437
4101826	-3250	6654	-13002
4102154	-4082	7138	-13542
4102482	-4475	7236	-14132
4102810	-4534	7496	-14544
4103138	-4726	7370	-14468
4103466	-4919	7174	-14122
4103794	-5644	6822	-13669
4104122	-7133	6432	-14063
4104450	-8644	6273	-13951
4104778	-9954	6213	-13384
4105106	-10729	6007	-12591
4105434	-10811	5867	-11657
4105762	-10218	5381	-10546
4106090	-9301	4408	-9578
4106418	-7556	3284	-8235
4106746	-5975	2449	-6863
4107074	-4829	2018	-5548
4107402	-3636	1642	-3918
4107730	-2258	1007	-2168
4108058	-1117	418	-733
4108386	217	-299	470
4108714	1552	-1028	1767
4109042	3052	-1738	2863
4109370	4714	-1856	3850
4109698	4057	30	4271
4110026	7360	-1945	2265
4110354	8621	-2251	587
4110682	10297	-4370	3617
4111010	8286	1476	5949
4111338	585	-319	3771
4111666	-3930	1114	3526
4111994	-5740	1988	3571
4112322	-5892	2201	2799
4112650	-5626	1854	2179
4112978	-5331	1407	2036
4113306	-4901	1218	1913
4113634	-3548	915	1826
4113962	-2042	476	1611
4114290	-1091	464	1592
4114618	-1041	410	1395
4114946	-1566	440	1165
4115274	-2715	569	1060
4115602	-3653	541	1021
4115930	-4122	549	1044
4116258	-4058	364	1079
4116586	-3537	84	1039
4116914	-3061	-28	1032
4117242	-2994	-113	996
4117570	-3420	-157	997
4117898	-3863	-199	1029
4118226	-3899	-194	1042
4118554	-3720	-167	1083
4118882	-3502	-205	1105
4119210	-3265	-273	1167
4119538	-3113	-443	1228
4119866	-3022	-543	1229
4120194	-2724	-699	1244
4120522	-2460	-799	1199
4120850	-2299	-825	1168
4121178	-2344	-797	1113
4121506	-2388	-748	1099
4121834	-2584	-683	1124
4122162	-2704	-705	1126
4122490	-2671	-699	1160
4122818	-2582	-794	1194
4123146	-2482	-867	1199
4123474	-2440	-826	1229
4123802	-2482	-872	1302
4124130	-2773	-782	1279
4124458	-2948	-627	1277
4124786	-3146	-526	1305
4125114	-3285	-596	1238
4125442	-3222	-719	1229
4125770	-3063	-860	1191
4126098	-2708	-860	1163
4126426	-2443	-730	1146
4126754	-2205	-694	1141
4127082	-2039	-743	1121
4127410	-1812	-809	1081
4127738	-1366	-708	1070
4128066	-1024	-546	1129
4128394	-865	-509	1156
4128722	-842	-479	1236
4129050	-717	-563	1333
4129378	-492	-799	1403
4129706	-202	-939	1363
4130034	-74	-881	1311
4130362	97	-897	1274
4130690	111	-968	1241
4131018	22	-942	1109
4131346	-58	-827	1114
4131674	-434	-611	1052
4132002	-865	-566	908
4132330	-1097	-545	820
4132658	-1440	-581	680
4132986	-1455	-583	541
4133314	-1572	-249	440
4133642	-1747	200	327
4133970	-2122	795	292
4134298	-3148	1520	339
4134626	-4419	2179	502
4134954	-5609	2842	802
4135282	-6332	3144	1063
4135610	-7083	3546	1275
4135938	-7108	3611	1599
4136266	-6889	3686	1991
4136594	-6585	3695	2280
4136922	-6397	3615	2213
4137250	-6179	3450	2156
4137578	-5616	3165	2053
4137906	-5187	2819	1747
4138234	-4369	2594	1406
4138562	-3410	1964	937
4138890	-2688	1597	366
4139218	-2300	1266	-611
4139546	-2474	1269	-986
4139874	-2870	1543	-1306
4140202	-3938	2368	-1801
4140530	-3149	312	-2565
4140858	-2867	692	-3184
4141186	-2288	288	-3323
4141514	-1645	208	-2579
4141842	-1036	370	-1324
4142170	-889	369	-397
4142498	-932	124	-417
4142826	-1470	82	-642
4143154	-220	-299	-1289
4143482	117	-73	-1338
4143810	97	40	-948
4144138	-398	107	-815
4144466	-561	99	-553
4144794	-470	5	-264
4145122	-427	21	-300
4145450	-321	26	-358
4145778	-40	38	-346
4146106	231	99	-335
4146434	361	175	-361
4146762	392	112	-398
4147090	328	145	-381
4147418	208	174	-306
4147746	58	187	-290
4148074	-85	190	-301
4148402	-118	188	-291
4148730	-77	175	-288
4149058	-42	174	-289
4149386	75	147	-272
4149714	225	114	-241
4150042	215	159	-248
4150370	127	242	-250
4150698	12	280	-223
4151026	-34	308	-190
4151354	-31	316	-188
4151682	-40	327	-168
4152010	-56	354	-143
4152338	-54	374	-91
4152666	-58	324	-75
4152994	-7	321	-27
4153322	49	282	17
4153650	88	283	39
4153978	137	257	58
4154306	155	272	80
4154634	166	274	113
4154962	180	287	122
4155290	145	292	104
4155618	160	286	94
4155946	184	298	103
4156274	139	312	125
4156602	110	304	136
4156930	117	312	148
4157258	109	272	184
4157586	92	267	202
4157914	140	291	208
4158242	174	244	199
4158570	207	213	213
4158898	221	229	230
4159226	199	239	236
4159554	137	237	252
4159882	103	246	279
4160210	37	241	273
4160538	9	224	273
4160866	24	216	275
4161194	43	246	269
4161522	49	248	271
4161850	67	221	286
4162178	70	210	297
4162506	61	209	270
4162834	44	219	250
4163162	9	223	239
4163490	4	229	211
4163818	11	246	214
4164146	28	239	223
4164474	11	216	221
4164802	47	203	180
4165130	43	202	164
4165458	35	192	149
4165786	22	166	123
4166114	38	170	110
4166442	7	191	86
4166770	-31	187	67
4167098	-90	210	68
4167426	-126	213	62
4167754	-117	202	42
4168082	-130	185	3
4168410	-154	181	-16
4168738	-158	172	-23
4169066	-159	172	-41
4169394	-158	175	-38
4169722	-161	180	-56
4170050	-167	174	-33
4170378	-136	164	-45
4170706	-123	160	-67
4171034	-116	146	-57
4171362	-132	158	-67
4171690	-138	175	-63
4172018	-178	182	-36
4172346	-198	190	-46
4172674	-172	171	-56
4173002	-146	172	-79
4173330	-94	162	-77
4173658	-92	164	-73
4173986	-16	138	-70
4174314	37	129	-89
4174642	74	131	-92
4174970	83	151	-89
4175298	109	134	-98
4175626	111	125	-71
4175954	123	142	-45
4176282	92	132	4
4176610	45	147	41
4176938	24	146	60
4177266	23	152	76
4177594	16	143	93
4177922	13	139	92
4178250	12	133	79
4178578	29	128	81
4178906	56	135	77
4179234	58	140	78
4179562	67	146	71
4179890	96	138	61
4180218	144	115	44
4180546	153	125	48
4180874	146	128	46
4181202	104	134	17
4181530	85	130	11
4181858	45	133	5
4182186	24	139	-6
4182514	-43	166	-23
4182842	-87	172	-22
4183170	-130	179	-34
4183498	-150	167	-38
4183826	-114	151	-49
4184154	-92	142	-53
4184482	-74	147	-69
4184810	-108	145	-51
4185138	-146	157	-65
4185466	-158	142	-71
4185794	-86	144	-77
4186122	-83	135	-89
4186450	-51	103	-81
4186778	-53	98	-92
4187106	-73	113	-82
4187434	-93	125	-90
4187762	-87	118	-89
4188090	-74	116	-98
4188418	-43	84	-102
4188746	-38	96	-112
4189074	-79	100	-98
4189402	-81	111	-72
4189730	-91	128	-79
4190058	-73	106	-82
4190386	-24	98	-97
4190714	-4	105	-90
4191042	-12	107	-83
4191370	-27	111	-74
4191698	-29	102	-62
4192026	2	101	-76
4192354	16	101	-81
4192682	23	88	-74
4193010	-24	112	-84
4193338	-70	124	-77
4193666	-98	120	-72
4193994	-95	123	-69
4194322	-49	107	-62
4194650	-29	96	-73
4194978	-41	90	-66
4195306	-64	101	-80
4195634	-116	119	-72
4195962	-161	129	-73
4196290	-164	128	-69
4196618	-134	113	-59
4196946	-73	96	-73
4197274	-26	93	-80
4197602	-29	83	-73
4197930	-106	99	-80
4198258	-136	110	-85
4198586	-160	114	-75
4198914	-127	116	-77
4199242	-111	118	-62
4199570	-76	99	-61
4199898	-86	109	-76
4200226	-111	103	-76
4200554	-151	107	-66
4200882	-160	105	-67
4201210	-155	100	-65
4201538	-107	98	-80
4201866	-116	93	-75
4202194	-122	108	-62
4202522	-126	102	-62
4202850	-96	89	-49
4203178	-70	76	-57
4203506	-34	63	-49
4203834	-37	79	-69
4204162	-74	87	-60
4204490	-61	92	-50
4204818	-17	86	-54
4205146	41	66	-59
4205474	147	62	-63
4205802	175	63	-73
4206130	151	71	-76
4206458	75	96	-74
4206786	16	117	-86
4207114	25	97	-95
4207442	80	104	-111
4207770	139	85	-103
4208098	176	60	-101
4208426	245	31	-110
4208754	351	-11	-97
4209082	491	-59	-99
4209410	599	-89	-114
4209738	680	-104	-100
4210066	621	-79	-91
4210394	406	12	-55
4210722	-31	109	-4
4211050	-187	156	-4
4211378	-332	188	-16
4211706	-494	239	-6
4212034	-656	277	4
4212362	-778	315	-10
4212690	-858	312	-22
4213018	-912	355	-36
4213346	-963	383	-55
4213674	-986	436	-38
4214002	-1029	497	-55
4214330	-905	412	-54
4214658	-1114	487	-74
4214986	-1071	530	-61
4215314	-1008	445	-88
4215642	-875	418	-147
4215970	-624	358	-190
4216298	-494	311	-181
4216626	-470	285	-177
4216954	-491	245	-197
4217282	-400	199	-206
4217610	-278	165	-229
4217938	-202	147	-247
4218266	-103	123	-226
4218594	-30	79	-236
4218922	40	63	-216
4219250	114	60	-218
4219578	51	80	-233
4219906	37	59	-236
4220234	54	35	-233
4220562	136	-12	-229
4220890	193	-40	-222
4221218	309	-67	-212
4221546	341	-71	-222
4221874	256	-61	-212
4222202	73	-13	-177
4222530	-111	15	-183
4222858	-212	59	-199
4223186	-254	75	-171
4223514	-276	85	-174
4223842	-286	70	-171
4224170	-300	76	-168
4224498	-282	62	-158
4224826	-228	76	-170
4225154	-154	73	-166
4225482	-72	90	-171
4225810	-9	116	-165
4226138	11	135	-160
4226466	17	118	-153
4226794	-4	127	-150
4227122	1	127	-140
4227450	-40	137	-137
4227778	-107	139	-140
4228106	-215	166	-138
4228434	-263	176	-130
4228762	-265	183	-109
4229090	-214	160	-96
4229418	-158	131	-107
4229746	-144	110	-106
4230074	-144	114	-107
4230402	-133	131	-97
4230730	-106	143	-110
4231058	-84	144	-95
4231386	-17	117	-105
4231714	47	104	-84
4232042	34	98	-90
4232370	4	107	-89
4232698	-71	122	-85
4233026	-136	162	-69
4233354	-195	153	-56
4233682	-231	153	-56
4234010	-213	153	-49
4234338	-195	177	-48
4234666	-203	179	-27
4234994	-211	180	-12
4235322	-242	189	-8
4235650	-269	173	-23
4235978	-273	178	-17
4236306	-249	168	-25
4236634	-203	158	-26
4236962	-172	147	-35
4237290	-158	164	-41
4237618	-99	164	-39
4237946	-13	158	-19
4238274	82	158	-21
4238602	147	144	-26
4238930	170	143	1
4239258	192	135	18
4239586	208	132	24
4239914	257	129	35
4240242	297	116	55
4240570	323	120	58
4240898	367	110	63
4241226	388	96	48
4241554	377	101	42
4241882	349	105	47
4242210	301	116	59
4242538	281	118	58
4242866	287	124	46
4243194	303	124	34
4243522	319	113	31
4243850	285	129	47
4244178	239	136	54
4244506	193	128	25
4244834	159	137	19
4245162	123	157	2
4245490	128	156	9
4245818	241	192	-17
4246146	340	271	-32
4246474	488	304	-29
4246802	533	475	-33
4247130	640	395	17
4247458	692	208	51
4247786	719	88	81
4248114	712	33	34
4248442	710	11	-6
4248770	474	95	-11
4249098	63	185	-19
4249426	-398	259	-18
4249754	-782	310	-19
4250082	-1049	336	-50
4250410	-1189	358	-86
4250738	-1303	353	-116
4251066	-1369	359	-140
4251394	-1468	366	-142
4251722	-1554	404	-174
4252050	-1592	420	-163
4252378	-1373	356	-146
4252706	-1430	419	-167
4253034	-1339	377	-193
4253362	-1104	315	-185
4253690	-843	249	-191
4254018	-471	147	-179
4254346	-189	133	-164
4254674	26	114	-153
4255002	241	41	-160
4255330	567	19	-137
4255658	869	-88	-155
4255986	1055	-103	-126
4256314	1102	-150	-69
4256642	1067	-146	-28
4256970	1011	-96	-9
4257298	1032	-72	11
4257626	1136	-200	35
4257954	1330	-335	35
4258282	1494	-444	-13
4258610	1413	-453	-39
4258938	1161	-395	-67
4259266	670	-276	-142
4259594	200	-207	-207
4259922	-59	-216	-239
4260250	-203	-259	-322
4260578	-289	-323	-430
4260906	-355	-364	-555
4261234	-481	-434	-718
4261562	-781	-427	-883
4261890	-1169	-388	-1042
4262218	-1567	-351	-1180
4262546	-1970	-219	-1288
4262874	-2315	-149	-1303
4263202	-2829	25	-1339
4263530	-3260	242	-1366
4263858	-3674	542	-1318
4264186	-4142	946	-1288
4264514	-4514	1264	-1246
4264842	-4833	1574	-1182
4265170	-5291	1855	-1148
4265498	-6030	2112	-1152
4265826	-6983	2419	-1048
4266154	-8322	3080	-781
4266482	-10230	4088	-459
4266810	-12479	5069	-199
4267138	-14765	6058	-44
4267466	-16978	6859	76
4267794	-18697	7508	270
4268122	-20148	7946	483
4268450	-21377	8355	723
4268778	-22295	8702	863
4269106	-22543	8688	992
4269434	-22896	8684	1033
4269762	-23244	8929	1057
4270090	-23284	8886	1120
4270418	-22699	8764	1019
4270746	-21174	8303	852
4271074	-18394	7245	679
4271402	-14920	5989	349
4271730	-11169	4792	25
4272058	-7718	3549	-179
4272386	-3397	1667	-281
4272714	694	678	-498
4273042	3087	298	-855
4273370	2671	1046	-677
4273698	377	1985	-124
4274026	-1905	2229	53
4274354	-2729	2390	171
4274682	-1540	1989	73
4275010	576	1144	-18
4275338	1700	833	-125
4275666	2742	433	97
4275994	3156	339	202
4276322	2899	222	8
4276650	2710	321	-120
4276978	2307	619	-132
4277306	1733	977	-47
4277634	1355	1056	82
4277962	1263	896	94
4278290	1386	755	87
4278618	1700	431	76
4278946	1668	235	60
4279274	1420	121	91
4279602	1059	-32	77
4279930	782	-258	-7
4280258	404	-295	-128
4280586	268	-302	-121
4280914	76	-189	-219
4281242	-132	225	-330
4281570	-277	376	-303
4281898	-368	306	-259
4282226	-435	245	-277
4282554	-747	203	-313
4282882	-907	131	-301
4283210	-1255	295	-393
4283538	-1609	572	-411
4283866	-2157	868	-389
4284194	-2784	1131	-370
4284522	-3130	1138	-367
4284850	-3250	1169	-357
4285178	-3062	1084	-321
4285506	-2799	1003	-272
4285834	-2616	915	-225
4286162	-2631	975	-150
4286490	-2884	1107	-52
4286818	-3348	1293	61
4287146	-3392	1077	185
4287474	-4437	1508	391
4287802	-4967	1597	519
4288130	-5187	1476	680
4288458	-5126	1344	780
4288786	-5020	1233	844
4289114	-4860	1132	927
4289442	-4785	1228	1003
4289770	-4834	1418	1039
4290098	-4816	1656	1090
4290426	-4576	1647	1142
4290754	-4288	1406	1188
4291082	-4025	1243	1214
4291410	-3863	1240	1328
4291738	-3884	1252	1414
4292066	-4036	1411	1488
4292394	-4251	1831	1579
4292722	-4420	2004	1714
4293050	-4519	1720	1768
4293378	-4597	1675	1765
4293706	-4711	1966	1859
4294034	-4941	2344	2070
4294362	-5355	2626	2247
4294690	-5717	2853	2384
4295018	-5588	3138	2850
4295346	-5315	2893	3334
4295674	-4359	2184	3817
4296002	-3584	1353	4267
4296330	-2605	820	4621
4296658	-2360	1021	4726
4296986	-3755	1356	4673
4297314	-3900	2741	4685
4297642	-5079	4359	4523
4297970	-6164	5147	4224
4298298	-7224	5994	4043
4298626	-8303	6796	4162
4298954	-9645	7115	3804
4299282	-10971	7701	3371
4299610	-11893	7788	2524
4299938	-12974	7808	1438
4300266	-13564	7518	294
4300594	-13825	6933	-972
4300922	-13798	6264	-2334
4301250	-13513	5826	-3510
4301578	-12910	5226	-4704
4301906	-12058	4609	-5830
4302234	-11459	4006	-6848
4302562	-11222	3498	-7695
4302890	-11107	3070	-8429
4303218	-11179	2623	-8856
4303546	-11142	2387	-9093
4303874	-11297	2379	-9363
4304202	-11306	2375	-9470
4304530	-11308	2308	-9441
4304858	-11284	2445	-9432
4305186	-11515	2322	-9456
4305514	-11852	2332	-9447
4305842	-12142	2336	-9347
4306170	-12151	2268	-9181
4306498	-11875	2091	-9041
4306826	-11553	1963	-8839
4307154	-11329	2159	-8557
4307482	-11426	2768	-7887
4307810	-11360	2722	-7608
4308138	-11220	2734	-7026
4308466	-10771	2748	-6296
4308794	-10219	3073	-5638
4309122	-9402	2868	-4843
4309450	-8450	1882	-4128
4309778	-7317	1324	-3324
4310106	-6929	934	-2830
4310434	-6535	680	-1652
4310762	-5601	527	-147
4311090	-4659	830	1094
4311418	-3850	838	2069
4311746	-2984	952	2787
4312074	-2545	1264	3660
4312402	-2262	1594	4289
4312730	-1750	1587	4691
4313058	-2539	3289	5182
4313386	-2319	4971	4449
4313714	-124	-203	1500
4314042	2366	-1149	1253
4314370	4313	-1030	2341
4314698	4930	-60	3706
4315026	3157	849	3871
4315354	1444	1624	3845
4315682	805	2096	4489
4316010	51	1974	3347
4316338	364	1663	2991
4316666	270	1569	2786
4316994	-741	2220	2677
4317322	-1593	2485	2826
4317650	-1796	2252	3034
4317978	-1280	1820	2987
4318306	-637	1426	2680
4318634	-223	1471	2410
4318962	-11	1622	2191
4319290	-298	1633	1913
4319618	-653	1607	1593
4319946	-958	1706	1457
4320274	-1264	1701	1412
4320602	-1382	1612	1426
4320930	-1121	1477	1356
4321258	-642	1249	1230
4321586	-225	1117	1155
4321914	-157	1013	1049
4322242	-382	1020	959
4322570	-857	1030	1068
4322898	-1412	949	1179
4323226	-1751	844	1296
4323554	-1843	684	1385
4323882	-1670	589	1604
4324210	-1530	612	1775
4324538	-1646	391	1916
4324866	-1811	726	2005
4325194	-2245	837	2204
4325522	-2219	907	2398
4325850	-2271	1012	2662
4326178	-2241	1128	2785
4326506	-2169	1210	2942
4326834	-1945	1255	3207
4327162	-1875	1431	3430
4327490	-1978	1558	3538
4327818	-1982	1731	3638
4328146	-1743	1725	3589
4328474	-2242	2113	3701
4328802	-2543	2543	3838
4329130	-2856	3198	3836
4329458	-3140	3486	3917
4329786	-3640	3681	4015
4330114	-4112	3698	4078
4330442	-4133	3762	4142
4330770	-3714	3588	4200
4331098	-3442	3510	4388
4331426	-3063	3566	4661
4331754	-3003	3726	5013
4332082	-2967	4144	5530
4332410	-3413	4312	6100
4332738	-3241	4999	7428
4333066	-4712	4631	7732
4333394	-4297	5354	8198
4333722	-4125	6370	9074
4334050	-4825	7224	9354
4334378	-5148	7402	9195
4334706	-5783	7158	8857
4335034	-6781	6253	7614
4335362	-6157	4191	6925
4335690	-6565	1474	5037
4336018	-6311	2581	3016
4336346	-7167	5894	1996
4336674	-8821	7194	64
4337002	-9170	5689	-1715
4337330	-9348	4536	-2991
4337658	-9737	4818	-4962
4337986	-9293	3859	-6390
4338314	-8033	2275	-7759
4338642	-6891	828	-8818
4338970	-5824	-232	-9648
4339298	-5145	-839	-10301
4339626	-4947	-959	-10876
4339954	-5403	-1576	-11379
4340282	-6295	-1943	-11837
4340610	-6577	-2512	-12212
4340938	-6679	-3052	-12399
4341266	-6785	-3714	-12804
4341594	-6645	-4369	-12874
4341922	-6261	-4854	-12783
4342250	-5546	-5512	-12860
4342578	-4662	-6090	-12697
4342906	-3347	-6539	-12442
4343234	-2050	-6802	-11759
4343562	-866	-7540	-12000
4343890	-304	-8212	-11505
4344218	0	-8747	-11120
4344546	627	-9245	-10763
4344874	2105	-9182	-10086
4345202	888	-9670	-9673
4345530	1343	-9568	-8807
4345858	1720	-9444	-7976
4346186	2499	-9351	-7187
4346514	3165	-9347	-6612
4346842	3952	-9391	-5763
4347170	4538	-9286	-4999
4347498	4943	-8990	-4311
4347826	5017	-8657	-3580
4348154	5518	-7929	-3008
4348482	5063	-7216	-2362
4348810	5532	-6205	-1721
4349138	5537	-5393	-1281
4349466	6019	-4820	-643
4349794	6447	-4338	205
4350122	6627	-3766	1099
4350450	6734	-3164	1720
4350778	6976	-2582	2117
4351106	7438	-2041	2406
4351434	8281	-1515	4607
4351762	7860	-2880	5425
4352090	5201	3662	5154
4352418	2432	5876	5839
4352746	-57	7085	5056
4353074	-2574	5087	3591
4353402	-2779	6380	3724
4353730	423	6082	3541
4354058	-188	3215	2455
4354386	5238	6954	3893
4354714	1676	9842	2967
4355042	1751	9384	3189
4355370	-1234	6122	2465
4355698	-2394	4915	1925
4356026	-1807	3792	1111
4356354	223	3912	1041
4356682	1996	4545	1044
4357010	2540	4739	975
4357338	1957	4829	724
4357666	793	4807	558
4357994	-215	4696	361
4358322	-525	4275	231
4358650	-790	4009	44
4358978	-585	3511	78
4359306	-26	3091	55
4359634	876	2869	-190
4359962	1612	2758	-427
4360290	2286	2323	-547
4360618	2804	2434	-809
4360946	2893	2446	-894
4361274	2911	2184	-1030
4361602	2951	1949	-1095
4361930	2975	1657	-1032
4362258	2584	1431	-922
4362586	2400	1207	-771
4362914	2368	991	-672
4363242	2204	947	-662
4363570	1637	1215	-680
4363898	2260	644	-669
4364226	1995	617	-678
4364554	1923	631	-548
4364882	1947	647	-445
4365210	1867	803	-270
4365538	2029	789	-132
4365866	2144	1024	-231
4366194	2146	1244	-288
4366522	1907	1474	-179
4366850	1532	1356	-52
4367178	1691	1186	14
4367506	1927	1392	9
4367834	1728	1366	101
4368162	1283	1271	188
4368490	808	1110	39
4368818	630	1042	150
4369146	757	1039	188
4369474	789	1060	122
4369802	679	1095	167
4370130	596	1106	305
4370458	439	941	338
4370786	514	708	401
4371114	802	589	495
4371442	1116	570	518
4371770	1258	544	459
4372098	1073	720	444
4372426	515	729	498
4372754	284	472	557
4373082	276	256	536
4373410	524	56	575
4373738	741	-134	573
4374066	943	-284	486
4374394	994	-456	327
4374722	1088	-622	120
4375050	1345	-801	-92
4375378	1778	-988	-340
4375706	2271	-1132	-637
4376034	2442	-1211	-912
4376362	2372	-1180	-843
4376690	1883	-1179	-529
4377018	893	-1053	-283
4377346	-44	-425	-80
4377674	-690	790	165
4378002	-1393	1183	214
4378330	-1556	1571	269
4378658	-1379	1664	310
4378986	-1389	1717	297
4379314	-1813	1758	390
4379642	-2743	2024	671
4379970	-3599	2153	889
4380298	-4178	2164	923
4380626	-4168	2144	913
4380954	-3800	2085	760
4381282	-3407	2111	582
4381610	-3169	2243	525
4381938	-3269	2719	426
4382266	-3241	2827	144
4382594	-2934	2541	-1
4382922	-2797	2112	-66
4383250	-1930	1456	-55
4383578	-61	334	42
4383906	1763	-750	-29
4384234	3154	-1391	-183
4384562	3738	-1509	-404
4384890	4022	-1476	-371
4385218	3927	-1437	-239
4385546	3549	-1264	-160
4385874	3145	-973	89
4386202	2431	-620	313
4386530	490	218	333
4386858	74	284	236
4387186	293	232	317
4387514	334	183	327
4387842	207	208	304
4388170	88	252	185
4388498	9	267	13
4388826	112	282	-58
4389154	300	232	-99
4389482	429	179	-116
4389810	477	161	-147
4390138	485	126	-144
4390466	360	127	-166
4390794	66	174	-184
4391122	-237	268	-129
4391450	-546	326	-140
4391778	-660	311	-129
4392106	-600	274	-111
4392434	-462	209	-123
4392762	-326	170	-133
4393090	-115	112	-94
4393418	25	80	-83
4393746	39	81	-69
4394074	-17	103	-19
4394402	-86	94	15
4394730	-161	87	38
4395058	-232	85	75
4395386	-401	163	101
4395714	-500	162	138
4396042	-513	160	179
4396370	-385	84	169
4396698	-253	43	112
4397026	-158	47	83
4397354	-188	67	67
4397682	-193	64	66
4398010	-156	47	37
4398338	-54	13	-35
4398666	90	2	-83
4398994	162	-8	-86
4399322	195	-22	-94
4399650	202	5	-98
4399978	158	42	-127
4400306	212	36	-167
4400634	369	-8	-221
4400962	502	-25	-217
4401290	471	0	-175
4401618	365	39	-134
4401946	303	47	-123
4402274	294	16	-106
4402602	330	27	-96
4402930	295	13	-69
4403258	238	21	-48
4403586	153	34	-44
4403914	124	19	-13
4404242	128	23	-11
4404570	52	35	-10
4404898	6	32	28
4405226	6	17	23
4405554	61	15	17
4405882	75	25	1
4406210	41	6	24
4406538	23	19	36
4406866	-63	23	30
4407194	-134	50	35
4407522	-262	77	35
4407850	-360	100	43
4408178	-390	108	56
4408506	-383	97	66
4408834	-370	88	64
4409162	-392	115	62
4409490	-424	119	79
4409818	-379	102	57
4410146	-357	98	45
4410474	-301	91	41
4410802	-242	105	56
4411130	-208	107	57
4411458	-161	89	41
4411786	-74	67	44
4412114	-52	87	19
4412442	-79	96	25
4412770	-151	105	37
4413098	-200	136	40
4413426	-199	147	29
4413754	-171	133	39
4414082	-125	125	62
4414410	-74	118	51
4414738	-75	139	46
4415066	-76	140	60
4415394	-105	150	69
4415722	-124	165	78
4416050	-97	169	81
4416378	-65	161	85
4416706	-67	154	87
4417034	-102	169	89
4417362	-122	176	81
4417690	-100	175	85
4418018	-82	171	75
4418346	-106	173	80
4418674	-136	174	75
4419002	-130	170	74
4419330	-89	175	56
4419658	-62	171	56
4419986	-49	175	36
4420314	-65	169	35
4420642	-114	177	41
4420970	-147	193	51
4421298	-170	182	44
4421626	-167	148	20
4421954	-145	158	13
4422282	-159	164	19
4422610	-196	166	12
4422938	-192	163	18
4423266	-202	171	0
4423594	-176	162	-13
4423922	-181	167	-9
4424250	-152	165	-26
4424578	-107	162	-26
4424906	-85	164	-56
4425234	-87	153	-49
4425562	-104	158	-43
4425890	-109	138	-58
4426218	-74	121	-56
4426546	-55	125	-57
4426874	-18	117	-53
4427202	-18	126	-49
4427530	-34	138	-43
4427858	-47	140	-52
4428186	-72	144	-54
4428514	-77	148	-56
4428842	-89	137	-51
4429170	-106	165	-46
4429498	-94	167	-43
4429826	-89	156	-47
4430154	-79	165	-45
4430482	-80	173	-41
4430810	-77	185	-40
4431138	-71	170	-25
4431466	-68	163	-30
4431794	-64	161	-36
4432122	-62	167	-23
4432450	-41	159	-16
4432778	-45	182	-10
4433106	-45	167	-13
4433434	-36	178	-17
4433762	-36	166	-22
4434090	-48	175	-23
4434418	-56	175	-29
4434746	-43	180	-31
4435074	-24	156	-30
4435402	4	153	-45
4435730	-28	161	-44
4436058	-54	164	-39
4436386	-59	148	-37
4436714	-68	173	-45
4437042	-71	172	-35
4437370	-88	174	-37
4437698	-82	173	-36
4438026	-64	166	-28
4438354	-65	169	-32
4438682	-48	156	-17
4439010	-34	154	-22
4439338	-45	161	-21
4439666	-44	166	-16
4439994	-42	160	-25
4440322	8	146	-22
4440650	24	154	-30
4440978	22	148	-22
4441306	-3	164	-16
4441634	-27	159	-14
4441962	-9	166	-11
4442290	3	153	-5
4442618	4	158	-4
4442946	-3	152	-4
4443274	-12	165	-3
4443602	-42	175	-2
4443930	-70	177	10
4444258	-58	169	22
4444586	-20	149	16
4444914	10	150	11
4445242	13	137	5
4445570	-16	162	0
4445898	-36	172	5
4446226	-67	162	21
4446554	-64	149	24
4446882	-49	171	22
4447210	-44	152	5
4447538	-16	148	12
4447866	-28	144	9
4448194	-33	158	20
4448522	1	145	7
4448850	-5	141	15
4449178	-6	141	15
4449506	-1	147	10
4449834	-15	142	16
4450162	-12	137	21
4450490	-12	137	4
4450818	-19	135	-13
4451146	-26	133	3
4451474	-41	141	-4
4451802	-47	142	-3
4452130	-31	128	-1
4452458	-31	127	2
4452786	-58	122	4
4453114	-54	129	9
4453442	-54	121	-2
4453770	-52	121	-1
4454098	-82	133	15
4454426	-122	135	15
4454754	-133	135	16
4455082	-96	115	20
4455410	-80	106	4
4455738	-53	109	-1
4456066	-69	117	5
4456394	-77	116	7
4456722	-78	125	-16
4457050	8	109	-6
4457378	31	110	-26
4457706	13	105	-29
4458034	-27	132	-44
4458362	-51	132	-57
4458690	-61	127	-60
4459018	-72	126	-75
4459346	-65	116	-85
4459674	-74	128	-81
4460002	-98	134	-74
4460330	-89	115	-81
4460658	-83	126	-85
4460986	-82	111	-94
4461314	-90	123	-96
4461642	-119	122	-84
4461970	-106	122	-93
4462298	-88	125	-84
4462626	-84	123	-75
4462954	-57	117	-97
4463282	-55	112	-94
4463610	-70	122	-91
4463938	-75	115	-105
4464266	-75	121	-106
4464594	-60	108	-108
4464922	-63	104	-113
4465250	-65	105	-115
4465578	-37	114	-113
4465906	-59	123	-127
4466234	-71	120	-133
4466562	-92	127	-121
4466890	-95	112	-132
4467218	-87	123	-120
4467546	-82	119	-124
4467874	-91	118	-119
4468202	-73	125	-120
4468530	-61	151	-123
4468858	-59	136	-118
4469186	-55	137	-103
4469514	-53	147	-109
4469842	-40	121	-109
4470170	-56	125	-117
4470498	-60	143	-112
4470826	-64	147	-103
4471154	-79	155	-113
4471482	-41	145	-104
4471810	-23	137	-113
4472138	-29	152	-102
4472466	-42	139	-102
4472794	-55	150	-97
4473122	-47	143	-100
4473450	-27	154	-89
4473778	-6	150	-90
4474106	-6	150	-86
4474434	28	143	-70
4474762	13	135	-53
4475090	15	127	-71
4475418	30	124	-63
4475746	28	157	-78
4476074	37	156	-63
4476402	27	159	-56
4476730	44	137	-56
4477058	42	143	-53
4477386	66	130	-64
4477714	50	133	-71
4478042	20	149	-62
4478370	16	169	-55
4478698	18	156	-59
4479026	27	148	-64
4479354	38	150	-54
4479682	31	146	-70
4480010	13	155	-63
4480338	20	162	-57
4480666	35	157	-49
4480994	44	163	-53
4481322	60	161	-62
4481650	64	148	-54
4481978	80	160	-43
4482306	83	148	-45
4482634	99	170	-43
4482962	117	175	-43
4483290	135	163	-28
4483618	159	149	-24
4483946	181	139	-9
4484274	164	146	-14
4484602	120	163	7
4484930	61	162	5
4485258	71	147	16
4485586	85	137	15
4485914	78	122	11
4486242	61	120	23
4486570	28	107	33
4486898	52	118	29
4487226	41	120	17
4487554	16	159	12
4487882	-36	175	41
4488210	-88	172	43
4488538	-49	143	43
4488866	23	132	37
4489194	71	97	35
4489522	39	83	27
4489850	23	78	18
4490178	-31	112	39
4490506	-71	119	33
4490834	-77	123	39
4491162	-61	103	34
4491490	-69	101	23
4491818	-94	115	31
4492146	-173	135	34
4492474	-167	146	23
4492802	-148	128	38
4493130	-153	126	38
4493458	-136	128	39
4493786	-125	133	47
4494114	-124	139	31
4494442	-127	146	41
4494770	-114	130	52
4495098	-76	119	57
4495426	-51	121	54
4495754	-64	131	56
4496082	-70	157	58
4496410	-103	141	63
4496738	-96	156	65
4497066	-73	157	65
4497394	-70	150	62
4497722	-51	152	58
4498050	-48	160	69
4498378	-54	166	66
4498706	-65	171	78
4499034	-46	161	104
4499362	5	166	106
4499690	25	159	103
4500018	34	144	106
4500346	10	148	93
4500674	6	137	96
4501002	-8	150	99
4501330	-58	149	96
4501658	-95	133	116
4501986	-92	120	109
4502314	-86	94	106
4502642	-102	86	105
4502970	-143	78	137
4503298	-187	124	167
4503626	-168	120	196
4503954	-117	105	217
4504282	-80	96	240
4504610	-77	71	253
4504938	-94	120	274
4505266	-120	125	299
4505594	-145	147	334
4505922	-103	140	371
4506250	-41	153	400
4506578	34	130	448
4506906	105	48	471
4507234	155	2	472
4507562	215	41	508
4507890	349	-32	547
4508218	196	54	641
4508546	269	17	737
4508874	304	56	810
4509202	501	149	885
4509530	446	36	973
4509858	388	14	1071
4510186	324	-61	1150
4510514	190	-13	1234
4510842	94	62	1328
4511170	-44	233	1447
4511498	-119	268	1585
4511826	-277	286	1688
4512154	-86	311	1875
4512482	94	178	1932
4512810	323	50	2014
4513138	321	206	1972
4513466	133	593	2070
4513794	-253	767	2103
4514122	-502	588	2190
4514450	-414	598	2458
4514778	-149	373	2435
4515106	281	336	2292
4515434	484	553	2210
4515762	236	762	2203
4516090	-108	642	2272
4516418	-198	497	2332
4516746	-194	595	2348
4517074	62	654	2458
4517402	416	635	2556
4517730	679	484	2386
4518058	528	413	1864
4518386	675	644	1914
4518714	409	832	2153
4519042	99	747	2146
4519370	-38	620	2159
4519698	131	476	2099
4520026	429	417	1970
4520354	748	384	1857
4520682	866	341	1793
4521010	552	327	1565
4521338	406	347	1555
4521666	152	291	1557
4521994	107	202	1543
4522322	17	299	1545
4522650	42	265	1571
4522978	208	195	1598
4523306	350	276	1568
4523634	379	259	1492
4523962	393	342	1483
4524290	306	378	1490
4524618	199	410	1545
4524946	17	369	1598
4525274	-31	357	1628
4525602	-9	288	1652
4525930	207	133	1638
4526258	240	213	1505
4526586	203	158	1422
4526914	315	-167	1316
4527242	110	-694	866
4527570	485	-1162	584
4527898	716	-1957	90
4528226	1023	-2411	-551
4528554	1472	-2948	-1100
4528882	1899	-3130	-2146
4529210	1119	-2090	-2711
4529538	-31	-1145	-3149
4529866	-1456	-986	-3908
4530194	-2286	-1371	-4923
4530522	-3275	-2509	-5871
4530850	-3014	-2327	-6199
4531178	-2464	-1970	-6426
4531506	-2014	-1909	-6577
4531834	-1672	-1886	-6197
4532162	-2392	-1440	-5574
4532490	-2142	-722	-5111
4532818	-1491	-596	-4414
4533146	-1616	-644	-4167
4533474	-2657	-978	-4628
4533802	-3360	-1721	-5837
4534130	-2094	-1437	-5842
4534458	-2009	-511	-4582
4534786	-1357	-3325	-3377
4535114	-934	-587	-2086
4535442	-985	994	-837
4535770	-2203	2140	-134
4536098	-3524	3397	292
4536426	-3552	3216	255
4536754	-3254	2898	225
4537082	-2763	2602	117
4537410	-2239	2182	-156
4537738	-2078	1727	-171
4538066	-1341	1180	-213
4538394	-1060	856	-356
4538722	-515	364	-627
4539050	192	-152	-717
4539378	1298	-589	-829
4539706	2332	-737	-964
4540034	874	-818	-997
4540362	3965	-4066	1051
4540690	-7	2692	3340
4541018	5070	1740	5397
4541346	2400	3921	3602
4541674	1774	1747	1623
4542002	2801	2814	2138
4542330	3464	1471	2057
4542658	6244	-2322	1653
4542986	4328	8360	-2124
4543314	13957	-7831	8807
4543642	3549	7171	3923
4543970	3800	5428	2763
4544298	1256	800	-131
4544626	-465	1708	488
4544954	-4300	785	-1552
4545282	-8381	110	-1996
4545610	-9072	866	-2875
4545938	-6976	568	-2014
4546266	-3237	118	-1721
4546594	785	-25	-1984
4546922	2972	89	-2184
4547250	3484	-10	-2730
4547578	2856	-15	-2650
4547906	1908	19	-2315
4548234	1077	-40	-2109
4548562	502	-185	-1881
4548890	560	-390	-1626
4549218	786	-391	-1373
4549546	826	-282	-1114
4549874	255	-134	-974
4550202	-587	-24	-1024
4550530	-1386	-52	-1018
4550858	-1900	-96	-974
4551186	-2032	-76	-989
4551514	-1808	-13	-839
4551842	-1327	72	-635
4552170	-727	79	-546
4552498	-288	99	-621
4552826	-21	27	-683
4553154	97	93	-713
4553482	168	187	-619
4553810	69	303	-581
4554138	56	283	-558
4554466	120	301	-540
4554794	116	254	-609
4555122	-894	522	-703
4555450	-232	455	-242
4555778	-290	460	-486
4556106	-334	570	-540
4556434	-403	523	-540
4556762	85	364	-525
4557090	474	301	-532
4557418	527	326	-549
4557746	445	333	-521
4558074	216	396	-448
4558402	10	448	-378
4558730	-193	445	-325
4559058	-281	411	-267
4559386	-245	292	-239
4559714	-141	274	-214
4560042	-163	341	-180
4560370	-213	321	-127
4560698	-333	334	-80
4561026	-441	337	-66
4561354	-379	338	-24
4561682	-152	226	3
4562010	-75	217	-8
4562338	-77	203	23
4562666	-226	180	36
4562994	-205	167	27
4563322	-166	186	9
4563650	-101	204	21
4563978	-26	185	57
4564306	110	136	39
4564634	223	118	35
4564962	269	116	27
4565290	265	127	28
4565618	179	163	22
4565946	108	179	34
4566274	34	165	39
4566602	-56	185	64
4566930	-145	186	67
4567258	-215	150	58
4567586	-267	169	60
4567914	-338	172	42
4568242	-455	184	51
4568570	-500	198	66
4568898	-481	200	101
4569226	-359	176	103
4569554	-229	137	88
4569882	-140	117	53
4570210	-144	130	65
4570538	-191	136	95
4570866	-220	176	94
4571194	-269	183	104
4571522	-297	165	111
4571850	-294	159	123
4572178	-276	188	123
4572506	-253	194	127
4572834	-203	163	126
4573162	-127	154	123
4573490	-41	141	108
4573818	6	120	105
4574146	0	135	107
4574474	-63	153	105
4574802	-103	159	101
4575130	-106	164	116
4575458	-62	163	111
4575786	0	143	106
4576114	63	153	89
4576442	65	169	79
4576770	6	153	84
4577098	-58	168	84
4577426	-79	167	64
4577754	-77	174	57
4578082	-90	175	59
4578410	-65	153	56
4578738	-29	162	53
4579066	-4	152	34
4579394	-18	160	35
4579722	-60	165	41
4580050	-58	170	39
4580378	-56	157	15
4580706	-38	143	8
4581034	0	149	3
4581362	6	146	-7
4581690	36	141	-30
4582018	90	142	-36
4582346	116	122	-62
4582674	112	101	-66
4583002	48	123	-73
4583330	-20	111	-79
4583658	-94	141	-85
4583986	-148	136	-72
4584314	-191	126	-76
4584642	-218	127	-74
4584970	-251	114	-86
4585298	-264	102	-93
4585626	-252	110	-92
4585954	-244	101	-83
4586282	-216	99	-85
4586610	-198	94	-80
4586938	-174	68	-96
4587266	-137	69	-94
4587594	-89	72	-101
4587922	-112	91	-91
4588250	-139	96	-82
4588578	-156	103	-74
4588906	-109	95	-73
4589234	-14	74	-94
4589562	56	70	-86
4589890	83	42	-83
4590218	79	41	-77
4590546	53	55	-70
4590874	-19	55	-78
4591202	-73	69	-70
4591530	-143	96	-92
4591858	-167	101	-79
4592186	-143	98	-85
4592514	-86	73	-93
4592842	24	62	-102
4593170	136	71	-102
4593498	203	106	-131
4593826	242	111	-152
4594154	246	137	-140
4594482	366	120	-138
4594810	395	151	-143
4595138	470	196	-17
4595466	446	191	-123
4595794	422	166	-130
4596122	356	147	-119
4596450	299	104	-107
4596778	191	96	-110
4597106	89	129	-110
4597434	70	83	-122
4597762	180	7	-77
4598090	200	-50	-61
4598418	139	-28	-49
4598746	80	-44	-19
4599074	36	-74	-21
4599402	-43	-127	4
4599730	-131	-152	6
4600058	-218	-196	7
4600386	-300	-228	31
4600714	-420	-253	30
4601042	-474	-283	49
4601370	-519	-308	60
4601698	-587	-325	57
4602026	-614	-355	68
4602354	-657	-385	82
4602682	-675	-434	101
4603010	-681	-458	122
4603338	-692	-497	145
4603666	-782	-505	178
4603994	-823	-577	223
4604322	-866	-596	276
4604650	-883	-653	322
4604978	-846	-725	365
4605306	-836	-772	412
4605634	-837	-765	489
4605962	-756	-821	586
4606290	-725	-820	655
4606618	-729	-840	746
4606946	-800	-796	868
4607274	-908	-725	982
4607602	-1050	-635	1110
4607930	-1212	-560	1261
4608258	-1351	-532	1392
4608586	-1253	-416	1591
4608914	-1136	-365	1720
4609242	-1043	-348	1836
4609570	-862	-333	1936
4609898	-847	-184	2071
4610226	-762	-170	2165
4610554	-744	-56	2311
4610882	-701	-134	2501
4611210	-707	-204	2666
4611538	-821	-299	2743
4611866	-827	-423	2977
4612194	-883	-359	3191
4612522	-903	-117	3262
4612850	-915	150	3137
4613178	-744	565	2942
4613506	-207	913	2540
4613834	577	754	1822
4614162	1373	666	1029
4614490	2020	267	157
4614818	2539	-237	-796
4615146	2802	-561	-1774
4615474	2791	-834	-2760
4615802	2657	-1115	-3733
4616130	2520	-1359	-4605
4616458	2275	-1533	-5395
4616786	2011	-1782	-6126
4617114	1449	-1861	-6661
4617442	889	-1787	-7098
4617770	294	-1513	-7404
4618098	-37	-1344	-7646
4618426	-332	-1169	-7866
4618754	-495	-909	-7952
4619082	-701	-713	-8094
4619410	-832	-471	-8103
4619738	-986	-417	-8050
4620066	-1175	-363	-7915
4620394	-1168	-382	-7680
4620722	-1039	-455	-7420
4621050	-893	-528	-7150
4621378	-720	-686	-6866
4621706	-614	-761	-6586
4622034	-553	-678	-6231
4622362	-601	-507	-5898
4622690	-840	-351	-5601
4623018	-1083	-93	-5291
4623346	-1419	55	-5008
4623674	-1553	254	-4695
4624002	-1510	240	-4418
4624330	-1331	269	-4127
4624658	-925	147	-3789
4624986	-378	-73	-3445
4625314	187	-253	-3092
4625642	621	-375	-2759
4625970	950	-523	-2444
4626298	1145	-544	-2109
4626626	1256	-551	-1816
4626954	1274	-498	-1484
4627282	1255	-464	-1171
4627610	1200	-363	-879
4627938	1004	-233	-614
4628266	805	-7	-268
4628594	552	234	122
4628922	330	489	515
4629250	137	802	930
4629578	17	1082	1355
4629906	-2	1271	1777
4630234	105	1487	2217
4630562	123	1848	2664
4630890	185	2589	3074
4631218	-819	5295	2804
4631546	-2932	5101	1169
4631874	1057	261	923
4632202	1149	1040	2077
4632530	446	1166	2794
4632858	-797	1952	2982
4633186	-471	2060	3215
4633514	430	1429	3095
4633842	1058	1075	2802
4634170	1539	806	2562
4634498	1813	566	2200
4634826	2007	576	2054
4635154	2433	631	2017
4635482	2538	994	1998
4635810	2236	1356	2072
4636138	1769	1676	2099
4636466	1836	1678	2103
4636794	1929	1659	2098
4637122	2000	1628	1995
4637450	1964	1684	1919
4637778	1714	1909	1976
4638106	1402	2024	2028
4638434	807	2152	2161
4638762	191	2293	2310
4639090	-134	2242	2301
4639418	-265	2104	2297
4639746	-163	1885	2238
4640074	174	1699	2122
4640402	420	1706	2044
4640730	320	1862	1902
4641058	317	1836	1784
4641386	366	1808	1785
4641714	191	1694	1635
4642042	227	1537	1643
4642370	248	1520	1702
4642698	279	1413	1707
4643026	362	1264	1662
4643354	460	1152	1704
4643682	439	1138	1598
4644010	483	1024	1490
4644338	589	975	1472
4644666	653	962	1477
4644994	680	874	1302
4645322	683	842	1327
4645650	578	842	1373
4645978	348	837	1392
4646306	207	862	1453
4646634	159	860	1495
4646962	235	803	1693
4647290	244	765	1531
4647618	187	776	1566
4647946	-21	844	1638
4648274	-327	897	1692
4648602	-689	983	1765
4648930	-905	1071	1860
4649258	-810	1006	1892
4649586	-578	933	1904
4649914	-415	873	1943
4650242	-377	851	2040
4650570	-539	945	2103
4650898	-480	863	2199
4651226	-603	850	2250
4651554	-411	730	2329
4651882	-210	632	2378
4652210	-132	623	2410
4652538	-155	657	2447
4652866	-197	740	2484
4653194	-311	804	2510
4653522	-446	797	2564
4653850	-521	833	2556
4654178	-599	847	2534
4654506	-608	887	2561
4654834	-691	953	2615
4655162	-899	1064	2687
4655490	-1136	1167	2797
4655818	-1415	1175	2925
4656146	-1460	1205	3047
4656474	-1441	1164	3041
4656802	-1108	996	3008
4657130	-902	893	3075
4657458	-757	741	3190
4657786	-826	787	3299
4658114	-936	794	3386
4658442	-923	761	3425
4658770	-951	777	3501
4659098	-901	707	3562
4659426	-1099	634	3558
4659754	-1165	585	3694
4660082	-1245	442	3815
4660410	-1223	331	3960
4660738	-1089	88	4132
4661066	-816	-508	4354
4661394	374	-434	4467
4661722	279	-50	4488
4662050	-198	190	4645
4662378	-512	236	4763
4662706	-554	181	4962
4663034	-295	181	5223
4663362	-622	277	5292
4663690	-266	346	5492
4664018	-521	570	5669
4664346	-1013	701	5854
4664674	-1471	735	5824
4665002	-1753	903	5946
4665330	-2084	1047	6065
4665658	-2399	1196	6329
4665986	-2753	1470	6594
4666314	-3219	1736	6847
4666642	-3937	1829	6989
4666970	-3660	1067	6715
4667298	-3056	-7	6228
4667626	-2292	-1135	5673
4667954	-1513	-1951	5342
4668282	-813	-2205	4791
4668610	-982	-1635	4369
4668938	-281	-1070	3950
4669266	-249	-248	3315
4669594	-45	1482	3100
4669922	-956	1444	1727
4670250	-1156	1437	326
4670578	-1450	1203	-713
4670906	-1125	1054	-1876
4671234	-515	644	-3173
4671562	-423	199	-4172
4671890	-355	-169	-5201
4672218	-369	-286	-6018
4672546	-416	-370	-6806
4672874	-950	-269	-7655
4673202	-1336	-225	-8378
4673530	-690	-265	-9109
4673858	-1154	-333	-9842
4674186	-975	-515	-10640
4674514	-877	-646	-11281
4674842	-457	-830	-11833
4675170	-265	-1032	-12189
4675498	-233	-1200	-12572
4675826	-386	-1232	-12810
4676154	-837	-1289	-12997
4676482	-1268	-1242	-13165
4676810	-688	-1630	-13421
4677138	-1355	-1391	-13453
4677466	-1154	-1554	-13477
4677794	-1088	-1591	-13524
4678122	-1075	-1583	-13580
4678450	-1008	-1492	-13553
4678778	-1090	-1533	-13697
4679106	-1098	-1432	-13591
4679434	-1082	-1309	-13584
4679762	-1342	-1241	-13369
4680090	-1567	-1207	-13153
4680418	-1680	-1168	-12807
4680746	-1553	-1243	-12427
4681074	-1082	-1363	-11966
4681402	-539	-1611	-11399
4681730	106	-2086	-10529
4682058	311	-1847	-9449
4682386	422	-1686	-8439
4682714	291	-1540	-7627
4683042	113	-1131	-6800
4683370	-2	-687	-5819
4683698	-180	-214	-4750
4684026	-181	41	-3791
4684354	-291	327	-2933
4684682	-200	533	-2115
4685010	-100	588	-1451
4685338	-24	641	-938
4685666	-15	808	-518
4685994	23	949	-126
4686322	105	1102	198
4686650	318	1243	536
4686978	662	1543	888
4687306	901	2018	1290
4687634	1035	2376	1816
4687962	1174	2612	2426
4688290	1964	2272	3159
4688618	3153	1891	4019
4688946	4733	1969	4934
4689274	5632	5619	4387
4689602	2159	-184	-1533
4689930	6099	-1725	-3051
4690258	12541	-2551	944
4690586	9745	1715	4818
4690914	3496	1403	4206
4691242	-666	2236	3732
4691570	-757	2693	5202
4691898	1248	1742	5878
4692226	5798	-1000	5380
4692554	6750	-451	3640
4692882	6388	890	2989
4693210	3805	1856	2555
4693538	1585	2434	2990
4693866	187	2363	3499
4694194	256	2030	3257
4694522	1283	1512	3190
4694850	2329	1136	3130
4695178	3666	719	3202
4695506	4214	619	3373
4695834	3551	842	3370
4696162	2320	1406	3236
4696490	967	1722	3035
4696818	-436	2220	2810
4697146	-1292	2459	2687
4697474	-2152	2616	2616
4697802	-2529	2646	2679
4698130	-2109	2345	2694
4698458	-1184	1954	2669
4698786	-40	1538	2629
4699114	757	1287	2582
4699442	999	1114	2559
4699770	809	1068	2541
4700098	579	1047	2483
4700426	445	1075	2440
4700754	384	1041	2427
4701082	543	955	2291
4701410	488	878	2243
4701738	137	831	2208
4702066	-158	877	2215
4702394	-376	892	2229
4702722	-540	937	2242
4703050	-562	867	2279
4703378	-531	818	2327
4703706	-361	785	2341
4704034	-385	782	2389
4704362	-466	850	2426
4704690	-656	891	2492
4705018	-806	918	2533
4705346	-730	837	2593
4705674	-664	772	2628
4706002	-526	697	2641
4706330	-404	703	2631
4706658	-538	750	2608
4706986	-823	809	2636
4707314	-891	816	2687
4707642	-810	806	2710
4707970	-673	793	2719
4708298	-536	874	2742
4708626	-594	955	2761
4708954	-802	1069	2789
4709282	-1024	1094	2812
4709610	-1059	1050	2772
4709938	-896	1020	2748
4710266	-822	1023	2774
4710594	-741	1020	2824
4710922	-838	1063	2875
4711250	-930	1076	2973
4711578	-794	1017	3091
4711906	-758	986	3167
4712234	-712	1052	3207
4712562	-824	1038	3212
4712890	-1167	1198	3244
4713218	-1345	1153	3279
4713546	-1354	942	3437
4713874	-1264	778	3586
4714202	-1048	636	3663
4714530	-947	587	3745
4714858	-1107	542	3849
4715186	-1389	498	3989
4715514	-1726	503	4150
4715842	-1779	371	4232
4716170	-1866	138	4116
4716498	-1169	50	4103
4716826	-948	141	4174
4717154	-1338	-121	4402
4717482	-97	-672	4773
4717810	-11	120	4595
4718138	-44	753	4884
4718466	-418	909	4995
4718794	-1374	680	5151
4719122	-609	506	5575
4719450	-446	411	5822
4719778	-436	577	5787
4720106	-495	1114	5879
4720434	-1475	1465	5888
4720762	-2358	1828	6098
4721090	-3301	2276	6354
4721418	-4269	2846	6758
4721746	-5276	3413	7022
4722074	-6031	3688	7027
4722402	-6302	3384	6579
4722730	-5782	1829	6076
4723058	-4941	203	5756
4723386	-3937	-918	5297
4723714	-2511	-1417	4927
4724042	-59	-1506	4618
4724370	-355	-1290	4012
4724698	582	-65	3694
4725026	-153	940	2546
4725354	-1013	1432	1304
4725682	-1169	1745	616
4726010	-1454	1854	-382
4726338	-1395	1486	-1668
4726666	-1237	1131	-2606
4726994	-1080	940	-3441
4727322	-1249	957	-4307
4727650	-1076	931	-5200
4727978	-964	723	-6087
4728306	-494	247	-7081
4728634	-128	-57	-8060
4728962	216	-207	-8890
4729290	539	-465	-9613
4729618	734	-748	-10256
4729946	948	-916	-10632
4730274	868	-1000	-10999
4730602	562	-868	-11318
4730930	247	-890	-11543
4731258	-21	-886	-11754
4731586	786	-1630	-12056
4731914	-556	-1057	-12053
4732242	-542	-1241	-12025
4732570	-214	-1583	-12096
4732898	71	-1636	-12061
4733226	331	-1729	-11934
4733554	368	-1688	-11880
4733882	412	-1530	-11690
4734210	357	-1355	-11735
4734538	270	-1152	-11856
4734866	102	-1142	-11804
4735194	-479	-887	-11544
4735522	-541	-915	-11344
4735850	-617	-989	-11113
4736178	-515	-1060	-10800
4736506	-312	-1348	-10557
4736834	17	-1604	-10306
4737162	557	-2061	-9842
4737490	983	-2394	-9187
4737818	1147	-2241	-8378
4738146	1087	-2176	-7767
4738474	845	-1946	-7200
4738802	660	-1557	-6574
4739130	342	-1014	-5917
4739458	212	-713	-5192
4739786	-1	-414	-4519
4740114	-11	-143	-3847
4740442	70	-72	-3180
4740770	398	-209	-2533
4741098	630	-269	-2039
4741426	748	-82	-1667
4741754	1115	-295	-1223
4742082	1483	-473	-836
4742410	1992	-769	-551
4742738	2463	-1014	-297
4743066	2894	-1143	-93
4743394	3049	-1147	106
4743722	3027	-1086	369
4744050	3056	-988	593
4744378	3185	-1013	827
4744706	3240	-822	1110
4745034	3485	-687	1426
4745362	3809	-556	1883
4745690	3957	-480	2460
4746018	4392	-705	3061
4746346	4897	-810	3535
4746674	1050	7114	2486
4747002	-635	2463	-772
4747330	1050	-684	-742
4747658	94	2364	1262
4747986	-2957	3963	3033
4748314	-4699	3726	3314
4748642	-6703	4092	2983
4748970	-6158	3580	3701
4749298	-4962	2984	3945
4749626	-4007	2578	3805
4749954	-3692	2709	3803
4750282	-2919	2011	3779
4750610	-1723	1351	4156
4750938	-987	1332	4152
4751266	-864	2028	3814
4751594	-33	1694	3567
4751922	551	1788	3389
4752250	1027	1794	3042
4752578	986	1931	2689
4752906	221	2344	2365
4753234	-741	2431	2336
4753562	-1384	2326	2417
4753890	-1498	2219	2562
4754218	-1107	1896	2607
4754546	-754	1832	2563
4754874	-253	1691	2459
4755202	29	1630	2273
4755530	-129	1722	2012
4755858	-484	1842	1799
4756186	-988	1904	1684
4756514	-1323	1857	1587
4756842	-1308	1704	1457
4757170	-1040	1453	1417
4757498	-566	1139	1389
4757826	-200	802	1339
4758154	-4	610	1246
4758482	163	428	1162
4758810	139	506	1101
4759138	-83	526	1088
4759466	-294	599	1056
4759794	-441	675	1045
4760122	-565	600	1005
4760450	-606	527	949
4760778	-682	481	932
4761106	-897	495	915
4761434	-1063	509	904
4761762	-1167	525	854
4762090	-1201	506	856
4762418	-1175	452	823
4762746	-1249	472	810
4763074	-1432	442	801
4763402	-1492	428	810
4763730	-1548	442	789
4764058	-1520	393	761
4764386	-1474	358	748
4764714	-1359	316	756
4765042	-1274	307	743
4765370	-1157	270	734
4765698	-947	160	697
4766026	-702	140	696
4766354	-584	126	711
4766682	-491	103	687
4767010	-411	159	690
4767338	-361	193	694
4767666	-288	168	695
4767994	-95	115	715
4768322	141	10	675
4768650	478	-90	637
4768978	779	-205	606
4769306	942	-262	577
4769634	1111	-532	595
4769962	1331	-730	599
4770290	1776	-878	575
4770618	2401	-1064	584
4770946	3111	-1227	572
4771274	3744	-1119	555
4771602	3884	-655	651
4771930	3359	-567	921
4772258	2710	-780	1038
4772586	2120	-832	1142
4772914	2343	-915	1213
4773242	3043	-1119	1272
4773570	3685	-1225	1263
4773898	3874	-1084	1335
4774226	3684	-981	1365
4774554	3205	-835	1369
4774882	2798	-724	1410
4775210	2361	-691	1389
4775538	1961	-649	1399
4775866	1524	-635	1407
4776194	1071	-607	1325
4776522	638	-452	1186
4776850	175	-197	1143
4777178	-74	-96	1026
4777506	-348	51	964
4777834	-447	64	882
4778162	-423	21	758
4778490	-288	-64	663
4778818	-143	-130	589
4779146	-86	-152	556
4779474	-94	-138	534
4779802	-172	-95	503
4780130	-169	-130	465
4780458	-104	-178	392
4780786	-115	-126	357
4781114	-197	-70	347
4781442	-324	-26	350
4781770	-409	37	373
4782098	-469	59	402
4782426	-433	38	406
4782754	-388	5	388
4783082	-347	1	360
4783410	-361	-16	371
4783738	-401	13	382
4784066	-401	1	393
4784394	-340	5	391
4784722	-294	-35	347
4785050	-303	-40	283
4785378	-353	-25	255
4785706	-454	40	225
4786034	-545	74	232
4786362	-576	80	206
4786690	-551	70	185
4787018	-521	69	163
4787346	-460	53	139
4787674	-451	46	115
4788002	-419	64	117
4788330	-377	23	118
4788658	-357	21	96
4788986	-319	20	103
4789314	-354	29	102
4789642	-393	57	88
4789970	-435	51	68
4790298	-430	46	57
4790626	-401	38	44
4790954	-381	22	25
4791282	-319	0	24
4791610	-288	-11	-1
4791938	-296	-6	4
4792266	-321	34	19
4792594	-324	43	8
4792922	-278	36	-2
4793250	-212	24	-7
4793578	-168	21	-8
4793906	-173	21	4
4794234	-198	32	23
4794562	-202	46	31
4794890	-147	7	34
4795218	-81	9	21
4795546	-71	12	34
4795874	-79	21	42
4796202	-97	11	28
4796530	-71	6	45
4796858	-22	7	45
4797186	-23	15	39
4797514	-38	24	47
4797842	-29	9	58
4798170	-72	25	47
4798498	-98	32	34
4798826	-121	34	59
4799154	-137	58	55
4799482	-132	36	63
4799810	-116	31	54
4800138	-88	30	41
4800466	-50	22	39
4800794	-67	29	37
4801122	-94	37	49
4801450	-90	14	59
4801778	-33	-18	64
4802106	-15	-31	55
4802434	-71	-53	19
4802762	-182	-39	9
4803090	-324	-14	16
4803418	-405	-6	16
4803746	-454	-23	-9
4804074	-447	-42	-43
4804402	-494	-57	-55
4804730	-558	-69	-70
4805058	-630	-89	-90
4805386	-751	-43	-106
4805714	-810	-18	-78
4806042	-808	-23	-61
4806370	-697	-120	-45
4806698	-571	-142	-54
4807026	-525	-148	-55
4807354	-691	-158	-80
4807682	-865	-111	-72
4808010	-1130	-125	-50
4808338	-1339	-86	-43
4808666	-1457	-82	-23
4808994	-1477	-71	-30
4809322	-1506	-119	-17
4809650	-1504	-111	12
4809978	-1562	-93	10
4810306	-1632	-56	4
4810634	-1746	-35	-27
4810962	-1787	44	3
4811290	-1842	59	-26
4811618	-1833	32	-48
4811946	-1845	135	-78
4812274	-1982	223	-98
4812602	-2133	302	-93
4812930	-2256	291	-95
4813258	-2259	348	-100
4813586	-2180	359	-96
4813914	-2176	376	-101
4814242	-2146	394	-130
4814570	-2352	565	-122
4814898	-2574	735	-106
4815226	-2814	831	-140
4815554	-2979	966	-126
4815882	-3186	1094	-127
4816210	-3409	1149	-117
4816538	-3630	1273	-139
4816866	-3795	1340	-124
4817194	-4147	1478	-89
4817522	-4360	1544	-95
4817850	-4532	1560	-113
4818178	-4618	1601	-107
4818506	-4676	1654	-133
4818834	-4728	1690	-118
4819162	-4845	1809	-102
4819490	-5024	1906	-98
4819818	-5285	2018	-139
4820146	-5571	2206	-163
4820474	-5961	2365	-193
4820802	-6571	2563	-231
4821130	-7190	2764	-212
4821458	-7783	2941	-164
4821786	-8313	3212	-116
4822114	-8626	3394	-36
4822442	-8874	3607	11
4822770	-8957	3692	11
4823098	-9075	4034	55
4823426	-9328	4332	116
4823754	-9827	4753	214
4824082	-10750	5176	256
4824410	-11824	5572	346
4824738	-13015	6397	490
4825066	-14061	6565	560
4825394	-14744	6670	625
4825722	-15071	6698	645
4826050	-14947	6556	591
4826378	-14541	6195	565
4826706	-13875	5967	536
4827034	-12896	5565	487
4827362	-11815	5125	376
4827690	-10669	4662	226
4828018	-9487	4207	167
4828346	-8248	3757	39
4828674	-6913	3292	-42
4829002	-5487	2793	-112
4829330	-3864	2242	-151
4829658	-2190	1780	-205
4829986	-784	1377	-276
4830314	222	1167	-315
4830642	500	1104	-296
4830970	293	1219	-282
4831298	430	1162	-257
4831626	1951	450	-197
4831954	1268	763	60
4832282	813	772	64
4832610	878	525	81
4832938	1069	376	21
4833266	1006	496	22
4833594	792	632	-25
4833922	527	766	-52
4834250	450	801	16
4834578	477	729	33
4834906	934	582	146
4835234	1171	710	65
4835562	1259	574	104
4835890	1069	696	101
4836218	795	732	176
4836546	428	867	131
4836874	337	839	153
4837202	313	800	153
4837530	459	751	153
4837858	535	702	173
4838186	202	705	120
4838514	-66	717	106
4838842	-429	716	113
4839170	-825	729	86
4839498	-1105	730	43
4839826	-1194	687	22
4840154	-1267	649	-28
4840482	-1313	624	-94
4840810	-1361	657	-152
4841138	-1416	659	-234
4841466	-1535	590	-301
4841794	-1689	558	-337
4842122	-1839	534	-332
4842450	-1938	495	-322
4842778	-1502	146	-291
4843106	-2183	481	-267
4843434	-2372	434	-253
4843762	-2391	365	-230
4844090	-2425	320	-226
4844418	-2503	374	-226
4844746	-2606	365	-270
4845074	-2764	419	-274
4845402	-2905	503	-228
4845730	-3096	597	-197
4846058	-3054	435	-119
4846386	-2987	374	-78
4846714	-3067	343	-106
4847042	-3372	404	-173
4847370	-3785	433	-144
4847698	-4054	390	-144
4848026	-4442	391	-198
4848354	-4580	371	-120
4848682	-4505	242	-77
4849010	-4431	78	-69
4849338	-4375	38	-100
4849666	-4416	14	-114
4849994	-4650	76	-128
4850322	-4901	33	-128
4850650	-5101	101	-116
4850978	-5261	115	-40
4851306	-5313	47	-5
4851634	-5407	21	-27
4851962	-5326	-48	0
4852290	-5117	-143	55
4852618	-4965	-212	126
4852946	-4960	-229	105
4853274	-4799	-294	190
4853602	-4757	-362	168
4853930	-4578	-467	206
4854258	-4389	-556	155
4854586	-4146	-662	133
4854914	-4054	-653	50
4855242	-3887	-674	-3
4855570	-3875	-685	-20
4855898	-3896	-718	-1
4856226	-4065	-664	5
4856554	-4244	-531	9
4856882	-4445	-457	67
4857210	-4684	-367	113
4857538	-5112	-253	103
4857866	-5471	-186	54
4858194	-5741	-100	36
4858522	-5882	-130	21
4858850	-5844	-227	-42
4859178	-5740	-176	-116
4859506	-5701	29	-231
4859834	-5852	298	-272
4860162	-6212	482	-278
4860490	-6751	704	-171
4860818	-7696	1029	110
4861146	-9117	1706	338
4861474	-10682	2260	505
4861802	-12394	2867	513
4862130	-13790	3375	513
4862458	-14617	3816	643
4862786	-15070	4163	693
4863114	-15424	4570	784
4863442	-15788	4806	987
4863770	-16393	5074	1417
4864098	-16892	5638	2189
4864426	-17325	6247	3016
4864754	-17735	6938	3709
4865082	-17720	7350	4143
4865410	-16870	7132	4516
4865738	-15467	6715	4870
4866066	-13890	6134	5084
4866394	-12434	5717	5242
4866722	-11566	5468	5318
4867050	-11003	5324	5359
4867378	-10792	5395	5522
4867706	-10959	5485	5515
4868034	-11054	5616	5562
4868362	-11127	5686	5630
4868690	-10773	5554	5674
4869018	-10230	5269	5620
4869346	-9557	4860	5598
4869674	-9068	4576	5509
4870002	-8764	4485	5321
4870330	-8593	4332	5065
4870658	-8450	4135	4797
4870986	-8199	4070	4589
4871314	-7873	3932	4370
4871642	-7486	3847	4049
4871970	-7146	3722	3602
4872298	-6352	3731	2706
4872626	-5840	3720	2285
4872954	-5369	3581	1831
4873282	-4919	3329	1418
4873610	-4607	3146	995
4873938	-4313	3068	602
4874266	-4095	2913	221
4874594	-3954	3273	-154
4874922	-3969	4423	-703
4875250	-3235	2034	-1352
4875578	-2783	1863	-2371
4875906	-2349	1178	-3211
4876234	-2325	1530	-3624
4876562	-2339	1874	-2932
4876890	-3248	2527	-1772
4877218	-3649	2797	-789
4877546	-3288	2682	-165
4877874	-2875	2200	-113
4878202	-2254	1675	-563
4878530	-1758	1369	-1150
4878858	-1307	1368	-1162
4879186	-951	1241	-760
4879514	-927	1091	-686
4879842	-929	1015	-775
4880170	-559	814	-671
4880498	65	525	-537
4880826	737	302	-443
4881154	1041	254	-414
4881482	1138	281	-269
4881810	1137	279	-190
4882138	1131	282	-124
4882466	1042	426	-38
4882794	960	504	30
4883122	911	574	51
4883450	699	665	73
4883778	485	720	125
4884106	279	663	212
4884434	201	640	258
4884762	217	589	325
4885090	201	573	336
4885418	217	577	352
4885746	218	580	387
4886074	285	517	378
4886402	300	474	354
4886730	321	449	323
4887058	352	395	287
4887386	377	323	253
4887714	357	275	199
4888042	321	255	161
4888370	194	278	113
4888698	43	310	85
4889026	-105	353	47
4889354	-137	342	54
4889682	-102	322	49
4890010	25	256	66
4890338	145	243	48
4890666	282	200	48
4890994	339	221	53
4891322	315	238	50
4891650	228	245	78
4891978	120	242	99
4892306	26	245	110
4892634	-92	266	116
4892962	-220	255	107
4893290	-191	195	114
4893618	-88	132	114
4893946	-19	136	111
4894274	-113	135	108
4894602	-244	135	119
4894930	-248	128	139
4895258	-130	94	121
4895586	49	65	120
4895914	140	43	110
4896242	104	42	113
4896570	-48	84	105
4896898	-194	110	100
4897226	-251	120	92
4897554	-213	109	79
4897882	-132	99	60
4898210	-72	94	47
4898538	-109	114	32
4898866	-142	120	33
4899194	-138	109	29
4899522	-86	94	7
4899850	-25	85	31
4900178	26	68	53
4900506	43	43	65
4900834	46	41	41
4901162	-27	77	26
4901490	-169	121	13
4901818	-320	148	28
4902146	-394	158	23
4902474	-364	135	30
4902802	-267	106	14
4903130	-141	82	-17
4903458	-109	81	-54
4903786	-160	96	-60
4904114	-225	113	-62
4904442	-250	103	-64
4904770	-214	71	-64
4905098	-73	49	-81
4905426	5	29	-76
4905754	-68	33	-89
4906082	-173	49	-82
4906410	-238	80	-86
4906738	-238	81	-60
4907066	-194	54	-75
4907394	-145	41	-62
4907722	-124	25	-66
4908050	-121	26	-74
4908378	-148	57	-76
4908706	-146	59	-85
4909034	-127	70	-70
4909362	-90	68	-74
4909690	-49	50	-87
4910018	-15	28	-83
4910346	-14	28	-89
4910674	-58	52	-94
4911002	-25	44	-88
4911330	-30	74	-88
4911658	-64	83	-89
4911986	-95	79	-84
4912314	-95	78	-75
4912642	-86	78	-80
4912970	-59	89	-76
4913298	-43	81	-81
4913626	-29	83	-76
4913954	-15	79	-77
4914282	-10	102	-73
4914610	-59	109	-76
4914938	-51	124	-66
4915266	12	86	-53
4915594	60	79	-74
4915922	110	96	-98
4916250	160	120	-108
4916578	173	207	-114
4916906	141	216	-90
4917234	93	225	-52
4917562	35	223	-64
4917890	92	202	-89
4918218	143	211	-93
4918546	159	159	-117
4918874	125	162	-139
4919202	45	214	-135
4919530	-31	268	-135
4919858	-25	238	-130
4920186	108	158	-96
4920514	259	63	-84
4920842	369	-31	-57
4921170	386	-53	-50
4921498	273	-52	-30
4921826	83	-26	-53
4922154	-103	23	-43
4922482	-278	29	-20
4922810	-373	18	17
4923138	-416	29	3
4923466	-432	17	-4
4923794	-434	-27	-5
4924122	-461	-60	-10
4924450	-498	-71	17
4924778	-555	-84	19
4925106	-633	-89	14
4925434	-660	-110	41
4925762	-624	-132	54
4926090	-590	-175	72
4926418	-556	-178	110
4926746	-536	-182	118
4927074	-474	-219	150
4927402	-342	-284	187
4927730	-330	-321	227
4928058	-373	-405	329
4928386	-464	-489	464
4928714	-549	-536	615
4929042	-598	-570	759
4929370	-449	-658	927
4929698	-272	-727	1081
4930026	-85	-670	1165
4930354	72	-747	1382
4930682	139	-713	1572
4931010	202	-698	1709
4931338	221	-679	1924
4931666	109	-658	2004
4931994	60	-605	2171
4932322	-96	-497	2322
4932650	-113	-420	2442
4932978	-156	-394	2422
4933306	-188	-363	2452
4933634	-352	-125	2563
4933962	-472	-150	2813
4934290	-649	-144	2840
4934618	-614	-87	2862
4934946	-503	-180	2939
4935274	-446	-319	3009
4935602	-483	-318	2991
4935930	-509	-329	2974
4936258	-509	-280	2822
4936586	-364	-8	2619
4936914	-574	783	2118
4937242	-467	919	1438
4937570	-4	615	408
4937898	661	49	-447
4938226	1172	-356	-1364
4938554	1455	-696	-2361
4938882	1432	-899	-3255
4939210	1212	-982	-4026
4939538	649	-1113	-5289
4939866	391	-1230	-5840
4940194	110	-1359	-6340
4940522	-123	-1431	-6823
4940850	-258	-1412	-7205
4941178	-338	-1375	-7556
4941506	-464	-1306	-7867
4941834	-517	-1174	-8081
4942162	-580	-1087	-8206
4942490	-631	-992	-8263
4942818	-645	-969	-8163
4943146	-643	-1005	-8286
4943474	-542	-1079	-8180
4943802	-499	-1144	-7950
4944130	-382	-1301	-7701
4944458	-272	-1429	-7496
4944786	-232	-1401	-7274
4945114	-234	-1292	-6933
4945442	-289	-1106	-6562
4945770	-516	-886	-6240
4946098	-847	-565	-5875
4946426	-1116	-294	-5455
4946754	-1381	-68	-5048
4947082	-1656	140	-4634
4947410	-1788	225	-4224
4947738	-1879	328	-3823
4948066	-1769	400	-3386
4948394	-1593	433	-3026
4948722	-1415	484	-2716
4949050	-1193	484	-2353
4949378	-952	450	-2015
4949706	-620	360	-1683
4950034	-319	253	-1384
4950362	-7	165	-1118
4950690	342	35	-886
4951018	585	7	-693
4951346	726	46	-504
4951674	829	92	-298
4952002	890	161	-141
4952330	939	225	27
4952658	966	338	183
4952986	967	419	347
4953314	894	582	586
4953642	879	793	858
4953970	776	1120	1149
4954298	597	1525	1482
4954626	460	2173	1889
4954954	311	3464	2138
4955282	-767	5417	1689
4955610	-779	1550	520
4955938	565	-67	-10
4956266	3328	124	1447
4956594	2302	218	2071
4956922	721	1081	2575
4957250	-213	1755	3071
4957578	-151	1516	3094
4957906	578	1136	3093
4958234	1370	922	3167
4958562	2093	842	3049
4958890	2806	620	2756
4959218	3448	512	2590
4959546	3551	734	2582
4959874	2918	1125	2560
4960202	2455	1483	2596
4960530	2363	1604	2544
4960858	2425	1622	2367
4961186	2249	1520	2253
4961514	2179	1364	2191
4961842	2283	1255	2213
4962170	2209	1313	2277
4962498	2308	1277	2306
4962826	2509	1249	2336
4963154	2443	1242	2310
4963482	2186	1355	2159
4963810	1531	1502	2021
4964138	1414	1628	1865
4964466	926	1776	1684
4964794	478	1953	1613
4965122	113	2042	1548
4965450	-42	2047	1518
4965778	-131	2142	1542
4966106	-115	1986	1531
4966434	117	1734	1544
4966762	246	1637	1549
4967090	158	1609	1543
4967418	-255	1640	1545
4967746	-586	1705	1562
4968074	-638	1661	1552
4968402	-566	1575	1522
4968730	-335	1402	1502
4969058	-207	1279	1522
4969386	-125	1178	1571
4969714	-181	1143	1633
4970042	-259	1139	1699
4970370	-399	1222	1695
4970698	-719	1243	1749
4971026	-975	1266	1822
4971354	-1132	1251	1813
4971682	-1126	1226	1845
4972010	-1174	1199	1879
4972338	-1247	1135	1943
4972666	-1415	1072	2070
4972994	-1665	1070	2144
4973322	-1624	1060	2061
4973650	-1428	1029	2044
4973978	-1350	1006	2065
4974306	-1509	1001	2102
4974634	-1576	1023	2139
4974962	-1437	1036	2143
4975290	-1112	933	2145
4975618	-856	936	2178
4975946	-735	916	2231
4976274	-638	959	2287
4976602	-417	854	2273
4976930	-157	827	2352
4977258	-22	713	2408
4977586	-32	706	2514
4977914	-25	679	2650
4978242	14	688	2720
4978570	-85	724	2776
4978898	-415	878	2879
4979226	-744	902	3076
4979554	-1118	997	3200
4979882	-1435	1035	3321
4980210	-1431	981	3449
4980538	-1354	992	3474
4980866	-1341	1049	3546
4981194	-1551	1126	3605
4981522	-1807	1107	3620
4981850	-1963	1056	3680
4982178	-2036	1105	3749
4982506	-2036	1152	3827
4982834	-2236	1202	3874
4983162	-2288	1141	3985
4983490	-2278	1008	4077
4983818	-2332	688	4225
4984146	-1456	129	4578
4984474	-1277	585	4534
4984802	-1043	654	4808
4985130	-1188	743	4997
4985458	-1090	621	5221
4985786	-1026	693	5581
4986114	-1032	700	5835
4986442	-1376	629	5865
4986770	-1161	583	6189
4987098	-1634	678	6423
4987426	-1928	701	6630
4987754	-2287	718	6696
4988082	-2243	678	6893
4988410	-2502	773	7026
4988738	-2920	904	7159
4989066	-2887	824	7162
4989394	-3517	-222	6750
4989722	-1800	-301	6343
4990050	-1360	-1773	5807
4990378	88	-2751	5562
4990706	1035	-3446	5200
4991034	1489	-3564	4689
4991362	2206	-3211	4214
4991690	2550	-1834	3853
4992018	1282	-843	2974
4992346	536	-691	1719
4992674	42	-372	1074
4993002	-696	103	59
4993330	-1181	163	-1248
4993658	-1190	-28	-2293
4993986	-1289	-290	-3140
4994314	-1398	-488	-4110
4994642	-1407	-394	-5002
4994970	-715	-497	-6041
4995298	-1515	-539	-6873
4995626	-1369	-671	-7704
4995954	-1309	-866	-8532
4996282	-1042	-1037	-9328
4996610	-28	-1434	-10282
4996938	-678	-1161	-10617
4997266	-682	-1310	-11185
4997594	-559	-1358	-11645
4997922	-721	-1322	-11920
4998250	-796	-1328	-12178
4998578	-915	-1405	-12548
4998906	-875	-1571	-12866
4999234	-1159	-1648	-13105
4999562	-1101	-1570	-13044
4999890	-1164	-1586	-13084
5000218	-1238	-1466	-13088
5000546	-1515	-1230	-13010
5000874	-1568	-1049	-13018
5001202	-1699	-781	-13268
5001530	-1888	-528	-13236
5001858	-2263	-224	-13089
5002186	-2580	45	-12844
5002514	-3021	253	-12611
5002842	-2895	225	-12375
5003170	-3083	449	-11974
5003498	-2834	500	-11502
5003826	-2282	284	-11062
5004154	-1584	-145	-10502
5004482	-973	-348	-9715
5004810	-485	-217	-8769
5005138	-147	-151	-8007
5005466	-251	-63	-7368
5005794	-370	273	-6517
5006122	-380	705	-5515
5006450	-219	1007	-4516
5006778	717	989	-2739
5007106	1470	598	-1912
5007434	2204	125	-1168
5007762	2755	-220	-542
5008090	3114	-317	51
5008418	3084	-262	492
5008746	3055	-239	920
5009074	3392	-241	1294
5009402	3670	-81	1651
5009730	3850	126	2047
5010058	3754	480	2577
5010386	3401	782	3229
5010714	3065	1036	4016
5011042	2966	1398	4811
5011370	2717	3043	4888
5011698	-3536	7609	1046
5012026	1095	-1238	-2345
5012354	2089	-516	-991
5012682	3875	730	1971
5013010	2680	777	3672
5013338	683	1586	3177
5013666	285	1924	3723
5013994	1466	1242	4002
5014322	3210	822	3830
5014650	4798	341	4088
5014978	5379	5	3658
5015306	4786	387	3131
5015634	3481	1277	2895
5015962	2081	2050	2899
5016290	960	2680	3102
5016618	465	2685	3018
5016946	600	2285	2645
5017274	1595	1763	2513
5017602	2363	1113	2507
5017930	3127	1043	2733
5018258	3794	858	3106
5018586	2883	1345	3112
5018914	2096	1423	3074
5019242	1510	1538	2901
5019570	692	1782	2699
5019898	-34	1973	2502
5020226	-781	2079	2368
5020554	-1160	2123	2324
5020882	-1114	1988	2336
5021210	-750	1742	2359
5021538	-313	1523	2342
5021866	122	1263	2344
5022194	410	1134	2254
5022522	457	1099	2135
5022850	239	1148	2001
5023178	-233	1254	1944
5023506	-770	1326	1962
5023834	-1102	1401	1852
5024162	-1116	1337	1828
5024490	-925	1248	1860
5024818	-698	1160	1927
5025146	-685	1152	1916
5025474	-843	1151	1907
5025802	-1063	1139	1937
5026130	-1391	1181	1969
5026458	-1649	1189	1990
5026786	-1824	1197	2031
5027114	-1889	1193	2084
5027442	-1779	1126	2127
5027770	-1583	1102	2122
5028098	-1498	1071	2115
5028426	-1516	1096	2120
5028754	-1505	1063	2155
5029082	-1482	1033	2225
5029410	-1364	972	2271
5029738	-1197	914	2317
5030066	-1045	834	2354
5030394	-946	809	2406
5030722	-846	824	2417
5031050	-717	787	2399
5031378	-609	750	2434
5031706	-526	679	2520
5032034	-548	580	2606
5032362	-520	622	2689
5032690	-433	612	2792
5033018	-610	689	2879
5033346	-647	750	2938
5033674	-602	788	2995
5034002	-580	768	3047
5034330	-565	745	3123
5034658	-669	740	3184
5034986	-635	772	3267
5035314	-677	772	3338
5035642	-742	822	3437
5035970	-818	872	3509
5036298	-1041	921	3542
5036626	-1140	914	3609
5036954	-1295	930	3639
5037282	-1489	1076	3717
5037610	-1799	1131	3767
5037938	-2074	1066	3838
5038266	-2318	1042	3944
5038594	-2341	898	4042
5038922	-2162	794	4055
5039250	-2125	786	4159
5039578	-2241	674	4323
5039906	-2290	-126	4670
5040234	-879	906	4862
5040562	-1198	1468	5256
5040890	-1345	1428	5405
5041218	-1530	1338	5585
5041546	-464	919	5791
5041874	-1287	1050	5928
5042202	-1465	998	5976
5042530	-1449	1082	6102
5042858	-1931	1220	6281
5043186	-2271	1221	6503
5043514	-2788	1285	6689
5043842	-3187	1341	6869
5044170	-3384	1319	6782
5044498	-3255	1199	6530
5044826	-2475	980	6270
5045154	-2050	-429	5579
5045482	-1101	-1618	5186
5045810	-761	-3191	4860
5046138	817	-4656	4373
5046466	-160	-4325	3727
5046794	826	-3608	3371
5047122	1723	-1702	3261
5047450	-60	-332	2586
5047778	-786	743	1927
5048106	-1686	1373	1260
5048434	-2356	1420	-60
5048762	-2464	919	-1391
5049090	-2546	254	-2519
5049418	-2336	-46	-3570
5049746	-2056	-337	-4524
5050074	-1701	-539	-5540
5050402	-1498	-615	-6481
5050730	-1152	-907	-7400
5051058	-669	-1365	-8297
5051386	-305	-1612	-9172
5051714	87	-1806	-9969
5052042	330	-2210	-10750
5052370	866	-2356	-11181
5052698	1086	-2382	-11533
5053026	788	-2337	-11695
5053354	568	-2197	-11950
5053682	28	-2137	-12147
5054010	-377	-2219	-12404
5054338	237	-2732	-12668
5054666	-929	-2008	-12564
5054994	-1048	-1925	-12430
5055322	-892	-1775	-12462
5055650	-825	-1577	-12496
5055978	-938	-1172	-12449
5056306	-919	-1030	-12410
5056634	-1090	-821	-12588
5056962	-1468	-758	-12525
5057290	-1892	-494	-12272
5057618	-2339	-291	-12068
5057946	-1905	-638	-11920
5058274	-2159	-475	-11681
5058602	-1638	-889	-11274
5058930	-1131	-1363	-10734
5059258	-490	-1547	-10086
5059586	0	-1627	-9384
5059914	175	-1581	-8676
5060242	289	-1566	-7949
5060570	96	-1187	-7178
5060898	-4	-836	-6375
5061226	-573	-426	-5559
5061554	-708	60	-4610
5061882	-674	459	-3712
5062210	-350	586	-2884
5062538	159	421	-2086
5062866	740	198	-1415
5063194	1228	-13	-856
5063522	1704	-230	-377
5063850	2087	-412	-22
5064178	2331	-538	273
5064506	2333	-448	504
5064834	2206	-181	729
5065162	1997	199	952
5065490	1911	704	1235
5065818	1920	923	1572
5066146	2133	947	1997
5066474	2510	1068	2554
5066802	2998	1344	3023
5067130	3370	3000	2880
5067458	2331	3045	611
5067786	3050	-1716	-1794
5068114	5127	-1273	-1406
5068442	6631	139	1148
5068770	4564	168	2552
5069098	2435	1051	2497
5069426	461	1720	3115
5069754	-320	1749	3268
5070082	2	1565	3490
5070410	869	1050	3629
5070738	1607	552	3279
5071066	2098	703	2918
5071394	1956	930	2711
5071722	1286	1359	2487
5072050	631	1641	2383
5072378	180	1979	2258
5072706	555	1914	2184
5073034	993	1829	2113
5073362	1760	1324	1905
5073690	2171	1037	1905
5074018	2570	1011	1930
5074346	2816	949	1969
5074674	2668	935	1860
5075002	2279	1091	1680
5075330	1694	1320	1561
5075658	900	1537	1427
5075986	452	1828	1362
5076314	167	1885	1244
5076642	310	1840	1097
5076970	712	1571	1067
5077298	1068	1467	1059
5077626	1268	1328	966
5077954	1397	1196	998
5078282	1327	1148	1028
5078610	1116	1123	1030
5078938	849	1132	1027
5079266	628	1060	1037
5079594	434	1087	1059
5079922	134	1132	1051
5080250	-118	1212	1030
5080578	-322	1196	979
5080906	-389	1146	963
5081234	-407	1087	977
5081562	-354	998	1026
5081890	-358	933	1003
5082218	-394	911	980
5082546	-448	871	933
5082874	-557	876	880
5083202	-660	880	845
5083530	-640	825	852
5083858	-559	791	837
5084186	-440	700	845
5084514	-318	674	904
5084842	-366	678	930
5085170	-647	751	981
5085498	-907	846	1019
5085826	-1108	921	986
5086154	-1189	895	945
5086482	-1013	785	906
5086810	-749	740	890
5087138	-582	712	865
5087466	-461	677	864
5087794	-384	610	857
5088122	-200	539	859
5088450	-5	394	889
5088778	167	303	918
5089106	215	252	928
5089434	87	263	981
5089762	-135	250	997
5090090	-338	213	1040
5090418	-547	152	1086
5090746	-777	144	1111
5091074	-1034	72	1117
5091402	-1303	49	1144
5091730	-1424	162	1121
5092058	-1524	123	1077
5092386	-1461	44	1072
5092714	-1282	13	1040
5093042	-963	-6	1036
5093370	-656	2	1030
5093698	-418	-5	1067
5094026	-291	-26	1081
5094354	-109	-98	1066
5094682	56	-151	1098
5095010	140	-227	1137
5095338	187	-276	1146
5095666	117	-261	1157
5095994	-84	-196	1163
5096322	-354	-123	1141
5096650	-579	-54	1124
5096978	-710	-66	1103
5097306	-702	-106	1098
5097634	-649	-143	1063
5097962	-645	-143	1037
5098290	-719	-128	1018
5098618	-824	-109	983
5098946	-883	-82	941
5099274	-907	-66	911
5099602	-854	-103	881
5099930	-734	-129	848
5100258	-597	-127	783
5100586	-484	-127	730
5100914	-444	-96	684
5101242	-515	-30	647
5101570	-630	3	620
5101898	-752	52	576
5102226	-786	86	548
5102554	-789	105	518
5102882	-732	96	495
5103210	-584	57	476
5103538	-442	15	440
5103866	-339	-20	397
5104194	-362	-15	344
5104522	-356	-4	324
5104850	-388	10	290
5105178	-372	24	245
5105506	-343	28	208
5105834	-276	21	197
5106162	-186	-16	170
5106490	-143	-8	170
5106818	-191	8	206
5107146	-336	-2	325
5107474	-311	9	314
5107802	-247	5	311
5108130	-250	-4	296
5108458	-280	-11	267
5108786	-332	8	271
5109114	-338	-30	270
5109442	-344	-57	273
5109770	-307	-66	268
5110098	-270	-66	266
5110426	-214	-74	264
5110754	-155	-94	255
5111082	-123	-94	230
5111410	-99	-21	200
5111738	-91	-2	182
5112066	-110	36	151
5112394	-132	67	179
5112722	-197	91	164
5113050	-196	99	141
5113378	-155	70	129
5113706	-163	70	110
5114034	-179	70	88
5114362	-212	107	67
5114690	-228	134	89
5115018	-180	129	74
5115346	-90	111	57
5115674	-16	84	30
5116002	-19	109	24
5116330	-54	120	31
5116658	-81	112	13
5116986	-57	105	7
5117314	-2	110	-9
5117642	22	102	1
5117970	-8	108	12
5118298	-62	129	-8
5118626	-98	146	-3
5118954	-122	155	6
5119282	-105	147	11
5119610	-75	135	16
5119938	-68	121	13
5120266	-65	132	10
5120594	-62	119	12
5120922	7	109	12
5121250	78	89	-1
5121578	122	72	-14
5121906	99	72	-21
5122234	63	90	-25
5122562	38	106	-31
5122890	19	134	-48
5123218	33	127	-39
5123546	48	116	-38
5123874	45	109	-29
5124202	36	115	-37
5124530	-22	126	-45
5124858	-88	135	-48
5125186	-114	142	-20
5125514	-111	154	-39
5125842	-65	147	-38
5126170	-34	141	-37
5126498	-16	140	-50
5126826	-7	129	-31
5127154	-3	132	-66
5127482	-13	162	-36
5127810	-13	165	-52
5128138	-17	160	-60
5128466	8	146	-55
5128794	-3	154	-61
5129122	-32	155	-56
5129450	-86	167	-49
5129778	-125	181	-53
5130106	-135	177	-57
5130434	-160	172	-61
5130762	-151	174	-50
5131090	-148	161	-62
5131418	-151	168	-62
5131746	-179	172	-42
5132074	-180	176	-32
5132402	-154	174	-23
5132730	-108	165	-22
5133058	-78	149	-18
5133386	-71	154	-18
5133714	-63	170	-5
5134042	-52	165	2
5134370	-50	142	1
5134698	-49	167	20
5135026	-46	162	19
5135354	-40	161	13
5135682	-22	143	38
5136010	6	133	38
5136338	-1	143	41
5136666	14	115	46
5136994	27	108	59
5137322	-6	95	57
5137650	-19	93	73
5137978	-31	89	76
5138306	-26	77	89
5138634	-13	50	109
5138962	27	-16	113
5139290	36	-52	103
5139618	-7	-74	99
5139946	-74	-57	124
5140274	-92	-72	150
5140602	-109	-107	147
5140930	12	-181	152
5141258	101	-215	140
5141586	174	-244	174
5141914	209	-280	176
5142242	229	-265	178
5142570	196	-236	220
5142898	89	-238	264
5143226	-47	-176	325
5143554	-150	-145	347
5143882	-226	-118	387
5144210	-196	-110	471
5144538	-270	-157	483
5144866	-311	-100	525
5145194	-441	9	641
5145522	-422	26	757
5145850	-515	38	854
5146178	-327	25	990
5146506	-189	-71	1093
5146834	17	-50	1190
5147162	28	33	1320
5147490	206	123	1536
5147818	275	126	1732
5148146	188	131	1784
5148474	154	170	1843
5148802	188	38	1907
5149130	169	221	1896
5149458	186	445	1955
5149786	145	546	2113
5150114	19	527	2108
5150442	94	448	2114
5150770	371	367	2219
5151098	557	371	2246
5151426	680	613	2148
5151754	725	715	2103
5152082	739	736	1943
5152410	603	946	1939
5152738	237	1058	1728
5153066	274	1082	2033
5153394	301	823	2153
5153722	488	722	2038
5154050	708	705	1871
5154378	798	672	1783
5154706	842	733	1822
5155034	587	900	1863
5155362	505	726	1900
5155690	632	527	1879
5156018	779	648	1851
5156346	709	836	1898
5156674	796	680	1954
5157002	684	793	1979
5157330	604	805	1969
5157658	548	761	1918
5157986	408	834	1919
5158314	209	947	2012
5158642	120	809	2051
5158970	168	573	2028
5159298	208	536	1911
5159626	298	655	1868
5159954	165	766	1888
5160282	151	824	1857
5160610	-49	574	1846
5160938	7	258	1718
5161266	77	265	1502
5161594	-3	-56	1430
5161922	159	-574	1200
5162250	340	-1154	827
5162578	988	-2034	222
5162906	1393	-2679	-617
5163234	1594	-2814	-1108
5163562	1127	-2712	-1882
5163890	55	-1594	-2471
5164218	-1174	-1274	-3282
5164546	-2412	-1964	-4043
5164874	-3311	-2890	-5087
5165202	-3058	-2626	-5795
5165530	-2880	-1984	-6392
5165858	-2177	-1871	-6815
5166186	-1637	-2002	-6941
5166514	-603	-1774	-5900
5166842	-2073	-1103	-5312
5167170	-1597	-271	-4716
5167498	-2027	-61	-4412
5167826	-2761	-560	-4184
5168154	-4281	-895	-4166
5168482	-4934	-1853	-5387
5168810	-3752	-1747	-4741
5169138	-3427	-1080	-2973
5169466	-1761	-2321	-1663
5169794	-2319	678	-353
5170122	-3159	2060	716
5170450	-4001	2942	1591
5170778	-4255	2611	1628
5171106	-3013	1779	1510
5171434	-1350	1506	1153
5171762	226	1012	863
5172090	850	757	740
5172418	936	811	603
5172746	785	542	286
5173074	723	292	-284
5173402	651	-93	-749
5173730	447	-204	-1076
5174058	62	-2	-1349
5174386	781	-189	2497
5174714	1798	4557	3658
5175042	3004	3583	5061
5175370	1281	1055	2979
5175698	38	3578	1714
5176026	1531	3343	2104
5176354	914	2573	1988
5176682	2993	1086	1085
5177010	7521	-4545	-192
5177338	3771	9764	-4330
5177666	5576	-15062	4249
5177994	9080	8907	2630
5178322	1784	4474	831
5178650	4403	-24	-292
5178978	-596	240	-260
5179306	-4185	-822	-1343
5179634	-10406	-193	-1562
5179962	-9246	866	-1574
5180290	-7945	1140	-1140
5180618	-1368	-145	-999
5180946	1423	176	-1407
5181274	2784	15	-1803
5181602	3247	-84	-2106
5181930	2648	-162	-1806
5182258	1862	-313	-1350
5182586	1344	-469	-1280
5182914	1250	-587	-1335
5183242	1014	-548	-1249
5183570	751	-401	-1006
5183898	243	-255	-810
5184226	-537	-31	-594
5184554	-1122	8	-638
5184882	-1406	-7	-781
5185210	-1344	-112	-767
5185538	-1160	-145	-706
5185866	-1049	-104	-673
5186194	-887	137	-547
5186522	-742	329	-546
5186850	-631	416	-566
5187178	-464	383	-583
5187506	-225	295	-577
5187834	-173	161	-534
5188162	-166	325	-462
5188490	-253	379	-381
5188818	-553	475	-370
5189146	-817	516	-377
5189474	-865	546	-381
5189802	-763	514	-366
5190130	-539	404	-364
5190458	-194	240	-370
5190786	192	80	-418
5191114	518	18	-453
5191442	614	37	-453
5191770	502	135	-430
5192098	356	184	-419
5192426	130	176	-396
5192754	-26	206	-388
5193082	-163	221	-321
5193410	-145	282	-65
5193738	-124	180	-439
5194066	-88	169	-313
5194394	-32	148	-284
5194722	14	144	-254
5195050	101	121	-252
5195378	7	161	-230
5195706	-41	174	-188
5196034	-106	235	-161
5196362	-111	211	-155
5196690	-154	251	-135
5197018	-140	249	-114
5197346	-140	230	-95
5197674	-157	188	-102
5198002	-166	196	-92
5198330	-201	212	-88
5198658	-232	215	-64
5198986	-293	226	-9
5199314	-299	200	24
5199642	-280	156	40
5199970	-187	150	40
5200298	-95	141	47
5200626	-90	155	53
5200954	-129	166	86
5201282	-169	186	106
5201610	-216	196	125
5201938	-209	211	141
5202266	-148	200	120
5202594	-96	210	114
5202922	-19	182	102
5203250	31	171	70
5203578	55	175	70
5203906	49	172	77
5204234	57	152	51
5204562	56	163	55
5204890	60	159	41
5205218	64	158	22
5205546	39	142	47
5205874	40	175	49
5206202	-8	150	69
5206530	-21	138	66
5206858	-34	165	86
5207186	-78	164	110
5207514	-75	156	76
5207842	-66	162	86
5208170	-69	167	88
5208498	-53	172	104
5208826	-30	182	112
5209154	-43	181	95
5209482	-6	171	96
5209810	-8	159	95
5210138	-31	173	77
5210466	-56	164	75
5210794	-76	171	80
5211122	-93	176	84
5211450	-110	165	90
5211778	-68	139	93
5212106	-56	140	75
5212434	-64	143	54
5212762	-138	159	51
5213090	-191	147	51
5213418	-198	135	66
5213746	-159	138	60
5214074	-115	113	38
5214402	-102	112	22
5214730	-104	114	22
5215058	-104	120	7
5215386	-93	123	-2
5215714	-87	119	3
5216042	-95	130	12
5216370	-89	135	2
5216698	-99	127	9
5217026	-117	133	0
5217354	-129	145	10
5217682	-139	146	-6
5218010	-138	146	-28
5218338	-147	162	-29
5218666	-122	147	-20
5218994	-86	145	-34
5219322	-56	125	-33
5219650	-52	127	-44
5219978	-89	142	-51
5220306	-99	132	-49
5220634	-108	140	-56
5220962	-45	116	-47
5221290	-25	134	-49
5221618	-45	112	-47
5221946	-53	117	-43
5222274	-89	140	-45
5222602	-110	148	-32
5222930	-104	147	-22
5223258	-120	151	-28
5223586	-119	139	-21
5223914	-122	160	-22
5224242	-120	156	-12
5224570	-99	158	-6
5224898	-66	139	-17
5225226	-60	144	-16
5225554	-62	140	-9
5225882	-79	156	-20
5226210	-86	156	-18
5226538	-97	143	-11
5226866	-80	135	-8
5227194	-43	136	-22
5227522	-24	124	-28
5227850	-26	129	-24
5228178	-50	126	-40
5228506	-67	121	-33
5228834	-45	118	-37
5229162	-31	111	-52
5229490	-21	121	-37
5229818	-44	124	-46
5230146	-39	127	-34
5230474	-7	119	-38
5230802	-25	125	-45
5231130	-8	105	-50
5231458	-43	108	-49
5231786	-64	120	-38
5232114	-77	112	-37
5232442	-57	117	-34
5232770	-36	108	-37
5233098	-26	113	-43
5233426	-41	107	-47
5233754	-61	131	-43
5234082	-75	143	-22
5234410	-93	126	-21
5234738	-67	121	-35
5235066	-41	131	-32
5235394	-68	123	-37
5235722	-94	118	-48
5236050	-76	134	-46
5236378	-81	130	-38
5236706	-80	127	-47
5237034	-70	118	-50
5237362	-66	116	-43
5237690	-47	119	-44
5238018	-47	124	-55
5238346	-44	129	-47
5238674	-52	124	-42
5239002	-69	126	-54
5239330	-47	130	-55
5239658	-58	138	-43
5239986	-75	123	-56
5240314	-91	133	-54
5240642	-108	137	-53
5240970	-118	143	-44
5241298	-87	132	-55
5241626	-47	132	-59
5241954	-41	144	-53
5242282	-54	150	-38
5242610	-60	140	-48
5242938	-45	131	-41
5243266	-29	133	-40
5243594	-31	131	-47
5243922	-48	142	-31
5244250	-68	128	-31
5244578	-55	127	-22
5244906	-42	135	-16
5245234	-42	124	-18
5245562	-58	139	-14
5245890	-73	144	-17
5246218	-64	141	-12
5246546	-60	146	-11
5246874	-47	122	-10
5247202	-46	132	-15
5247530	-33	146	-13
5247858	-14	133	-14
5248186	-5	130	-22
5248514	10	127	-29
5248842	14	126	-9
5249170	-28	136	-15
5249498	-53	139	-25
5249826	-50	141	-14
5250154	-38	139	-20
5250482	-6	151	-22
5250810	-28	141	-22
5251138	-44	144	-23
5251466	-60	151	-14
5251794	-66	145	-20
5252122	-56	143	-20
5252450	-54	149	-20
5252778	-48	157	-23
5253106	-53	144	-15
5253434	-63	143	-23
5253762	-49	151	-29
5254090	-49	152	-37
5254418	-64	156	-32
5254746	-61	152	-30
5255074	-53	143	-30
5255402	-38	147	-45
5255730	-35	152	-36
5256058	-49	148	-28
5256386	-58	156	-37
5256714	-47	163	-21
5257042	-36	158	-27
5257370	-25	156	-29
5257698	-46	155	-32
5258026	-74	159	-29
5258354	-94	170	-20
5258682	-78	162	-31
5259010	-44	173	-22
5259338	-24	156	-27
5259666	-29	159	-28
5259994	-41	165	-39
5260322	-55	163	-25
5260650	-41	150	-42
5260978	-26	162	-37
5261306	-37	160	-24
5261634	-28	158	-29
5261962	-14	147	-33
5262290	-9	151	-33
5262618	5	153	-32
5262946	-18	157	-28
5263274	-44	145	-35
5263602	-35	156	-29
5263930	-16	158	-36
5264258	-41	157	-38
5264586	-58	153	-39
5264914	-57	154	-43
5265242	-39	151	-36
5265570	-44	147	-41
5265898	-29	160	-34
5266226	-53	155	-49
5266554	-31	159	-31
5266882	-21	150	-27
5267210	-19	149	-23
5267538	-2	140	-19
5267866	-3	151	-23
5268194	-28	155	-21
5268522	-34	146	-25
5268850	-46	157	-22
5269178	-47	151	-19
5269506	-64	148	-22
5269834	-52	165	-30
5270162	-43	161	-22
5270490	-23	154	-22
5270818	-3	144	-25
5271146	3	138	-19
5271474	-12	143	-22
5271802	-22	149	-23
5272130	-46	154	-23
5272458	-57	162	-28
5272786	-45	154	-9
5273114	-21	154	-8
5273442	-26	160	-10
5273770	-23	148	-7
5274098	-31	148	-27
5274426	-50	156	-9
5274754	-42	152	-9
5275082	-28	148	-12
5275410	-18	143	-27
5275738	-13	141	-33
5276066	-9	132	-26
5276394	-45	146	-34
5276722	-61	145	-25
5277050	-80	150	-29
5277378	-60	136	-31
5277706	-62	142	-27
5278034	-60	151	-17
5278362	-68	141	-18
5278690	-78	153	-17
5279018	-73	156	-12
5279346	-67	152	-5
5279674	-41	150	-3
5280002	-31	136	-4
5280330	-23	130	-3
5280658	-20	143	1
5280986	-45	158	-11
5281314	-78	162	2
5281642	-86	152	11
5281970	-65	149	2
5282298	-12	141	6
5282626	-19	142	1
5282954	-42	160	-1
5283282	-68	153	12
5283610	-69	157	18
5283938	-34	136	11
5284266	21	118	5
5284594	22	126	-7
5284922	2	133	0
5285250	-46	151	0
5285578	-58	153	-10
5285906	-68	126	-39
5286234	-30	140	-21
5286562	-26	142	-23
5286890	-30	146	-22
5287218	-56	147	-15
5287546	-72	152	-16
5287874	-88	149	-33
5288202	-100	144	-39
5288530	-88	144	-22
5288858	-73	133	-31
5289186	-72	139	-23
5289514	-70	130	-29
5289842	-69	151	-27
5290170	-73	139	-17
5290498	-57	130	-21
5290826	-39	140	-21
5291154	-36	137	-18
5291482	-57	139	-14
5291810	-79	145	-10
5292138	-69	138	-18
5292466	-49	136	-19
5292794	-41	144	-7
5293122	-41	135	-13
5293450	-8	128	-4
5293778	-9	122	-12
5294106	-16	130	-14
5294434	-22	139	-7
5294762	-42	149	-14
5295090	-57	140	3
5295418	-38	137	-5
5295746	-26	132	-20
5296074	-53	137	-17
5296402	-59	136	-12
5296730	-55	135	-23
5297058	-43	133	-36
5297386	-40	126	-32
5297714	-61	145	-16
5298042	-61	141	-26
5298370	-56	139	-27
5298698	-36	139	-31
5299026	-17	143	-21
5299354	-33	153	-35
5299682	-60	140	-28
5300010	-73	144	-31
5300338	-90	138	-31
5300666	-74	151	-26
5300994	-74	142	-30
5301322	-65	135	-30
5301650	-76	140	-22
5301978	-70	145	-31
5302306	-54	142	-26
5302634	-52	141	-21
5302962	-52	132	-27
5303290	-55	135	-13
5303618	-42	130	-28
5303946	-37	144	-8
5304274	-34	141	-15
5304602	-33	148	-15
5304930	-41	146	-12
5305258	-45	141	-9
5305586	-50	147	-7
5305914	-49	135	-4
5306242	-20	144	-3
5306570	-5	130	-17
5306898	-7	129	-16
5307226	-27	156	-12
5307554	-23	139	-16
5307882	-11	130	-23
5308210	-15	133	-25
5308538	-46	139	-33
5308866	-44	135	-26
5309194	-43	140	-35
5309522	-41	142	-35
5309850	-26	138	-34
5310178	-50	142	-45
5310506	-63	130	-32
5310834	-85	132	-42
5311162	-99	149	-47
5311490	-96	130	-28
5311818	-77	130	-47
5312146	-73	142	-59
5312474	-84	142	-48
5312802	-83	125	-48
5313130	-59	142	-54
5313458	-26	113	-53
5313786	-23	123	-51
5314114	-28	123	-46
5314442	-44	131	-54
5314770	-39	128	-40
5315098	-25	123	-44
5315426	-26	132	-40
5315754	-44	143	-31
5316082	-47	138	-35
5316410	-46	132	-42
5316738	-45	135	-37
5317066	-54	120	-47
5317394	-50	132	-33
5317722	-49	147	-48
5318050	-12	140	-58
5318378	-12	123	-45
5318706	7	126	-43
5319034	6	121	-50
5319362	4	128	-34
5319690	-8	123	-51
5320018	-26	135	-39
5320346	-48	140	-38
5320674	-42	137	-20
5321002	-60	134	-35
5321330	-57	140	-32
5321658	-44	128	-21
5321986	-39	152	-34
5322314	-43	133	-18
5322642	-57	139	-18
5322970	-81	141	-32
5323298	-83	138	-21
5323626	-103	162	-24
5323954	-83	148	-35
5324282	-103	152	-19
5324610	-91	155	-16
5324938	-87	148	-12
5325266	-78	145	-17
5325594	-81	143	-14
5325922	-98	155	-7
5326250	-98	160	-10
5326578	-98	151	10
5326906	-74	138	-3
5327234	-37	132	-8
5327562	-32	131	-11
5327890	-72	148	-6
5328218	-76	151	6
5328546	-68	148	0
5328874	-73	143	0
5329202	-66	153	1
5329530	-66	144	3
5329858	-64	152	10
5330186	-47	154	2
5330514	-44	137	-7
5330842	-37	128	-4
5331170	-47	132	-8
5331498	-48	141	1
5331826	-48	134	-21
5332154	-55	127	-28
5332482	-49	123	-35
5332810	-40	128	-32
5333138	-45	122	-43
5333466	-54	115	-40
5333794	-59	115	-45
5334122	-65	118	-50
5334450	-68	111	-52
5334778	-71	109	-65
5335106	-93	118	-73
5335434	-91	128	-59
5335762	-95	126	-57
5336090	-100	132	-63
5336418	-89	110	-63
5336746	-88	122	-67
5337074	-88	115	-47
5337402	-103	117	-42
5337730	-76	114	-46
5338058	-57	113	-48
5338386	-52	119	-53
5338714	-80	119	-50
5339042	-85	115	-52
5339370	-71	116	-58
5339698	-63	115	-55
5340026	-79	123	-59
5340354	-88	115	-59
5340682	-79	109	-60
5341010	-52	115	-54
5341338	-27	103	-60
5341666	-27	103	-57
5341994	-66	111	-68
5342322	-86	120	-56
5342650	-99	124	-62
5342978	-81	117	-56
5343306	-75	113	-51
5343634	-51	106	-52
5343962	-53	123	-54
5344290	-53	127	-51
5344618	-53	111	-48
5344946	-49	112	-41
5345274	-16	110	-52
5345602	-16	105	-48
5345930	-20	122	-68
5346258	-35	110	-46
5346586	-29	115	-49
5346914	-9	102	-62
5347242	-27	87	-85
5347570	-57	105	-77
5347898	-50	121	-75
5348226	-51	125	-75
5348554	-44	116	-86
5348882	-27	103	-85
5349210	-4	90	-91
5349538	-10	101	-92
5349866	-39	108	-86
5350194	-81	102	-105
5350522	-104	112	-87
5350850	-119	114	-78
5351178	-107	100	-88
5351506	-115	107	-85
5351834	-89	108	-79
5352162	-78	97	-78
5352490	-86	118	-73
5352818	-63	91	-65
5353146	-73	105	-60
5353474	-78	100	-54
5353802	-55	114	-60
5354130	-57	111	-60
5354458	-50	100	-54
5354786	-37	131	-54
5355114	-11	128	-59
5355442	-9	112	-50
5355770	-9	110	-42
5356098	30	112	-31
5356426	46	97	-49
5356754	67	104	-30
5357082	92	142	-31
5357410	113	139	-37
5357738	152	112	-43
5358066	150	110	-44
5358394	157	83	-39
5358722	116	104	-48
5359050	65	147	-61
5359378	71	144	-59
5359706	180	133	-60
5360034	292	139	-75
5360362	409	118	-55
5360690	494	102	-65
5361018	578	44	-52
5361346	641	35	-48
5361674	674	-19	-61
5362002	659	-6	-70
5362330	628	-19	-51
5362658	653	-77	-50
5362986	663	-105	-68
5363314	655	-111	-82
5363642	666	-172	-87
5363970	681	-245	-105
5364298	627	-275	-122
5364626	469	-213	-131
5364954	211	-188	-115
5365282	15	-200	-84
5365610	-131	-243	-76
5365938	-186	-286	-78
5366266	-240	-348	-43
5366594	-332	-415	13
5366922	-441	-440	55
5367250	-548	-450	79
5367578	-631	-452	151
5367906	-683	-464	184
5368234	-666	-479	229
5368562	-679	-466	258
5368890	-649	-477	306
5369218	-688	-489	333
5369546	-702	-457	378
5369874	-726	-397	445
5370202	-743	-333	522
5370530	-705	-352	602
5370858	-739	-339	641
5371186	-900	-193	763
5371514	-1132	-132	821
5371842	-1221	-96	981
5372170	-1258	-104	1135
5372498	-1272	-160	1216
5372826	-1218	-268	1360
5373154	-1155	-208	1564
5373482	-1346	-145	1786
5373810	-1613	158	2110
5374138	-2216	509	2355
5374466	-2513	874	2692
5374794	-2976	1252	2909
5375122	-3310	1490	2878
5375450	-3355	1796	3013
5375778	-3533	2205	3006
5376106	-3789	2474	2888
5376434	-4114	2784	2581
5376762	-4771	3513	2027
5377090	-5162	3375	1273
5377418	-5420	3164	227
5377746	-5714	2983	-861
5378074	-6174	2750	-2120
5378402	-6620	2501	-3341
5378730	-6976	2135	-4528
5379058	-7156	1709	-5624
5379386	-6996	1294	-6580
5379714	-6817	832	-7388
5380042	-6367	453	-8034
5380370	-6120	91	-8471
5380698	-5826	-211	-8740
5381026	-5651	-585	-8882
5381354	-5504	-698	-8836
5381682	-5498	-744	-8765
5382010	-5444	-833	-8480
5382338	-5682	-824	-8486
5382666	-5713	-743	-8211
5382994	-5462	-723	-7903
5383322	-5131	-757	-7541
5383650	-4832	-793	-7155
5383978	-4637	-788	-6778
5384306	-4516	-829	-6365
5384634	-4527	-669	-5904
5384962	-4507	-540	-5386
5385290	-4470	-435	-4869
5385618	-4498	-248	-4325
5385946	-4496	-31	-3748
5386274	-4393	121	-3178
5386602	-4093	167	-2676
5386930	-3752	122	-2239
5387258	-3301	146	-1853
5387586	-2886	88	-1489
5387914	-2427	-9	-1186
5388242	-1977	7	-911
5388570	-1583	7	-700
5388898	-1279	44	-511
5389226	-1078	108	-275
5389554	-919	255	-28
5389882	-950	591	317
5390210	-936	1015	773
5390538	-954	1409	1254
5390866	-934	1807	1834
5391194	-660	2170	2501
5391522	-423	2821	3205
5391850	-249	3516	3845
5392178	-142	4322	4273
5392506	-767	6525	3509
5392834	-1088	1253	694
5393162	364	-260	-508
5393490	4942	1167	2252
5393818	3212	234	2890
5394146	1948	1271	3559
5394474	1053	2454	3828
5394802	523	2471	4210
5395130	253	2422	4245
5395458	766	2019	4306
5395786	2232	1043	4104
5396114	3267	888	3479
5396442	3397	1205	2752
5396770	2533	1903	2533
5397098	1132	2784	2855
5397426	-153	3262	3091
5397754	-760	3148	3000
5398082	-1008	2878	2872
5398410	-732	2444	2938
5398738	-291	2097	3035
5399066	-47	1826	3162
5399394	140	1564	3134
5399722	189	1430	2991
5400050	174	1398	2785
5400378	-171	1580	2568
5400706	-716	1864	2423
5401034	-1354	2092	2294
5401362	-1467	2037	2246
5401690	-887	1627	2241
5402018	-9	1185	2210
5402346	771	878	2191
5402674	1165	842	2119
5403002	1011	807	2081
5403330	375	1230	2029
5403658	-267	1279	2061
5403986	-1314	1386	2151
5404314	-1260	1110	2287
5404642	-1008	874	2341
5404970	-718	692	2311
5405298	-661	710	2239
5405626	-819	699	2228
5405954	-905	595	2326
5406282	-796	498	2314
5406610	-439	337	2235
5406938	45	332	2255
5407266	355	287	2356
5407594	518	299	2514
5407922	372	319	2688
5408250	191	324	2868
5408578	379	311	3129
5408906	267	203	3244
5409234	297	270	3365
5409562	456	408	3446
5409890	418	628	3546
5410218	168	838	3654
5410546	-70	1059	3748
5410874	-327	1247	3841
5411202	-589	1325	3929
5411530	-739	1384	3962
5411858	-711	1267	3987
5412186	-453	1311	4011
5412514	-513	1383	4087
5412842	-601	1497	4185
5413170	-915	1702	4248
5413498	-1422	1892	4274
5413826	-1601	2072	4285
5414154	-1593	1954	4458
5414482	-1579	1698	4612
5414810	-1335	1378	4608
5415138	-795	1102	4641
5415466	-456	772	4665
5415794	-223	524	4639
5416122	-104	400	4680
5416450	-46	317	4763
5416778	-115	104	4916
5417106	500	-305	5141
5417434	421	222	5076
5417762	110	790	5368
5418090	-487	1295	5580
5418418	-1160	1650	5872
5418746	-1653	1502	6146
5419074	-2395	1457	6440
5419402	-2663	1528	6761
5419730	-2982	1481	6984
5420058	-3356	1446	7056
5420386	-3207	1246	7078
5420714	-2941	807	6847
5421042	-2303	-178	6297
5421370	-1298	-1588	5837
5421698	-72	-2924	5308
5422026	-448	-2620	4636
5422354	-2175	529	3547
5422682	-3790	2263	2685
5423010	-3375	2607	1848
5423338	-2741	1298	619
5423666	-2061	592	-797
5423994	-1222	450	-1900
5424322	-612	143	-2857
5424650	81	-365	-4052
5424978	332	-515	-5012
5425306	-25	-486	-6036
5425634	-401	-234	-6954
5425962	-916	151	-7731
5426290	-1116	469	-8680
5426618	-1870	847	-9442
5426946	-2042	881	-10256
5427274	-2045	684	-11045
5427602	-1852	172	-11927
5427930	-1342	-328	-12714
5428258	-563	-691	-13397
5428586	-604	-9	-13711
5428914	-1238	107	-13984
5429242	-1404	112	-14375
5429570	-1760	656	-14590
5429898	-1942	936	-14592
5430226	-2243	1223	-14517
5430554	-2575	1406	-14370
5430882	-2825	1372	-14696
5431210	-3456	1571	-14791
5431538	-4159	1900	-14439
5431866	-4694	2169	-14034
5432194	-5179	2592	-13302
5432522	-5486	2901	-12358
5432850	-5707	3008	-11368
5433178	-5656	3059	-10259
5433506	-5314	3005	-9067
5433834	-4545	2694	-7768
5434162	-3500	2386	-6317
5434490	-2327	1919	-4780
5434818	-1476	1682	-3205
5435146	-776	1608	-1632
5435474	-370	1573	-207
5435802	4	1573	1212
5436130	537	1451	2500
5436458	1177	1216	3658
5436786	2208	692	4569
5437114	4002	-480	5024
5437442	8192	-2805	1426
5437770	10285	-4039	802
5438098	10634	-3062	3405
5438426	8092	-2068	4749
5438754	5817	-598	4725
5439082	4078	370	4226
5439410	3419	1242	4351
5439738	2476	1907	3897
5440066	1873	1823	3456
5440394	1162	1624	2826
5440722	279	1313	2465
5441050	-28	1296	2505
5441378	-229	1315	2674
5441706	162	1199	2624
5442034	966	1017	2706
5442362	1601	638	2698
5442690	2032	312	2313
5443018	1925	289	1965
5443346	1328	476	1696
5443674	133	952	1496
5444002	-1171	1454	1513
5444330	-2168	1762	1671
5444658	-2362	1784	1815
5444986	-2570	1828	1769
5445314	-2030	1550	1717
5445642	-1321	1338	1683
5445970	-693	1226	1715
5446298	-493	1229	1759
5446626	-664	1303	1751
5446954	-1058	1470	1752
5447282	-1518	1767	1838
5447610	-1822	1761	1927
5447938	-1889	1773	2086
5448266	-1814	1700	2337
5448594	-1738	1621	2518
5448922	-1632	1642	2713
5449250	-1814	1681	2880
5449578	-2070	1644	3078
5449906	-2312	1678	3324
5450234	-2561	1698	3504
5450562	-2649	1679	3686
5450890	-2735	1627	3752
5451218	-2174	1219	3736
5451546	-2353	1421	3938
5451874	-2059	1310	3939
5452202	-2207	1444	4082
5452530	-2039	1454	4198
5452858	-2139	1547	4309
5453186	-2313	1683	4537
5453514	-2503	1851	4784
5453842	-2875	2015	5098
5454170	-3241	2336	5532
5454498	-3781	2792	6077
5454826	-4683	3110	6800
5455154	-4777	3351	7161
5455482	-5488	4104	7562
5455810	-5599	4439	8304
5456138	-5428	5049	8914
5456466	-5322	5019	8804
5456794	-5422	5286	8966
5457122	-5555	5116	8845
5457450	-5248	4490	8474
5457778	-6791	2711	7514
5458106	-6483	45	6103
5458434	-6839	376	5151
5458762	-7502	4097	4027
5459090	-9290	7337	2161
5459418	-8738	5530	370
5459746	-7331	3464	-1760
5460074	-7096	3708	-2808
5460402	-6656	3702	-4210
5460730	-7026	3700	-5466
5461058	-6688	2859	-6559
5461386	-6807	1967	-7578
5461714	-6544	1279	-8545
5462042	-6177	881	-9268
5462370	-5906	825	-10039
5462698	-5742	581	-10653
5463026	-5242	162	-11097
5463354	-4801	-135	-11493
5463682	-4736	-564	-11832
5464010	-4537	-820	-12289
5464338	-4900	-1095	-12531
5464666	-5129	-1095	-12527
5464994	-5247	-1119	-12510
5465322	-5472	-1153	-12404
5465650	-5696	-1171	-12317
5465978	-5937	-1187	-12316
5466306	-6264	-1228	-12291
5466634	-6694	-1175	-12129
5466962	-7051	-1123	-12021
5467290	-7364	-979	-11729
5467618	-7640	-820	-11313
5467946	-7867	-589	-10871
5468274	-7324	-801	-10538
5468602	-7150	-993	-10175
5468930	-6921	-778	-9304
5469258	-6767	-444	-8235
5469586	-6571	-196	-7253
5469914	-6289	195	-6281
5470242	-6166	641	-5402
5470570	-5914	1084	-4335
5470898	-5626	1409	-3188
5471226	-5217	1716	-2064
5471554	-4584	1928	-924
5471882	-2340	1597	995
5472210	20	2030	2287
5472538	603	1341	2845
5472866	1752	1213	3840
5473194	3472	1232	4519
5473522	1145	5994	3667
5473850	5209	-1857	1021
5474178	5786	-992	827
5474506	6973	-442	2019
5474834	6342	-288	3472
5475162	3066	1287	3784
5475490	2168	1830	4492
5475818	2603	1386	5144
5476146	3557	1177	5490
5476474	3560	1554	5333
5476802	2224	1545	4296
5477130	946	2235	3964
5477458	220	2161	3704
5477786	-237	2045	3563
5478114	-752	2028	3366
5478442	-1444	2317	3131
5478770	-1898	2541	2961
5479098	-2102	2308	2978
5479426	-2132	2212	2965
5479754	-1553	2002	3020
5480082	-1062	1412	2884
5480410	-618	1128	2623
5480738	-400	1134	2363
5481066	-821	1441	2161
5481394	-1393	1648	2056
5481722	-1830	1737	2011
5482050	-1992	1697	1988
5482378	-1741	1585	2020
5482706	-1336	1275	1988
5483034	-936	860	1971
5483362	-322	607	1993
5483690	156	388	2125
5484018	352	379	2266
5484346	626	501	2505
5484674	177	562	2496
5485002	-183	678	2577
5485330	-345	647	2657
5485658	-358	581	2862
5485986	-147	394	3058
5486314	30	327	3081
5486642	-7	385	3193
5486970	-286	437	3336
5487298	-448	466	3377
5487626	-176	154	3360
5487954	-266	279	3303
5488282	-214	348	3270
5488610	-214	319	3274
5488938	-476	389	3341
5489266	-628	462	3390
5489594	-704	416	3416
5489922	-568	311	3469
5490250	-413	298	3588
5490578	-279	301	3585
5490906	-204	377	3611
5491234	-101	378	3643
5491562	-118	507	3656
5491890	-316	686	3728
5492218	-592	682	3820
5492546	-867	740	3822
5492874	-870	791	3862
5493202	-874	882	3988
5493530	-940	926	4159
5493858	-1178	1140	4251
5494186	-1248	1241	4375
5494514	-1303	1093	4601
5494842	-1250	857	4778
5495170	-992	557	4907
5495498	-530	306	5095
5495826	-246	83	5288
5496154	-46	66	5490
5496482	-5	182	5760
5496810	-301	211	6131
5497138	-321	-256	6723
5497466	-420	1113	7052
5497794	-352	1391	7879
5498122	-1075	2294	8641
5498450	-2017	2880	9073
5498778	-2855	2810	9704
5499106	-3159	2714	10184
5499434	-3544	2578	9858
5499762	-3278	2055	8860
5500090	-2055	54	7787
5500418	-1246	-3256	6376
5500746	-1864	-3493	4671
5501074	-4008	811	3038
5501402	-6054	3948	1453
5501730	-7241	4955	2
5502058	-6892	3686	-1054
5502386	-5814	2478	-2513
5502714	-5005	2351	-3837
5503042	-4203	2881	-5366
5503370	-1637	1589	-6133
5503698	447	255	-7057
5504026	1931	-388	-8007
5504354	1795	405	-8586
5504682	1225	884	-8976
5505010	204	1527	-9161
5505338	-1077	2067	-9245
5505666	-2665	2219	-9454
5505994	-4534	1952	-9694
5506322	-5042	1877	-9954
5506650	-5362	2003	-10011
5506978	-5166	1990	-10060
5507306	-4604	1843	-10289
5507634	-3757	1165	-10363
5507962	-2667	621	-10208
5508290	-1432	177	-10279
5508618	-676	-103	-10290
5508946	-183	-543	-10182
5509274	252	-736	-9871
5509602	380	-776	-9312
5509930	323	-668	-8635
5510258	172	-64	-7664
5510586	-432	849	-6705
5510914	-1147	760	-5957
5511242	-1332	673	-5208
5511570	-1123	614	-4414
5511898	-856	577	-3560
5512226	-789	763	-2591
5512554	-964	900	-1816
5512882	-1518	1108	-1058
5513210	-2951	1538	-259
5513538	-2688	1565	862
5513866	-1421	644	1872
5514194	-265	-774	1969
5514522	1702	-2741	1547
5514850	5840	-1783	1682
5515178	7499	-905	752
5515506	6929	475	-985
5515834	1205	2370	801
5516162	-995	-298	1591
5516490	-1086	-1572	1117
5516818	809	-1126	859
5517146	2968	-695	1124
5517474	3090	-35	1106
5517802	1802	-110	831
5518130	445	-162	594
5518458	-656	-119	406
5518786	-894	20	155
5519114	-996	119	1
5519442	-1079	65	-22
5519770	-1102	-34	-83
5520098	-1158	-141	-188
5520426	-1310	-113	-269
5520754	-1450	-106	-394
5521082	-1557	-141	-550
5521410	-1549	-108	-668
5521738	-1518	-63	-763
5522066	-1412	-6	-832
5522394	-1340	62	-893
5522722	-1452	108	-986
5523050	-1734	139	-1106
5523378	-2113	177	-1230
5523706	-2531	172	-1241
5524034	-2950	183	-1208
5524362	-3276	251	-1118
5524690	-3625	239	-922
5525018	-4248	424	-798
5525346	-4583	371	-732
5525674	-4867	280	-683
5526002	-5024	279	-611
5526330	-5101	243	-545
5526658	-5046	171	-466
5526986	-4909	73	-382
5527314	-4630	-28	-320
5527642	-4160	-89	-252
5527970	-3785	-223	-290
5528298	-3087	-600	-369
5528626	-2883	-565	-266
5528954	-2819	-571	-206
5529282	-2806	-624	-222
5529610	-3033	-368	-197
5529938	-3309	-129	-156
5530266	-3616	106	-134
5530594	-3737	394	61
5530922	-4101	596	332
5531250	-4685	1058	651
5531578	-5403	1547	1113
5531906	-6253	1869	1450
5532234	-7058	2239	1967
5532562	-7536	2507	2578
5532890	-7830	2688	3053
5533218	-7777	2744	3406
5533546	-7551	2652	3704
5533874	-7115	2517	3838
5534202	-6632	2371	3959
5534530	-6616	2417	4105
5534858	-7010	2853	4284
5535186	-7500	3206	4446
5535514	-7908	3328	4607
5535842	-8094	3286	4695
5536170	-8145	3121	4771
5536498	-8029	2754	4768
5536826	-7762	2468	4736
5537154	-7565	2347	4666
5537482	-7282	2182	4585
5537810	-6986	1912	4486
5538138	-6613	1656	4448
5538466	-6369	1435	4406
5538794	-6099	1295	4357
5539122	-5769	1214	4238
5539450	-5420	1238	4119
5539778	-4989	1416	3872
5540106	-3816	1398	3124
5540434	-3368	1346	2565
5540762	-2880	1311	2043
5541090	-2573	1501	1509
5541418	-2356	1586	1013
5541746	-2285	1656	515
5542074	-2324	1695	173
5542402	-2532	1824	-21
5542730	-2893	1942	-147
5543058	-3345	2355	-247
5543386	-3719	2667	-286
5543714	-4133	3019	-347
5544042	-4416	3507	-427
5544370	-4615	3792	-609
5544698	-4581	3621	-794
5545026	-4573	3373	-915
5545354	-5090	5414	-1404
5545682	-4703	3247	-2111
5546010	-4052	1871	-2963
5546338	-3327	1015	-3720
5546666	-2634	652	-3955
5546994	-2265	818	-3424
5547322	-2234	1233	-2512
5547650	-1527	1236	-1682
5547978	-1209	1317	-1215
5548306	7	850	-1160
5548634	1525	209	-1377
5548962	2668	30	-1696
5549290	3379	-456	-1916
5549618	3317	-695	-1802
5549946	2328	-341	-1501
5550274	939	423	-1098
5550602	-72	850	-1031
5550930	-141	769	-976
5551258	-246	802	-1085
5551586	-440	884	-1340
5551914	-838	931	-1252
5552242	-964	860	-1006
5552570	-806	673	-900
5552898	-498	458	-888
5553226	-107	228	-844
5553554	19	81	-775
5553882	-152	-9	-724
5554210	-454	-35	-656
5554538	-815	120	-597
5554866	-1088	217	-506
5555194	-1291	233	-422
5555522	-1429	368	-352
5555850	-1440	436	-290
5556178	-1225	287	-215
5556506	-881	155	-143
5556834	-412	-1	-52
5557162	128	-247	53
5557490	472	-318	114
5557818	793	-557	253
5558146	701	-550	290
5558474	817	-676	391
5558802	889	-813	446
5559130	766	-792	478
5559458	557	-575	442
5559786	262	-316	406
5560114	-175	-82	345
5560442	-523	45	301
5560770	-837	146	242
5561098	-954	299	224
5561426	-927	512	267
5561754	-1076	366	164
5562082	-1019	212	33
5562410	-864	136	-8
5562738	-904	223	-28
5563066	-1084	367	-83
5563394	-1419	497	-159
5563722	-1625	495	-238
5564050	-1624	436	-293
5564378	-1802	564	-333
5564706	-1646	465	-279
5565034	-1376	388	-250
5565362	-1089	335	-207
5565690	-783	265	-113
5566018	-531	221	-44
5566346	-366	174	-15
5566674	-212	175	33
5567002	-95	136	84
5567330	-79	137	126
5567658	-144	131	148
5567986	-284	232	197
5568314	-428	266	204
5568642	-597	288	180
5568970	-545	214	168
5569298	-439	173	175
5569626	-374	199	225
5569954	-364	189	230
5570282	-298	178	250
5570610	-187	151	235
5570938	-47	108	234
5571266	29	105	245
5571594	8	117	259
5571922	-116	114	255
5572250	-208	150	284
5572578	-266	161	290
5572906	-320	149	290
5573234	-287	100	281
5573562	-267	132	287
5573890	-239	129	311
5574218	-157	134	316
5574546	-53	77	300
5574874	69	43	292
5575202	74	41	277
5575530	-2	70	277
5575858	-105	117	263
5576186	-138	151	250
5576514	-103	148	238
5576842	-30	142	252
5577170	11	81	213
5577498	46	100	163
5577826	57	103	156
5578154	10	122	170
5578482	-71	153	164
5578810	-124	182	154
5579138	-156	190	147
5579466	-137	159	127
5579794	-138	167	97
5580122	-143	184	77
5580450	-194	229	62
5580778	-191	219	54
5581106	-174	221	67
5581434	-132	235	64
5581762	-67	216	62
5582090	34	184	47
5582418	86	150	39
5582746	140	135	32
5583074	155	130	41
5583402	117	162	67
5583730	49	168	99
5584058	-26	192	104
5584386	-34	195	118
5584714	-46	200	107
5585042	-69	191	115
5585370	-116	180	117
5585698	-138	177	125
5586026	-101	161	124
5586354	22	148	119
5586682	125	131	130
5587010	192	116	132
5587338	225	106	140
5587666	206	79	133
5587994	105	103	99
5588322	15	130	124
5588650	-50	154	134
5588978	-79	166	126
5589306	-87	158	119
5589634	-115	133	122
5589962	-161	120	123
5590290	-179	115	116
5590618	-210	142	134
5590946	-224	142	146
5591274	-223	164	162
5591602	-189	167	172
5591930	-170	149	167
5592258	-154	147	160
5592586	-152	146	149
5592914	-168	161	159
5593242	-156	163	150
5593570	-107	148	166
5593898	-73	130	144
5594226	-18	117	141
5594554	22	98	152
5594882	43	99	157
5595210	20	98	153
5595538	9	110	147
5595866	-27	116	137
5596194	-58	102	137
5596522	-77	106	114
5596850	-68	123	92
5597178	-66	124	90
5597506	-85	139	88
5597834	-79	142	80
5598162	-94	142	70
5598490	-70	138	73
5598818	-74	125	79
5599146	-74	121	74
5599474	-50	115	74
5599802	-40	125	48
5600130	-44	123	33
5600458	-85	140	23
5600786	-130	132	25
5601114	-146	148	28
5601442	-172	153	5
5601770	-187	144	-4
5602098	-208	149	-34
5602426	-205	149	-33
5602754	-180	156	-30
5603082	-160	150	-27
5603410	-154	132	-27
5603738	-175	126	-26
5604066	-210	134	-19
5604394	-223	140	-14
5604722	-217	152	-6
5605050	-175	140	-8
5605378	-133	133	-1
5605706	-107	129	-5
5606034	-98	119	4
5606362	-80	123	9
5606690	-60	121	0
5607018	-101	142	-5
5607346	-117	143	8
5607674	-130	158	1
5608002	-118	163	-1
5608330	-115	182	3
5608658	-121	167	-16
5608986	-121	142	-4
5609314	-89	141	-10
5609642	-82	135	-6
5609970	-75	137	-3
5610298	-63	151	-10
5610626	-67	160	-3
5610954	-58	146	3
5611282	-34	131	3
5611610	-31	151	10
5611938	-43	165	10
5612266	-77	157	16
5612594	-80	165	37
5612922	-64	160	44
5613250	-72	133	44
5613578	-67	147	36
5613906	-56	154	40
5614234	-30	140	46
5614562	-13	127	50
5614890	14	120	35
5615218	-1	123	41
5615546	-24	129	59
5615874	-29	137	44
5616202	-13	143	36
5616530	7	135	23
5616858	-5	153	22
5617186	11	141	23
5617514	2	158	28
5617842	-4	167	23
5618170	-9	167	25
5618498	-6	145	31
5618826	-1	151	16
5619154	3	153	16
5619482	-17	145	5
5619810	-58	166	-2
5620138	-123	185	-14
5620466	-156	182	3
5620794	-152	187	-2
5621122	-123	180	1
5621450	-85	150	-3
5621778	-37	169	-7
5622106	-25	149	-11
5622434	-25	163	-1
5622762	-56	171	-4
5623090	-84	166	1
5623418	-75	160	-9
5623746	-63	174	-5
5624074	-29	162	-7
5624402	-30	168	-1
5624730	-16	154	2
5625058	-5	167	8
5625386	7	168	8
5625714	21	144	15
5626042	11	146	8
5626370	-23	152	19
5626698	-31	154	22
5627026	-33	153	18
5627354	-38	153	-5
5627682	-55	152	5
5628010	-50	151	4
5628338	-56	150	5
5628666	-41	146	-3
5628994	-19	156	6
5629322	-34	164	-1
5629650	-35	151	0
5629978	-18	161	11
5630306	-16	139	2
5630634	-14	132	-7
5630962	-43	129	-15
5631290	-65	144	-4
5631618	-85	148	-4
5631946	-127	157	-10
5632274	-136	154	-8
5632602	-126	139	-23
5632930	-69	132	-19
5633258	-58	120	-21
5633586	-62	132	-39
5633914	-67	115	-17
5634242	-79	119	-17
5634570	-93	130	-27
5634898	-105	137	-29
5635226	-102	137	-32
5635554	-122	136	-42
5635882	-111	153	-27
5636210	-129	154	-13
5636538	-122	150	9
5636866	-83	142	13
5637194	-59	154	14
5637522	-61	141	43
5637850	-80	152	41
5638178	-83	154	49
5638506	-82	157	73
5638834	-98	164	86
5639162	-81	152	100
5639490	-17	155	120
5639818	-23	146	119
5640146	-43	149	111
5640474	-40	139	118
5640802	-24	145	142
5641130	-47	140	133
5641458	-30	141	123
5641786	18	145	120
5642114	20	143	108
5642442	9	161	96
5642770	-20	168	90
5643098	-33	164	93
5643426	-44	178	110
5643754	-10	158	95
5644082	45	152	103
5644410	47	158	96
5644738	55	167	97
5645066	16	172	107
5645394	-13	185	88
5645722	-49	171	77
5646050	-85	182	66
5646378	-105	176	53
5646706	-110	180	33
5647034	-131	174	13
5647362	-127	187	1
5647690	-148	166	-33
5648018	-150	154	-43
5648346	-136	155	-54
5648674	-123	143	-68
5649002	-102	159	-70
5649330	-66	142	-67
5649658	-35	140	-60
5649986	-31	155	-43
5650314	-30	148	-21
5650642	-2	148	1
5650970	54	153	51
5651298	79	162	77
5651626	120	153	125
5651954	163	156	147
5652282	207	144	197
5652610	279	156	247
5652938	326	166	274
5653266	398	174	321
5653594	505	155	354
5653922	548	132	380
5654250	472	160	455
5654578	316	155	506
5654906	189	158	604
5655234	115	164	692
5655562	199	205	801
5655890	271	177	874
5656218	442	254	992
5656546	597	312	1117
5656874	704	315	1201
5657202	772	265	1270
5657530	662	326	1350
5657858	465	383	1458
5658186	257	495	1572
5658514	176	415	1694
5658842	155	360	1812
5659170	305	384	1958
5659498	442	279	2042
5659826	454	289	2134
5660154	774	400	2298
5660482	932	453	2402
5660810	664	449	2314
5661138	558	539	2365
5661466	393	712	2423
5661794	160	498	2369
5662122	199	434	2256
5662450	478	442	2173
5662778	646	432	2065
5663106	684	484	2147
5663434	605	564	2117
5663762	354	675	2125
5664090	252	637	2080
5664418	182	622	2014
5664746	248	639	1834
5665074	363	841	2008
5665402	411	833	2115
5665730	245	811	2060
5666058	495	585	1878
5666386	505	681	1729
5666714	339	799	1636
5667042	129	755	1689
5667370	162	674	1639
5667698	213	604	1518
5668026	272	564	1462
5668354	376	612	1516
5668682	440	544	1511
5669010	486	486	1464
5669338	498	572	1450
5669666	392	619	1386
5669994	419	545	1401
5670322	409	476	1376
5670650	440	470	1343
5670978	425	496	1327
5671306	379	551	1370
5671634	381	455	1446
5671962	544	348	1427
5672290	710	453	1396
5672618	726	450	1395
5672946	650	512	1403
5673274	535	542	1423
5673602	514	469	1403
5673930	540	422	1417
5674258	531	443	1415
5674586	480	421	1410
5674914	322	455	1432
5675242	189	446	1430
5675570	48	445	1391
5675898	99	376	1382
5676226	140	371	1269
5676554	68	336	1152
5676882	17	6	1072
5677210	-128	-267	1035
5677538	-5	-518	856
5677866	129	-750	624
5678194	164	-928	507
5678522	107	-1106	140
5678850	304	-1659	-210
5679178	338	-2339	-954
5679506	515	-2990	-1722
5679834	1867	-2876	-2422
5680162	-60	-1843	-3118
5680490	-935	-1848	-3469
5680818	-2426	-2600	-4438
5681146	-3670	-2862	-5393
5681474	-3764	-2840	-6385
5681802	-3712	-2573	-7221
5682130	-3238	-2756	-7719
5682458	-2999	-2936	-7981
5682786	-2706	-3356	-7637
5683114	-1432	-3034	-6848
5683442	-932	-2257	-6126
5683770	94	-1129	-5634
5684098	-1299	-587	-5529
5684426	-3660	344	-6428
5684754	-4924	659	-7607
5685082	-4255	479	-7207
5685410	-4687	-1187	-5053
5685738	-1526	-2699	-2699
5686066	-1839	-249	-1599
5686394	-2228	953	-318
5686722	-2885	1530	568
5687050	-3887	1326	603
5687378	-3720	585	699
5687706	-2780	667	934
5688034	-1536	561	1122
5688362	-354	207	1346
5688690	48	420	1265
5689018	22	647	987
5689346	-176	662	532
5689674	-243	329	-151
5690002	-229	92	-500
5690330	9	-27	-784
5690658	262	-196	-873
5690986	392	-155	-827
5691314	-903	-599	-529
5691642	-97	-9513	3102
5691970	-428	-2515	6780
5692298	463	4587	6165
5692626	236	4340	5165
5692954	-1188	612	2843
5693282	516	5710	2690
5693610	1169	10114	2399
5693938	1346	4682	1978
5694266	10154	-2983	-911
5694594	7845	9636	-1677
5694922	6232	-19118	5330
5695250	15835	5953	4724
5695578	7651	3523	534
5695906	7041	782	-218
5696234	605	474	680
5696562	-5214	-1858	-1580
5696890	-8540	-25	4
5697218	-10930	2438	-2455
5697546	-6396	-171	-1598
5697874	-2892	279	-1622
5698202	-59	146	-1619
5698530	894	234	-1755
5698858	511	40	-1993
5699186	-645	59	-1591
5699514	-1557	189	-1059
5699842	-1708	-26	-971
5700170	-1192	-257	-1107
5700498	-472	-312	-1376
5700826	136	-323	-1336
5701154	679	-287	-1252
5701482	815	-136	-1217
5701810	670	57	-1128
5702138	451	249	-1010
5702466	118	311	-841
5702794	-161	311	-720
5703122	-411	262	-626
5703450	-429	333	-530
5703778	-414	318	-523
5704106	-390	389	-525
5704434	-356	445	-485
5704762	-621	518	-473
5705090	-1611	662	-460
5705418	-677	421	-462
5705746	-344	331	-442
5706074	12	276	-434
5706402	279	254	-438
5706730	503	362	-388
5707058	221	382	-359
5707386	-22	454	-410
5707714	-363	523	-405
5708042	-541	660	-256
5708370	-650	626	-231
5708698	-698	548	-257
5709026	-544	476	-268
5709354	-321	396	-328
5709682	-112	324	-351
5710010	12	304	-339
5710338	30	271	-317
5710666	-123	309	-281
5710994	-141	293	-255
5711322	0	228	-253
5711650	-179	251	-273
5711978	-138	244	-209
5712306	-24	254	-201
5712634	61	230	-173
5712962	117	215	-151
5713290	189	196	-151
5713618	135	187	-160
5713946	122	181	-127
5714274	51	213	-101
5714602	4	235	-77
5714930	49	227	-12
5715258	46	211	-7
5715586	50	206	29
5715914	53	237	257
5716242	-37	175	51
5716570	-82	210	32
5716898	-165	216	50
5717226	-147	218	67
5717554	-116	208	73
5717882	-58	172	56
5718210	13	148	52
5718538	65	138	50
5718866	57	167	77
5719194	14	185	93
5719522	-62	212	94
5719850	-73	208	101
5720178	-64	195	113
5720506	-21	193	122
5720834	43	180	118
5721162	42	177	123
5721490	31	149	142
5721818	14	86	119
5722146	45	95	115
5722474	42	128	100
5722802	0	117	82
5723130	-62	125	48
5723458	-128	179	33
5723786	-117	183	40
5724114	-61	162	44
5724442	-53	170	1
5724770	-43	178	12
5725098	-14	173	24
5725426	87	98	24
5725754	15	118	-5
5726082	35	123	25
5726410	1	138	9
5726738	-30	152	28
5727066	-39	138	12
5727394	-28	149	25
5727722	-54	174	18
5728050	-38	132	52
5728378	-17	104	48
5728706	-10	111	73
5729034	-22	125	252
5729362	-23	120	154
5729690	-39	90	97
5730018	6	69	89
5730346	21	74	95
5730674	41	67	72
5731002	-23	79	80
5731330	-56	72	89
5731658	-46	75	102
5731986	46	22	82
5732314	171	-8	70
5732642	242	-41	78
5732970	230	-46	69
5733298	123	-58	78
5733626	-14	-55	77
5733954	-122	-72	64
5734282	-184	-63	68
5734610	-207	-79	69
5734938	-245	-92	55
5735266	-246	-104	61
5735594	-193	-142	62
5735922	-182	-170	50
5736250	-192	-179	56
5736578	-267	-150	52
5736906	-376	-157	62
5737234	-390	-158	58
5737562	-388	-168	55
5737890	-350	-177	67
5738218	-303	-196	79
5738546	-250	-218	78
5738874	-234	-235	79
5739202	-234	-265	97
5739530	-237	-284	99
5739858	-283	-293	84
5740186	-325	-273	93
5740514	-401	-251	76
5740842	-409	-277	86
5741170	-359	-280	88
5741498	-281	-317	88
5741826	-207	-363	82
5742154	-196	-384	66
5742482	-243	-375	89
5742810	-327	-364	82
5743138	-391	-387	112
5743466	-440	-363	123
5743794	-444	-381	124
5744122	-456	-368	123
5744450	-480	-352	147
5744778	-515	-314	163
5745106	-493	-328	160
5745434	-490	-327	135
5745762	-496	-333	132
5746090	-474	-334	162
5746418	-467	-380	147
5746746	-464	-375	169
5747074	-463	-388	192
5747402	-394	-425	187
5747730	-326	-456	192
5748058	-271	-495	207
5748386	-166	-558	214
5748714	-125	-564	222
5749042	-141	-537	251
5749370	-166	-504	279
5749698	-268	-451	284
5750026	-380	-408	300
5750354	-418	-386	307
5750682	-392	-373	303
5751010	-403	-376	291
5751338	-409	-380	281
5751666	-433	-360	251
5751994	-477	-332	227
5752322	-506	-356	202
5752650	-572	-348	141
5752978	-603	-371	121
5753306	-529	-380	146
5753634	-486	-368	156
5753962	-390	-408	156
5754290	-333	-405	150
5754618	-322	-407	123
5754946	-338	-386	108
5755274	-321	-403	106
5755602	-341	-424	98
5755930	-343	-460	50
5756258	-306	-461	42
5756586	-296	-446	48
5756914	-316	-459	93
5757242	-343	-441	116
5757570	-387	-429	147
5757898	-385	-402	165
5758226	-405	-343	154
5758554	-414	-308	167
5758882	-487	-263	131
5759210	-556	-252	143
5759538	-636	-237	142
5759866	-623	-188	154
5760194	-524	-196	175
5760522	-419	-208	160
5760850	-308	-260	147
5761178	-212	-277	119
5761506	-174	-293	91
5761834	-107	-284	75
5762162	-82	-250	99
5762490	-124	-221	100
5762818	-153	-213	107
5763146	-202	-182	80
5763474	-229	-143	83
5763802	-271	-104	71
5764130	-324	-55	66
5764458	-359	-40	67
5764786	-437	15	71
5765114	-502	41	76
5765442	-533	57	50
5765770	-499	45	25
5766098	-328	2	49
5766426	-212	-28	63
5766754	-109	-58	43
5767082	-90	-89	22
5767410	-128	-74	30
5767738	-244	6	18
5768066	-334	66	3
5768394	-418	107	13
5768722	-473	153	46
5769050	-500	165	46
5769378	-466	158	42
5769706	-316	57	16
5770034	-234	33	54
5770362	-200	17	51
5770690	-143	10	41
5771018	-92	-12	26
5771346	-62	-7	24
5771674	5	-30	22
5772002	57	-41	11
5772330	35	-29	9
5772658	35	14	25
5772986	-95	86	1
5773314	-238	124	-18
5773642	-247	125	7
5773970	-189	104	6
5774298	-29	8	-16
5774626	130	-10	-22
5774954	242	-53	-16
5775282	248	-84	-24
5775610	228	-82	-29
5775938	158	-74	-25
5776266	114	-14	-21
5776594	86	-9	-29
5776922	33	12	-34
5777250	-68	35	-39
5777578	-146	46	-42
5777906	-193	94	-26
5778234	-181	125	-5
5778562	-87	106	21
5778890	59	21	18
5779218	156	-18	-28
5779546	259	-89	-45
5779874	300	-135	-33
5780202	289	-100	8
5780530	241	-71	55
5780858	28	24	40
5781186	-185	113	20
5781514	-342	194	30
5781842	-405	237	39
5782170	-408	263	52
5782498	-312	232	46
5782826	-131	149	48
5783154	-11	72	45
5783482	97	33	43
5783810	116	18	6
5784138	145	-12	7
5784466	210	-41	38
5784794	242	-43	53
5785122	210	-37	34
5785450	133	-25	6
5785778	39	21	-11
5786106	6	73	8
5786434	-37	95	25
5786762	-30	70	35
5787090	10	34	12
5787418	73	-13	-5
5787746	93	13	-41
5788074	33	13	-43
5788402	-15	22	-31
5788730	-55	65	-13
5789058	-61	79	10
5789386	47	45	42
5789714	20	54	12
5790042	-112	98	-4
5790370	-148	137	-6
5790698	-212	201	18
5791026	-299	245	51
5791354	-326	296	69
5791682	-399	399	65
5792010	-422	404	62
5792338	-374	370	69
5792666	-292	339	94
5792994	-257	326	137
5793322	-215	312	196
5793650	-179	294	288
5793978	-161	276	351
5794306	-142	259	375
5794634	-129	264	332
5794962	-82	107	214
5795290	-115	113	141
5795618	-82	73	67
5795946	62	-43	-14
5796274	112	-61	-63
5796602	-25	-79	-71
5796930	-289	-1	-104
5797258	-557	145	-147
5797586	-587	105	-181
5797914	-401	-7	-218
5798242	-205	-70	-290
5798570	-35	-155	-329
5798898	51	-199	-365
5799226	84	-272	-426
5799554	68	-333	-427
5799882	77	-352	-437
5800210	12	-373	-449
5800538	-57	-383	-433
5800866	-111	-411	-427
5801194	-129	-422	-407
5801522	-75	-433	-351
5801850	-22	-431	-328
5802178	13	-464	-287
5802506	-16	-393	-220
5802834	-27	-358	-197
5803162	-81	-297	-182
5803490	-157	-249	-142
5803818	-160	-210	-113
5804146	-122	-194	-98
5804474	-91	-165	-87
5804802	11	-194	-61
5805130	92	-212	-93
5805458	126	-201	-103
5805786	110	-135	-132
5806114	35	-74	-158
5806442	-66	-14	-188
5806770	-127	32	-179
5807098	-126	56	-182
5807426	-101	97	-186
5807754	-91	135	-172
5808082	-60	150	-164
5808410	-89	189	-151
5808738	-114	204	-106
5809066	-141	254	-46
5809394	-127	281	14
5809722	-165	332	35
5810050	-178	363	57
5810378	-193	390	38
5810706	-156	387	5
5811034	-113	365	-42
5811362	-14	342	-66
5811690	91	283	-100
5812018	150	267	-122
5812346	116	280	-115
5812674	32	339	-100
5813002	-26	380	-26
5813330	2	375	16
5813658	48	338	37
5813986	62	341	35
5814314	-13	348	36
5814642	-126	371	5
5814970	-169	389	-28
5815298	-177	378	-52
5815626	-190	383	-44
5815954	-175	365	-14
5816282	-121	306	25
5816610	-74	240	56
5816938	-12	216	85
5817266	-27	246	84
5817594	-111	235	75
5817922	-241	244	42
5818250	-311	217	9
5818578	-328	187	-15
5818906	-322	195	-8
5819234	-352	165	-11
5819562	-443	174	8
5819890	-417	173	37
5820218	-374	167	62
5820546	-313	130	87
5820874	-248	106	120
5821202	-165	63	148
5821530	-135	43	163
5821858	-96	18	135
5822186	-145	33	84
5822514	-158	32	42
5822842	-188	64	36
5823170	-214	107	18
5823498	-221	129	30
5823826	-215	135	36
5824154	-159	133	37
5824482	-96	144	44
5824810	-48	147	68
5825138	-20	175	47
5825466	-24	210	42
5825794	-54	248	35
5826122	-92	295	31
5826450	-96	309	20
5826778	-85	336	-14
5827106	-70	330	-23
5827434	-54	362	-22
5827762	-36	367	-4
5828090	-21	353	12
5828418	-35	376	14
5828746	-65	386	47
5829074	-85	411	52
5829402	-96	364	67
5829730	-98	373	69
5830058	-90	375	60
5830386	-142	403	53
5830714	-168	389	43
5831042	-161	383	24
5831370	-164	376	-6
5831698	-135	376	-22
5832026	-73	351	-16
5832354	-68	349	-39
5832682	-72	415	-58
5833010	-62	483	-101
5833338	-53	527	-146
5833666	0	581	-196
5833994	69	558	-261
5834322	73	475	-412
5834650	-118	559	-526
5834978	-479	705	-496
5835306	-341	522	-515
5835634	-394	536	-521
5835962	-360	490	-366
5836290	-108	616	-154
5836618	-69	661	-65
5836946	-19	659	36
5837274	36	738	-12
5837602	-45	814	-86
5837930	-140	806	-139
5838258	-365	877	-174
5838586	-507	882	-153
5838914	-548	874	-102
5839242	-468	869	-31
5839570	-429	809	-4
5839898	-332	750	11
5840226	-241	682	-24
5840554	-213	639	-44
5840882	-205	610	-60
5841210	-147	561	-46
5841538	-112	556	-13
5841866	-10	513	14
5842194	79	514	-5
5842522	142	508	-30
5842850	156	511	-71
5843178	152	568	-70
5843506	102	631	-52
5843834	35	696	-59
5844162	-26	732	-108
5844490	-96	754	-169
5844818	-95	738	-187
5845146	-28	692	-171
5845474	77	671	-175
5845802	134	622	-170
5846130	99	642	-170
5846458	-11	643	-191
5846786	-103	675	-206
5847114	-153	710	-214
5847442	-186	735	-227
5847770	-216	773	-218
5848098	-257	783	-251
5848426	-221	749	-281
5848754	-178	709	-289
5849082	-69	680	-276
5849410	1	650	-288
5849738	81	628	-293
5850066	113	630	-316
5850394	174	622	-307
5850722	287	595	-309
5851050	386	572	-326
5851378	454	576	-310
5851706	485	551	-319
5852034	478	545	-328
5852362	445	557	-339
5852690	372	556	-330
