Time Stamp	Low Noise Accelerometer X	Low Noise Accelerometer Y	Low Noise Accelerometer Z
RAW	RAW	RAW	RAW
no units	no units	no units	no units
16536608	2337	1855	1320
16537248	2335	1855	1319
16537888	2335	1853	1318
16538528	2333	1853	1318
16539168	2329	1855	1317
16539808	2329	1858	1317
16540448	2330	1858	1319
16541088	2328	1860	1319
16541728	2329	1862	1319
16542368	2332	1863	1321
16543008	2334	1859	1319
16543648	2335	1858	1320
16544288	2335	1857	1318
16544928	2337	1855	1319
16545568	2336	1853	1318
16546208	2335	1851	1318
16546848	2335	1850	1319
16547488	2334	1849	1319
16548128	2331	1851	1316
16548768	2332	1854	1320
16549408	2332	1858	1315
16550048	2334	1859	1319
16550688	2334	1857	1318
16551328	2333	1857	1318
16551968	2333	1860	1319
16552608	2334	1859	1321
16553248	2336	1858	1319
16553888	2335	1854	1319
16554528	2331	1854	1317
16555168	2335	1855	1321
16555808	2334	1855	1319
16556448	2333	1854	1317
16557088	2333	1854	1316
16557728	2333	1852	1319
16558368	2333	1852	1318
16559008	2335	1853	1318
16559648	2333	1857	1318
16560288	2333	1856	1319
16560928	2336	1854	1318
16561568	2336	1854	1319
16562208	2335	1855	1320
16562848	2336	1855	1321
16563488	2335	1856	1319
16564128	2334	1854	1320
16564768	2334	1856	1318
16565408	2333	1856	1318
16566048	2333	1857	1318
16566688	2330	1857	1319
16567328	2331	1858	1319
16567968	2330	1858	1318
16568608	2333	1856	1319
16569248	2333	1855	1317
16569888	2334	1851	1319
16570528	2334	1852	1318
16571168	2335	1855	1319
16571808	2335	1853	1320
16572448	2336	1854	1320
16573088	2337	1854	1320
16573728	2334	1857	1319
16574368	2333	1855	1319
16575008	2330	1857	1316
16575648	2332	1857	1318
16576288	2331	1854	1319
16576928	2330	1855	1318
16577568	2332	1855	1319
16578208	2329	1856	1318
16578848	2332	1857	1315
16579488	2336	1854	1317
16580128	2334	1854	1319
16580768	2336	1854	1318
16581408	2339	1855	1322
16582048	2343	1856	1322
16582688	2342	1855	1320
16583328	2342	1855	1318
16583968	2346	1853	1319
16584608	2348	1852	1317
16585248	2338	1844	1318
16585888	2330	1844	1320
16586528	2329	1848	1320
16587168	2325	1851	1319
16587808	2322	1851	1316
16588448	2318	1852	1314
16589088	2318	1855	1315
16589728	2319	1860	1314
16590368	2322	1863	1318
16591008	2323	1871	1317
16591648	2329	1873	1323
16592288	2330	1870	1321
16592928	2332	1868	1320
16593568	2329	1865	1317
16594208	2334	1861	1321
16594848	2336	1859	1316
16595488	2339	1854	1320
16596128	2335	1849	1317
16596768	2333	1846	1319
16597408	2331	1840	1317
16598048	2334	1844	1316
16598688	2337	1847	1317
16599328	2337	1849	1315
16599968	2338	1851	1318
16600608	2337	1850	1318
16601248	2333	1853	1320
16601888	2331	1856	1318
16602528	2327	1861	1319
16603168	2323	1858	1320
16603808	2323	1858	1317
16604448	2322	1862	1316
16605088	2326	1863	1317
16605728	2332	1866	1316
16606368	2338	1861	1319
16607008	2343	1860	1319
16607648	2345	1855	1321
16608288	2345	1850	1322
16608928	2343	1841	1319
16609568	2339	1840	1319
16610208	2338	1839	1315
16610848	2335	1842	1316
16611488	2331	1844	1316
16612128	2325	1851	1316
16612768	2321	1855	1318
16613408	2317	1860	1318
16614048	2316	1863	1317
16614688	2319	1865	1317
16615328	2323	1870	1316
16615968	2328	1868	1317
16616608	2332	1868	1319
16617248	2338	1865	1321
16617888	2342	1860	1321
16618528	2343	1857	1321
16619168	2345	1852	1324
16619808	2345	1850	1321
16620448	2343	1844	1317
16621088	2339	1841	1315
16621728	2334	1840	1316
16622368	2333	1841	1312
16623008	2330	1846	1312
16623648	2323	1848	1314
16624288	2326	1856	1319
16624928	2324	1848	1325
16625568	2323	1857	1319
16626208	2328	1861	1325
16626848	2330	1859	1320
16627488	2331	1860	1316
16628128	2332	1859	1315
16628768	2330	1861	1316
16629408	2333	1861	1319
16630048	2329	1860	1320
16630688	2329	1861	1317
16631328	2331	1858	1318
16631968	2330	1848	1311
16632608	2336	1819	1311
16633248	2341	1806	1305
16633888	2345	1810	1310
16634528	2344	1813	1310
16635168	2343	1826	1314
16635808	2340	1836	1321
16636448	2339	1826	1315
16637088	2340	1832	1320
16637728	2339	1825	1313
16638368	2338	1815	1311
16639008	2332	1818	1305
16639648	2333	1823	1307
16640288	2327	1833	1311
16640928	2334	1829	1314
16641568	2321	1830	1309
16642208	2324	1836	1308
16642848	2326	1851	1305
16643488	2321	1862	1309
16644128	2321	1873	1309
16644768	2315	1883	1318
16645408	2314	1861	1321
16646048	2309	1834	1317
16646688	2310	1812	1314
16647328	2308	1803	1302
16647968	2314	1805	1300
16648608	2314	1819	1293
16649248	2316	1835	1294
16649888	2307	1850	1290
16650528	2308	1857	1294
16651168	2303	1865	1294
16651808	2297	1871	1297
16652448	2291	1876	1300
16653088	2282	1879	1307
16653728	2275	1880	1301
16654368	2271	1886	1301
16655008	2272	1878	1291
16655648	2273	1883	1287
16656288	2272	1880	1264
16656928	2275	1884	1262
16657568	2273	1883	1262
16658208	2264	1872	1256
16658848	2273	1857	1269
16659488	2263	1851	1283
16660128	2253	1847	1274
16660768	2265	1862	1277
16661408	2262	1879	1274
16662048	2260	1915	1279
16662688	2239	1934	1272
16663328	2222	1966	1276
16663968	2198	1980	1282
16664608	2176	1980	1328
16665248	2165	1985	1353
16665888	2159	1998	1395
16666528	2189	2002	1348
16667168	2178	2067	1326
16667808	2164	2070	1326
16668448	2182	2046	1300
16669088	2199	1971	1290
16669728	2216	1918	1272
16670368	2235	1882	1281
16671008	2239	1866	1276
16671648	2233	1887	1273
16672288	2221	1895	1282
16672928	2211	1890	1276
16673568	2215	1894	1286
16674208	2202	1880	1283
16674848	2213	1880	1281
16675488	2217	1878	1296
16676128	2213	1876	1282
16676768	2216	1868	1279
16677408	2218	1871	1287
16678048	2222	1871	1273
16678688	2249	1869	1273
16679328	2256	1892	1278
16679968	2270	1893	1264
16680608	2271	1901	1271
16681248	2256	1904	1264
16681888	2258	1904	1264
16682528	2254	1892	1265
16683168	2252	1887	1272
16683808	2252	1883	1255
16684448	2278	1871	1239
16685088	2260	1914	1236
16685728	2239	1895	1247
16686368	2197	1920	1245
16687008	2186	1938	1282
16687648	2184	1963	1313
16688288	2181	2014	1316
16688928	2174	2013	1332
16689568	2191	1999	1355
16690208	2195	2032	1305
16690848	2189	2072	1269
16691488	2282	2098	1120
16692128	2296	1973	1142
16692768	2275	1918	1164
16693408	2245	1966	1253
16694048	2203	2014	1354
16694688	2196	2045	1359
16695328	2186	2050	1327
16695968	2209	2011	1259
16696608	2208	1988	1224
16697248	2180	1961	1221
16697888	2156	1956	1247
16698528	2124	1926	1258
16699168	2097	1930	1260
16699808	2109	2004	1250
16700448	2155	2103	1227
16701088	2167	2100	1236
16701728	2123	2098	1224
16702368	2319	2017	1217
16703008	2262	2034	1245
16703648	2279	2081	1267
16704288	2339	2018	1277
16704928	2378	1978	1262
16705568	2423	1988	1291
16706208	2449	2022	1312
16706848	2461	2018	1336
16707488	2489	2088	1352
16708128	2488	2102	1378
16708768	2505	2130	1381
16709408	2573	2069	1419
16710048	2596	2008	1474
16710688	2567	2042	1453
16711328	2527	2130	1444
16711968	2515	2169	1446
16712608	2514	2163	1453
16713248	2540	2150	1479
16713888	2570	2127	1497
16714528	2607	2119	1534
16715168	2630	2101	1540
16715808	2604	2224	1560
16716448	2727	2130	1675
16717088	2656	2186	1738
16717728	2653	1998	1614
16718368	2694	2123	1648
16719008	2696	2009	1629
16719648	2671	1989	1662
16720288	2666	2052	1698
16720928	2675	2101	1738
16721568	2721	2238	1842
16722208	2738	2210	1863
16722848	2751	2171	1851
16723488	2769	2151	1906
16724128	2797	2116	1961
16724768	2794	2117	1973
16725408	2807	2171	2000
16726048	2755	2183	2011
16726688	2759	2169	1994
16727328	2783	2150	1962
16727968	2740	2156	1974
16728608	2762	2196	1991
16729248	2770	2138	2020
16729888	2757	2194	2005
16730528	2788	2133	2079
16731168	2785	2114	2118
16731808	2785	2201	2130
16732448	2793	2158	2160
16733088	2833	2200	2134
16733728	2812	2217	2153
16734368	2780	2195	2203
16735008	2807	2127	2214
16735648	2772	2089	2241
16736288	2809	2103	2276
16736928	2866	2079	2246
16737568	2896	2020	2199
16738208	2882	2219	2222
16738848	2987	2203	2227
16739488	2950	2259	2136
16740128	2978	2125	2090
16740768	2973	2163	1974
16741408	3051	2135	1837
16742048	3081	1948	1891
16742688	3001	1891	1884
16743328	2981	1903	2004
16743968	2937	2168	2058
16744608	2936	2207	2302
16745248	2905	2350	2552
16745888	2892	2297	2501
16746528	2907	2197	2460
16747168	2894	2131	2460
16747808	2851	2195	2382
16748448	2826	2127	2357
16749088	2821	2128	2291
16749728	2819	2161	2297
16750368	2812	2181	2318
16751008	2778	2126	2324
16751648	2766	2042	2291
16752288	2757	1990	2199
16752928	2718	1984	2117
16753568	2721	1951	2099
16754208	2736	1926	2089
16754848	2738	1895	2094
16755488	2710	1881	2124
16756128	2736	1916	2158
16756768	2722	1938	2165
16757408	2708	1935	2106
16758048	2691	1988	2122
16758688	2747	2015	2085
16759328	2813	1905	2001
16759968	2848	1910	1993
16760608	2929	1898	1919
16761248	2895	2016	1854
16761888	2848	2066	1840
16762528	2855	1986	1864
16763168	2933	1887	1834
16763808	2945	1858	1908
16764448	2962	1941	1979
16765088	2735	1839	1941
16765728	2971	1841	1954
16766368	3075	1835	2061
16767008	2679	1846	2441
16767648	2660	2056	2571
16768288	2820	2103	2445
16768928	2878	2145	2293
16769568	2849	1960	2181
16770208	2829	1939	2095
16770848	2815	2036	2103
16771488	2827	2025	2102
16772128	2813	2027	2086
16772768	2827	2144	2078
16773408	2788	2229	2102
16774048	2790	2282	2156
16774688	2775	2264	2179
16775328	2806	2176	2178
16775968	2837	2074	2192
16776608	2789	2055	2192
32	2822	2044	2199
672	2799	2047	2189
1312	2837	2078	2202
1952	2806	2060	2208
2592	2795	2070	2236
3232	2827	2015	2246
3872	2802	2069	2271
4512	2766	2070	2281
5152	2784	2111	2286
5792	2778	2152	2317
6432	2749	2095	2357
7072	2771	1965	2270
7712	2714	2090	2276
8352	2761	2064	2300
8992	2823	2143	2425
9632	2868	2169	2306
10272	2884	2034	2160
10912	2861	2055	2153
11552	2860	2071	2188
12192	2866	2131	2349
12832	2793	2085	2261
13472	2747	2101	2284
14112	2759	2109	2305
14752	2755	2096	2296
15392	2788	2066	2346
16032	2792	2054	2311
16672	2796	2039	2274
17312	2795	2060	2251
17952	2818	2089	2277
18592	2822	2099	2298
19232	2790	2068	2247
19872	2789	2057	2262
20512	2805	2075	2274
21152	2804	2080	2295
21792	2810	2058	2294
22432	2781	2063	2288
23072	2776	2098	2312
23712	2763	2100	2329
24352	2780	2078	2319
24992	2787	2064	2347
25632	2763	2071	2333
26272	2773	2066	2329
26912	2788	2052	2348
27552	2768	2089	2358
28192	2768	2072	2343
28832	2756	2065	2338
29472	2779	2054	2361
30112	2789	2054	2339
30752	2763	2052	2311
31392	2776	2070	2330
32032	2775	2076	2327
32672	2790	2080	2315
33312	2786	2072	2314
33952	2814	2047	2301
34592	2809	2041	2292
35232	2795	2057	2293
35872	2792	2086	2292
36512	2778	2114	2311
37152	2779	2113	2329
37792	2774	2076	2319
38432	2775	2063	2318
39072	2768	2047	2322
39712	2786	2061	2334
40352	2778	2077	2309
40992	2786	2068	2283
41632	2794	2058	2291
42272	2807	2066	2282
42912	2807	2085	2267
43552	2796	2076	2259
44192	2803	2079	2272
44832	2802	2072	2295
45472	2800	2062	2289
46112	2784	2045	2297
46752	2785	2055	2330
47392	2781	2049	2322
48032	2779	2049	2313
48672	2785	2048	2321
49312	2786	2054	2313
49952	2794	2061	2299
50592	2795	2059	2298
51232	2786	2062	2293
51872	2804	2056	2289
52512	2768	2070	2331
53152	2786	2052	2328
53792	2762	2096	2305
54432	2796	2106	2333
55072	2803	2099	2297
55712	2805	2123	2274
56352	2805	2043	2266
56992	2761	2059	2253
57632	2781	2083	2308
58272	2780	2100	2299
58912	2805	2141	2270
59552	2824	2184	2196
60192	2833	2273	2142
60832	2837	2288	2098
61472	2832	2251	2058
62112	2812	2243	2087
62752	2775	2233	2147
63392	2741	2243	2203
64032	2752	2213	2266
64672	2734	2220	2259
65312	2736	2207	2286
65952	2755	2192	2293
66592	2755	2190	2281
67232	2763	2247	2243
67872	2843	2324	2253
68512	2817	2264	2215
69152	2832	2259	2226
69792	2856	2258	2209
70432	2776	2197	2139
71072	2740	2223	2263
71712	2843	2442	2397
72352	2806	2200	2346
72992	2766	2334	2477
73632	2710	2309	2552
74272	2621	2237	2610
74912	2643	1972	2690
75552	2587	1924	2620
76192	2631	1973	2631
76832	2758	2041	2498
77472	2858	2010	2326
78112	2924	1978	2167
78752	2942	2052	2039
79392	2934	1959	2075
80032	2919	1647	2062
80672	2911	1776	2071
81312	2892	1927	2022
81952	2892	1922	2026
82592	2872	1779	1964
83232	2765	1760	2174
83872	2699	1903	2440
84512	2614	2150	2771
85152	2701	2340	2710
85792	2703	2360	2596
86432	2837	1603	2364
87072	2820	1702	2121
87712	2860	1667	2051
88352	2872	1505	2029
88992	2872	1476	2018
89632	2954	1804	1895
90272	2643	2160	2023
90912	2646	2289	2396
91552	2661	1970	2119
92192	2836	1875	1795
92832	2938	2105	2132
93472	2876	1293	2695
94112	2919	2204	2351
94752	2730	1896	2298
95392	2870	2115	2624
96032	2861	2000	2319
96672	2792	1979	2266
97312	2831	1845	2223
97952	2789	1862	2164
98592	2772	1881	2147
99232	2752	2028	2239
99872	2765	2139	2303
100512	2768	2170	2299
101152	2873	2070	2230
101792	2881	1951	2169
102432	2879	1916	2172
103072	2821	2004	2249
103712	2785	1984	2304
104352	2769	2024	2268
104992	2819	2050	2278
105632	2796	2030	2279
106272	2792	1987	2220
106912	2806	1991	2223
107552	2810	1994	2237
108192	2814	1999	2220
108832	2809	2029	2206
109472	2827	2045	2260
110112	2815	2027	2268
110752	2796	2000	2245
111392	2818	2011	2271
112032	2803	2006	2258
112672	2791	2005	2233
113312	2811	2000	2249
113952	2816	2039	2284
114592	2797	1992	2245
115232	2792	2006	2244
115872	2814	2025	2290
116512	2801	2007	2287
117152	2793	2002	2240
117792	2809	2013	2275
118432	2804	2007	2279
119072	2804	2003	2257
119712	2796	2002	2261
120352	2806	2002	2278
120992	2811	2021	2283
121632	2800	2009	2259
122272	2800	2011	2260
122912	2814	2024	2281
123552	2799	2009	2249
124192	2802	2016	2248
124832	2805	2028	2270
125472	2806	2011	2248
126112	2805	2017	2254
126752	2811	2025	2278
127392	2800	2006	2257
128032	2810	2010	2259
128672	2805	1999	2260
129312	2819	2010	2255
129952	2806	2000	2254
130592	2809	1999	2241
131232	2801	2008	2241
131872	2797	2019	2245
132512	2822	2038	2250
133152	2801	2021	2254
133792	2803	2033	2254
134432	2809	2019	2264
135072	2784	2024	2264
135712	2784	2053	2266
136352	2820	2048	2274
136992	2815	2054	2287
137632	2803	2070	2255
138272	2785	1987	2261
138912	2785	1964	2252
139552	2806	1996	2207
140192	2823	2032	2195
140832	2822	2042	2201
141472	2817	2032	2176
142112	2843	2001	2164
142752	2857	1986	2136
143392	2833	1996	2153
144032	2795	2000	2188
144672	2818	2025	2214
145312	2793	2070	2244
145952	2793	2133	2241
146592	2814	2089	2225
147232	2812	2082	2213
147872	2833	2000	2206
148512	2811	1901	2182
149152	2840	1957	2185
149792	2806	1939	2190
150432	2827	1978	2218
151072	2810	2049	2213
151712	2824	2064	2243
152352	2807	2013	2217
152992	2803	2023	2214
153632	2835	2025	2209
154272	2811	2006	2194
154912	2812	2023	2176
155552	2830	2028	2190
156192	2815	2020	2214
156832	2811	2024	2220
157472	2826	2016	2219
158112	2806	1993	2246
158752	2840	2077	2265
159392	2822	2041	2295
160032	2794	2028	2245
160672	2813	1968	2214
161312	2787	1978	2256
161952	2830	1999	2250
162592	2777	1955	2187
163232	2787	2013	2152
163872	2837	2004	2055
164512	2879	2090	1987
165152	2928	2167	2027
165792	2817	2067	2109
166432	2806	2048	2198
167072	2819	1988	2219
167712	2844	1977	2287
168352	2855	2092	2337
168992	2839	2012	2341
169632	2807	1971	2395
170272	2861	1931	2423
170912	2857	1865	2444
171552	2898	1834	2498
172192	2884	1658	2337
172832	2897	1738	2144
173472	2967	1928	2026
174112	2971	1971	1981
174752	2999	1883	1882
175392	2905	1973	1740
176032	2765	1899	1769
176672	2724	1792	2068
177312	2791	1788	2387
177952	2821	1787	2392
178592	2674	1875	2186
179232	2510	1650	2299
179872	2757	1837	2417
180512	2900	2075	2418
181152	2855	2108	2380
181792	2821	2064	2441
182432	2915	2093	2391
183072	2889	1977	2364
183712	2901	1933	2245
184352	2895	2015	2244
184992	2948	2134	2312
185632	2956	2283	2378
186272	2894	2438	2309
186912	2870	2629	2217
187552	2755	2678	2120
188192	2620	2511	2019
188832	2620	2255	2017
189472	2687	1981	2111
190112	2696	1981	2268
190752	2750	2229	2362
191392	2765	2468	2401
192032	2909	2777	1964
192672	2923	2916	1780
193312	2987	2267	1796
193952	2927	1935	1666
194592	2850	1660	1769
195232	2866	1681	1854
195872	2827	2217	2067
196512	2720	2614	2317
197152	2701	2585	2447
197792	2831	2360	2141
198432	2967	2140	1915
199072	2900	2093	1835
199712	2789	2163	2021
200352	2810	2340	2218
200992	2791	2320	2194
201632	2852	2290	2246
202272	2797	2205	2242
202912	2801	2179	2209
203552	2785	2208	2191
204192	2775	2287	2167
204832	2806	2266	2094
205472	2821	2017	1896
206112	2855	2094	1886
206752	2815	2135	1987
207392	2780	2225	2080
208032	2794	2233	2129
208672	2849	1982	1954
209312	2817	2021	1919
209952	2834	2232	1906
210592	2855	2256	1928
211232	2771	2339	1993
211872	2793	2245	2126
212512	2780	1942	2144
213152	2823	1984	2134
213792	2862	2028	2145
214432	2850	2044	2155
215072	2803	2073	2231
215712	2792	2072	2276
216352	2809	2023	2271
216992	2818	2047	2255
217632	2815	2027	2220
218272	2839	2014	2162
218912	2849	2005	2130
219552	2838	1993	2125
220192	2833	2036	2131
220832	2812	2055	2167
221472	2821	2068	2189
222112	2804	2091	2201
222752	2813	2083	2200
223392	2826	2068	2168
224032	2819	2044	2177
224672	2825	2034	2162
225312	2831	2050	2170
225952	2810	2044	2185
226592	2813	2074	2202
227232	2810	2080	2214
227872	2814	2076	2197
228512	2824	2073	2197
229152	2809	2078	2186
229792	2821	2083	2212
230432	2804	2057	2198
231072	2816	2077	2190
231712	2834	2066	2183
232352	2820	2051	2179
232992	2822	2048	2162
233632	2831	2057	2172
234272	2825	2051	2197
234912	2818	2047	2209
235552	2805	2054	2218
236192	2821	2049	2221
236832	2807	2030	2236
237472	2809	2036	2231
238112	2816	2029	2230
238752	2804	2027	2232
239392	2815	2043	2224
240032	2806	2037	2226
240672	2816	2029	2219
241312	2816	2052	2209
241952	2810	2059	2204
242592	2815	2080	2200
243232	2815	2084	2203
243872	2821	2060	2172
244512	2843	2071	2178
245152	2820	2061	2194
245792	2809	2039	2169
246432	2826	2114	2243
247072	2805	2117	2298
247712	2805	2128	2280
248352	2765	2140	2273
248992	2781	2167	2238
249632	2781	2207	2187
250272	2793	2189	2164
250912	2800	2160	2123
251552	2810	2125	2099
252192	2820	2130	2078
252832	2816	2102	2077
253472	2735	2108	2029
254112	2809	2176	2074
254752	2822	2194	2101
255392	2842	2211	2156
256032	2807	2180	2176
256672	2790	2231	2243
257312	2782	2278	2262
257952	2804	2162	2237
258592	2857	2233	2216
259232	2772	2196	2248
259872	2737	2078	2300
260512	2802	2250	2416
261152	2762	2183	2369
261792	2815	2231	2310
262432	2801	2269	2264
263072	2794	2322	2331
263712	2772	1908	2149
264352	2746	1891	2066
264992	2809	2071	2139
265632	2905	2132	2131
266272	2936	2223	2150
266912	2990	2146	2177
267552	2869	2155	2225
268192	2825	2032	2224
268832	2826	1863	2153
269472	2863	1688	2115
270112	2855	1830	2163
270752	2802	1959	2244
271392	2785	1918	2282
272032	2851	2037	2255
272672	2734	2120	2314
273312	2801	1898	2355
273952	2794	1740	2246
274592	2797	1699	2148
275232	2760	1725	2145
275872	2797	1765	2141
276512	2799	1780	2137
277152	2807	1876	2117
277792	2801	1926	2151
278432	2825	1926	2139
279072	2794	1905	2142
279712	2815	1896	2190
280352	2905	1948	2166
280992	2708	1974	2111
281632	2706	1904	2250
282272	2709	1878	2296
282912	2719	1893	2231
283552	2729	1942	2148
284192	3769	2584	1223
284832	2391	1778	1979
285472	2927	931	2195
286112	2883	2225	2139
286752	2782	2108	2341
287392	2829	2032	2219
288032	2858	2184	2174
288672	2821	2079	2115
289312	2825	2073	2030
289952	2835	2020	2052
290592	2847	1916	2030
291232	2849	1954	2047
291872	2840	2053	2148
292512	2807	2062	2182
293152	2821	2080	2166
293792	2846	2053	2164
294432	2831	2009	2136
295072	2828	2000	2147
295712	2835	2004	2160
296352	2817	2042	2171
296992	2828	2049	2194
297632	2812	2042	2166
298272	2836	2046	2175
298912	2820	1999	2157
299552	2822	2008	2160
300192	2829	2049	2170
300832	2818	2033	2166
301472	2824	2050	2172
302112	2815	2034	2164
302752	2818	2043	2189
303392	2815	2054	2191
304032	2810	2034	2173
304672	2820	2052	2174
305312	2826	2036	2170
305952	2820	2030	2148
306592	2841	2052	2145
307232	2826	2031	2147
307872	2809	2024	2146
308512	2847	2064	2144
309152	2816	2028	2164
309792	2819	2044	2153
310432	2839	2057	2180
311072	2828	2023	2177
311712	2802	2008	2185
312352	2812	2024	2196
312992	2812	2040	2204
313632	2810	2036	2190
314272	2829	2041	2176
314912	2813	2059	2187
315552	2822	2032	2173
316192	2818	2014	2162
316832	2813	2045	2209
317472	2820	2036	2195
318112	2827	2048	2185
318752	2816	2026	2176
319392	2828	2037	2147
320032	2829	2016	2140
320672	2834	2029	2172
321312	2817	2015	2185
321952	2823	2000	2194
322592	2817	1980	2172
323232	2834	2018	2200
323872	2820	1959	2149
324512	2782	2098	2217
325152	2814	2116	2243
325792	2800	2127	2234
326432	2795	2090	2203
327072	2806	2127	2219
327712	2807	2092	2218
328352	2796	2086	2183
328992	2804	2091	2167
329632	2827	2048	2114
330272	2821	2136	2107
330912	2846	2156	2087
331552	2859	2194	2136
332192	2830	2151	2106
332832	2810	2134	2118
333472	2799	2180	2135
334112	2792	2189	2130
334752	2849	2224	2118
335392	2809	2155	2059
336032	2805	2123	1997
336672	2803	2193	1963
337312	2844	2254	1863
337952	2851	2307	1796
338592	2838	2222	1881
339232	2984	2210	1954
339872	3082	2260	1933
340512	3210	2226	1833
341152	3039	2257	1716
341792	2979	2327	1817
342432	2996	2506	2264
343072	2941	2437	2547
343712	2783	2309	2630
344352	2751	2372	2662
344992	2700	2434	2619
345632	2756	2319	2557
346272	2669	2228	2490
346912	2712	2013	2455
347552	2714	1881	2389
348192	2779	1812	2381
348832	2802	1768	2342
349472	2783	1710	2308
350112	2862	1554	2219
350752	2817	1391	2141
351392	2872	1408	2101
352032	2892	1461	2044
352672	2869	1519	2004
353312	2813	1645	1977
353952	2873	1812	2008
354592	2855	1846	1999
355232	2845	1939	1996
355872	2826	2212	1910
356512	2852	2437	1703
357152	2765	2169	1839
357792	2780	1944	2022
358432	2787	2345	2047
359072	2831	2847	2197
359712	3283	1899	2307
360352	3120	1096	1717
360992	2408	1548	1779
361632	2924	1859	2517
362272	2697	2407	2565
362912	2886	1870	2043
363552	2854	1720	1714
364192	2917	2160	2042
364832	2799	2244	2210
365472	2766	2287	2203
366112	2799	2019	2090
366752	2797	2122	2060
367392	2867	2176	2071
368032	2859	2201	2033
368672	2811	2075	2054
369312	2846	2120	2123
369952	2852	1997	2101
370592	2830	1918	2098
371232	2839	2016	2087
371872	2829	2012	2080
372512	2819	2061	2111
373152	2808	2145	2118
373792	2826	2140	2102
374432	2818	2105	2081
375072	2832	2094	2093
375712	2837	2070	2090
376352	2825	2140	2121
376992	2839	2056	2039
377632	2826	2040	2076
378272	2841	2096	2110
378912	2789	2070	2119
379552	2867	2088	2144
380192	2837	2036	2151
380832	2813	2073	2178
381472	2815	2109	2174
382112	2810	2099	2191
382752	2821	2104	2206
383392	2825	2058	2188
384032	2821	2007	2167
384672	2819	1985	2160
385312	2825	2007	2147
385952	2823	2037	2152
386592	2809	2077	2164
387232	2823	2090	2183
387872	2819	2066	2181
388512	2824	2034	2182
389152	2826	2026	2177
389792	2818	2009	2196
390432	2808	2008	2204
391072	2824	2041	2227
391712	2813	2033	2216
392352	2802	2025	2180
392992	2831	2026	2171
393632	2827	2005	2171
394272	2820	2010	2180
394912	2828	2016	2196
395552	2812	2008	2210
396192	2806	2006	2198
396832	2835	2029	2221
397472	2816	2001	2212
398112	2808	1993	2196
398752	2830	2011	2214
399392	2823	1987	2213
400032	2808	1982	2202
400672	2814	2007	2199
401312	2830	2027	2215
401952	2812	2001	2184
402592	2823	2006	2180
403232	2830	2014	2200
403872	2812	1990	2195
404512	2820	1993	2207
405152	2815	2002	2204
405792	2829	2013	2222
406432	2822	1983	2211
407072	2808	1981	2198
407712	2822	2006	2190
408352	2828	2004	2184
408992	2820	2012	2164
409632	2822	2034	2141
410272	2843	2038	2146
410912	2807	1997	2146
411552	2836	1983	2213
412192	2804	1937	2240
412832	2814	1986	2242
413472	2808	1985	2234
414112	2823	2002	2227
414752	2817	2025	2211
415392	2816	2014	2203
416032	2824	2033	2194
416672	2829	1996	2186
417312	2819	1997	2214
417952	2805	2021	2226
418592	2807	2017	2234
419232	2815	2026	2227
419872	2824	2068	2232
420512	2817	2049	2231
421152	2810	2038	2215
421792	2813	2062	2213
422432	2833	2048	2204
423072	2814	2052	2211
423712	2810	2046	2196
424352	2828	2064	2206
424992	2792	2071	2221
425632	2823	2092	2223
426272	2812	2066	2208
426912	2818	2076	2209
427552	2830	2025	2189
428192	2817	2002	2207
428832	2821	1967	2217
429472	2812	2015	2246
430112	2808	2018	2258
430752	2850	1959	2239
431392	2859	2077	2280
432032	2826	2131	2235
432672	2784	2106	2116
433312	2754	2127	2148
433952	2796	2228	2121
434592	2778	2208	2057
435232	2783	2272	2064
435872	2791	2232	2029
436512	2783	2237	1991
437152	2798	2276	2007
437792	2816	2115	2014
438432	2770	2202	2079
439072	2769	2225	2141
439712	2769	2179	2094
440352	2812	2232	2109
440992	2814	2173	2159
441632	2774	2127	2168
442272	2775	2271	2245
442912	2824	2330	2324
443552	2807	2172	2271
444192	2808	2091	2217
444832	2815	2160	2260
445472	2827	2119	2261
446112	2842	2109	2316
446752	2806	2124	2385
447392	2795	2087	2432
448032	2794	1991	2349
448672	2851	1957	2291
449312	2818	1886	2189
449952	2837	1901	2193
450592	2864	1843	2149
451232	2857	1843	2146
451872	2841	1903	2166
452512	2845	2045	2175
453152	2842	2093	2160
453792	2835	2147	2162
454432	2811	2072	2166
455072	2818	2088	2206
455712	2805	2097	2141
456352	2823	2134	2065
456992	2809	2149	1986
457632	2828	2138	1956
458272	2854	2181	2001
458912	2908	2139	2044
459552	2931	2099	2017
460192	3039	2274	1995
460832	3056	2238	1956
461472	2897	2199	1977
462112	2680	2024	1992
462752	2719	1922	2192
463392	2727	1982	2506
464032	2731	2111	2584
464672	2673	2579	2524
465312	2717	2110	2538
465952	2744	1858	2281
466592	2775	1924	2170
467232	2794	1741	2101
467872	2787	1656	1901
468512	2835	1772	1695
469152	2774	1883	1830
469792	2819	1943	1780
470432	2919	1929	1726
471072	2895	1598	2062
471712	3036	1641	2091
472352	2831	2154	2488
472992	2784	1821	2289
473632	2845	2000	2441
474272	2806	2090	2346
474912	2813	1979	2303
475552	2789	1968	2228
476192	2786	1922	2214
476832	2804	1929	2185
477472	2804	1947	2165
478112	2786	1937	2155
478752	2825	2005	2180
479392	2860	2066	2327
480032	2835	2053	2325
480672	2824	2029	2258
481312	2782	2034	2255
481952	2796	2068	2247
482592	2836	2104	2320
483232	2824	2071	2276
483872	2824	2032	2251
484512	2796	2044	2249
485152	2814	2078	2286
485792	2804	2077	2300
486432	2798	2067	2305
487072	2790	2046	2314
487712	2791	2044	2314
488352	2792	2037	2307
488992	2789	2047	2309
489632	2788	2044	2314
490272	2787	2053	2317
490912	2788	2043	2315
491552	2787	2038	2312
492192	2786	2043	2311
492832	2791	2043	2310
493472	2785	2030	2302
494112	2791	2035	2310
494752	2791	2042	2308
495392	2795	2035	2301
496032	2803	2038	2298
496672	2795	2034	2290
497312	2794	2029	2297
497952	2796	2033	2303
498592	2799	2037	2303
499232	2804	2061	2292
499872	2807	2039	2279
500512	2812	2018	2273
501152	2801	2000	2270
501792	2772	1981	2282
502432	2776	2017	2323
503072	2788	2024	2305
503712	2787	2089	2355
504352	2787	2117	2323
504992	2760	2103	2279
505632	2807	2078	2230
506272	2833	2075	2209
506912	2813	2055	2205
507552	2789	1979	2210
508192	2765	1971	2214
508832	2807	2021	2286
509472	2824	2107	2313
510112	2780	2098	2251
510752	2804	2097	2188
511392	2821	2122	2178
512032	2840	2124	2179
512672	2885	2074	2222
513312	2851	2018	2180
513952	2837	1992	2161
514592	2860	1983	2198
515232	2859	2036	2261
515872	2905	2033	2257
516512	2878	1922	2254
517152	2789	1703	2275
517792	2857	1676	2306
518432	2827	1779	2257
519072	2795	1963	2166
519712	2762	2060	2222
520352	2747	1998	2231
520992	2889	1763	2070
521632	2881	1723	1985
522272	2935	1789	1867
522912	2864	2227	1864
523552	2695	1656	2001
524192	2699	1514	1875
524832	2793	1780	2090
525472	2865	2032	2238
526112	2801	2352	2402
526752	2742	2198	2382
527392	2719	2121	2376
528032	2709	2133	2480
528672	2687	2204	2523
529312	2717	2320	2416
529952	2937	2702	1731
530592	2813	2396	2020
531232	2892	1774	1724
531872	3129	1748	1739
532512	2870	2028	1574
533152	2783	2502	2086
533792	2789	2259	2200
534432	2734	2105	2152
535072	2785	2255	2125
535712	2826	2220	2150
536352	2797	2116	2097
536992	2802	2150	2093
537632	2806	2150	2072
538272	2828	2008	2030
538912	2838	2037	2043
539552	2834	2071	2068
540192	2840	2070	2132
540832	2781	2070	2175
541472	2814	2163	2243
542112	2858	2222	2288
542752	2787	2247	2285
543392	2844	2191	2297
544032	2808	2162	2331
544672	2769	2063	2316
545312	2843	2070	2326
545952	2804	2052	2315
546592	2787	1990	2258
547232	2812	2078	2221
547872	2808	2113	2209
548512	2798	2114	2201
549152	2819	2133	2141
549792	2798	2143	2112
550432	2806	2108	2096
551072	2828	2102	2103
551712	2816	2089	2158
552352	2813	2057	2149
552992	2895	2235	2176
553632	2815	2129	2236
554272	2766	2072	2270
554912	2738	2039	2286
555552	2781	2079	2333
556192	2802	2096	2369
556832	2768	2074	2388
557472	2802	2016	2327
558112	2797	1958	2278
558752	2798	2048	2263
559392	2815	2005	2277
560032	2808	2048	2257
560672	2807	2109	2271
561312	2814	2030	2247
561952	2814	2045	2245
562592	2799	2071	2293
563232	2791	2050	2283
563872	2780	2079	2274
564512	2774	2107	2299
565152	2831	2101	2303
565792	2793	2058	2226
566432	2799	2069	2240
567072	2816	2063	2251
567712	2818	2082	2230
568352	2835	2053	2249
568992	2794	2028	2250
569632	2802	2007	2262
570272	2801	2020	2279
570912	2819	2037	2284
571552	2801	2034	2253
572192	2823	2079	2276
572832	2864	2177	2244
573472	2907	2112	2213
574112	2804	2039	2135
574752	2837	1923	2165
575392	2864	1829	2281
576032	2832	1753	2386
576672	2870	1759	2534
577312	2873	1726	2632
577952	2839	1862	2680
578592	2850	1850	2569
579232	2832	1865	2459
579872	2829	1945	2341
580512	2799	2158	2233
581152	2844	2302	1908
581792	2885	2029	1534
582432	2690	1764	1804
583072	2768	1976	2301
583712	2856	1972	2353
584352	2729	2059	1979
584992	2383	1769	2108
585632	2863	1830	2320
586272	3098	1729	2309
586912	2775	1803	2331
587552	2992	1872	2315
588192	3001	1934	2446
588832	3042	1894	2446
589472	2784	2132	2443
590112	2683	2198	2470
590752	2686	2281	2367
591392	2606	2230	2176
592032	2553	2276	2228
592672	2643	2481	2109
593312	2665	2546	2157
593952	2806	2300	1986
594592	2983	2581	1651
595232	2830	1844	1874
595872	3091	2119	1847
596512	3092	2254	1540
597152	2747	2153	2073
597792	2710	2272	2386
598432	2744	2231	2294
599072	2883	2196	2100
599712	2912	2034	1884
600352	2800	1997	1905
600992	2834	2175	2079
601632	2761	2446	2187
602272	2799	2539	2244
602912	2901	2375	2186
603552	2807	2035	2042
604192	2806	1961	1991
604832	2811	1925	1998
605472	2820	2105	2159
606112	2830	2301	2194
606752	2781	2248	2146
607392	2781	2253	2072
608032	2804	2124	1984
608672	2802	2133	1997
609312	2825	2111	1965
609952	2834	2081	1935
610592	2834	2132	1947
611232	2816	2198	1962
611872	2823	2246	1955
612512	2804	2181	1970
613152	2778	2097	2049
613792	2816	2133	2160
614432	2769	2150	2256
615072	2771	2277	2264
615712	2842	2250	2203
616352	2847	2130	2153
616992	2832	2120	2145
617632	2807	2147	2076
618272	2782	2099	2029
618912	2822	1973	1976
619552	2864	1691	1868
620192	2869	1559	1979
620832	2876	1875	2149
621472	2820	2170	2271
622112	2781	2288	2316
622752	2795	2432	2342
623392	2794	2597	2426
624032	2791	2417	2279
624672	2788	1688	2076
625312	2827	2111	2124
625952	2799	2068	2131
626592	2838	2094	2105
627232	2809	2154	2170
627872	2846	2166	2198
628512	2823	2064	2141
629152	2829	2007	2142
629792	2827	1990	2150
630432	2841	1994	2196
631072	2797	2034	2219
631712	2812	2126	2235
632352	2810	2110	2239
632992	2802	2080	2186
633632	2821	2048	2181
634272	2827	2019	2168
634912	2822	2056	2191
635552	2813	2069	2203
636192	2807	2084	2204
636832	2821	2111	2207
637472	2820	2081	2209
638112	2808	2059	2190
638752	2819	2047	2198
639392	2834	2066	2200
640032	2802	2063	2213
640672	2812	2076	2205
641312	2823	2063	2193
641952	2820	2076	2211
642592	2811	2041	2192
643232	2812	2043	2206
643872	2822	2077	2218
644512	2802	2072	2228
645152	2814	2066	2221
645792	2806	2063	2227
646432	2816	2075	2226
647072	2806	2058	2220
647712	2816	2057	2217
648352	2796	2052	2230
648992	2819	2088	2235
649632	2837	2081	2262
650272	2794	2121	2227
650912	2809	2133	2230
651552	2810	2152	2231
652192	2801	2135	2230
652832	2806	2098	2187
653472	2794	2094	2169
654112	2795	2116	2156
654752	2815	2094	2155
655392	2812	2117	2103
656032	2832	2108	2052
656672	2827	2169	2028
657312	2824	2166	1977
657952	2835	2202	1940
658592	2804	2174	1945
659232	2797	2166	1994
659872	2886	2251	2131
660512	2772	2170	2112
661152	2774	2147	2141
661792	2786	2164	2183
662432	2765	2095	2163
663072	2810	2123	2183
663712	2849	2193	2238
664352	2810	2181	2215
664992	2800	2207	2221
665632	2820	2210	2241
666272	2801	2223	2271
666912	2793	2201	2276
667552	2818	2152	2216
668192	2828	2105	2212
668832	2821	2069	2174
669472	2833	2042	2141
670112	2838	1937	2091
670752	2856	1898	2066
671392	2859	1833	2033
672032	2846	1901	2109
672672	2865	1970	2191
673312	2825	2061	2286
673952	2806	2047	2280
674592	2814	2105	2236
675232	2828	2037	2163
675872	2834	1923	2068
676512	2839	1928	2037
677152	2832	2040	2027
677792	2827	2137	2059
678432	2836	2191	2027
679072	2828	2204	1941
679712	2842	2223	1846
680352	2830	2119	1802
680992	2776	1891	1830
681632	2831	2039	2003
682272	2854	2026	2085
682912	2912	2068	2115
683552	2950	2207	2126
684192	2901	2203	2094
684832	2768	2025	2060
685472	2717	2013	2140
686112	2752	2168	2179
686752	2716	2295	2316
687392	2788	2098	2256
688032	2772	1983	2167
688672	2749	1915	2200
689312	2804	1985	2078
689952	2820	1976	1997
690592	2845	1729	1885
691232	2863	1720	1782
691872	2874	1813	1773
692512	2791	1871	1905
693152	2808	1958	2024
693792	2866	2197	1996
694432	2795	1756	2245
695072	2939	1556	2151
695712	2935	2050	2075
696352	2840	1926	2261
696992	2825	2143	2322
697632	2826	2025	2231
698272	2830	1875	2188
698912	2814	1991	2169
699552	2854	2009	2170
700192	2815	1980	2132
700832	2816	2013	2169
701472	2820	2081	2216
702112	2793	2058	2224
702752	2789	2035	2218
703392	2802	2045	2251
704032	2823	2051	2280
704672	2804	2045	2244
705312	2784	2062	2225
705952	2794	2082	2218
706592	2841	2125	2307
707232	2837	2093	2277
707872	2807	2042	2212
708512	2812	2047	2221
709152	2819	2053	2237
709792	2813	2065	2273
710432	2804	2089	2310
711072	2788	2078	2312
711712	2780	2080	2303
712352	2792	2070	2301
712992	2795	2062	2289
713632	2797	2069	2291
714272	2795	2052	2293
714912	2787	2057	2295
715552	2793	2070	2308
716192	2788	2075	2305
716832	2786	2062	2298
717472	2799	2051	2296
718112	2797	2045	2295
718752	2793	2047	2296
719392	2795	2044	2301
720032	2786	2054	2301
720672	2784	2054	2305
721312	2788	2048	2309
721952	2786	2047	2307
722592	2785	2041	2305
723232	2788	2043	2303
723872	2787	2054	2302
724512	2791	2052	2298
725152	2790	2048	2292
725792	2792	2043	2294
726432	2792	2034	2295
727072	2793	2043	2300
727712	2787	2046	2304
728352	2790	2041	2305
728992	2792	2065	2305
729632	2789	2068	2294
730272	2799	2054	2285
730912	2800	2059	2282
731552	2800	2053	2280
732192	2794	2047	2290
732832	2788	2064	2296
733472	2790	2074	2301
734112	2790	2058	2291
734752	2790	2064	2290
735392	2796	2052	2299
736032	2791	2043	2297
736672	2791	2046	2301
737312	2792	2042	2305
737952	2790	2045	2306
738592	2803	2045	2293
739232	2805	2058	2272
739872	2815	2056	2251
740512	2820	2061	2239
741152	2829	2068	2235
741792	2819	2052	2241
742432	2797	2038	2250
743072	2774	2091	2279
743712	2824	2057	2312
744352	2838	2035	2254
744992	2862	2112	2230
745632	2854	2081	2252
746272	2846	2120	2252
746912	2905	2216	2212
747552	2768	1950	2110
748192	2712	1747	2181
748832	2836	1722	2385
749472	2811	1775	2437
750112	2827	1891	2281
750752	2856	1898	2095
751392	2869	1943	1915
752032	2910	1822	1805
752672	2902	1661	1727
753312	2922	1680	1833
753952	2941	1666	1993
754592	2881	1687	2012
755232	2844	1722	1948
755872	2687	2108	2060
756512	2779	2157	2169
757152	2778	1960	2149
757792	2750	1888	2128
758432	2666	1889	2217
759072	2795	2225	2371
759712	2692	2316	2407
760352	2703	2351	2334
760992	2814	2234	2325
761632	2773	2509	2302
762272	2886	2375	2074
762912	2937	2275	1712
763552	2881	2135	1608
764192	3133	2082	1375
764832	2903	1967	1251
765472	2534	2141	1699
766112	2761	2012	1875
766752	2811	1967	1931
767392	2828	1968	1928
768032	2782	1999	1941
768672	2811	2155	1961
769312	2824	2206	1968
769952	2821	2109	1985
770592	2851	2032	2007
771232	2830	1994	2048
771872	2837	1930	2059
772512	2831	1886	2030
773152	2842	1927	1952
773792	2848	1926	1903
774432	2838	1934	1897
775072	2846	1999	2004
775712	2810	2032	2084
776352	2804	2088	2136
776992	2852	2125	2212
777632	2862	2004	2121
778272	2845	1959	2047
778912	2808	1991	1991
779552	2803	2116	1992
780192	2828	2279	2099
780832	2836	2437	2243
781472	2844	2385	2331
782112	2811	2171	2302
782752	2829	2000	2187
783392	2804	1875	2016
784032	2815	2050	1976
784672	2826	2159	1896
785312	2853	2184	1848
785952	2829	2133	1883
786592	2842	2035	1970
787232	2848	1952	2062
787872	2815	1972	2151
788512	2766	2012	2118
789152	2810	2276	2146
789792	2818	2423	2153
790432	2817	2331	2164
791072	2795	2302	2169
791712	2851	1943	2089
792352	2806	1820	2036
792992	2850	1850	2064
793632	2840	1950	2098
794272	2843	2142	2206
794912	2835	2198	2204
795552	2796	2053	2138
796192	2818	2089	2179
796832	2812	2097	2170
797472	2802	2076	2171
798112	2824	2016	2157
798752	2814	2022	2133
799392	2821	2087	2162
800032	2806	2139	2141
800672	2808	2118	2149
801312	2808	2151	2142
801952	2833	2086	2160
802592	2809	2005	2151
803232	2822	1962	2144
803872	2830	2012	2168
804512	2839	2019	2141
805152	2830	2006	2126
805792	2847	2008	2118
806432	2843	1977	2142
807072	2835	1969	2165
807712	2838	1972	2202
808352	2809	2006	2229
808992	2809	2033	2219
809632	2811	2052	2191
810272	2821	2064	2192
810912	2824	2050	2185
811552	2807	2040	2164
812192	2824	2044	2176
812832	2812	2047	2172
813472	2819	2059	2179
814112	2812	2049	2174
814752	2819	2052	2181
815392	2830	2046	2191
816032	2817	2032	2201
816672	2809	2022	2203
817312	2825	2028	2211
817952	2820	2042	2237
818592	2814	2043	2245
819232	2800	2026	2240
819872	2794	2026	2240
820512	2803	2035	2243
821152	2806	2062	2282
821792	2802	2052	2271
822432	2791	2042	2255
823072	2783	2030	2240
823712	2796	2032	2229
824352	2812	2036	2244
824992	2831	2043	2264
825632	2807	2037	2239
826272	2795	2042	2239
826912	2802	2041	2246
827552	2801	2050	2252
828192	2813	2049	2268
828832	2805	2036	2249
829472	2794	2041	2244
830112	2794	2038	2243
830752	2813	2049	2268
831392	2812	2050	2267
832032	2812	2052	2257
832672	2799	2036	2247
833312	2803	2039	2254
833952	2813	2065	2297
834592	2821	2051	2287
835232	2800	2033	2236
835872	2795	2044	2253
836512	2801	2064	2262
837152	2810	2059	2249
837792	2810	2056	2251
838432	2810	2047	2266
839072	2804	2041	2260
839712	2807	2048	2258
840352	2800	2039	2259
840992	2800	2051	2262
841632	2808	2071	2258
842272	2814	2063	2246
842912	2812	2059	2234
843552	2811	2053	2238
844192	2810	2043	2241
844832	2802	2044	2250
845472	2796	2051	2265
846112	2791	2060	2276
846752	2788	2063	2283
847392	2795	2066	2287
848032	2782	2065	2279
848672	2787	2067	2284
849312	2796	2057	2282
849952	2793	2058	2272
850592	2799	2060	2274
851232	2802	2068	2259
851872	2817	2069	2249
852512	2811	2072	2241
853152	2810	2070	2238
853792	2809	2067	2251
854432	2805	2069	2255
855072	2806	2070	2253
855712	2815	2058	2254
856352	2810	2068	2252
856992	2810	2061	2262
857632	2809	2002	2255
858272	2799	2008	2262
858912	2787	2111	2295
859552	2788	2088	2324
860192	2811	2030	2371
860832	2772	2097	2319
861472	2807	2169	2330
862112	2770	2130	2317
862752	2727	2141	2334
863392	2754	2094	2367
864032	2789	2016	2286
864672	2778	2097	2250
865312	2827	2099	2184
865952	2825	2077	2074
866592	2861	2170	1979
867232	2914	2172	1964
867872	2908	2151	1928
868512	2857	2140	1934
869152	2747	2042	1961
869792	2807	2029	2045
870432	2793	2183	2145
871072	2793	2243	2249
871712	2770	2288	2342
872352	2781	2124	2368
872992	2803	2065	2372
873632	2790	2099	2375
874272	2801	2070	2387
874912	2821	2067	2343
875552	2829	2084	2300
876192	2833	2055	2255
876832	2835	2075	2263
877472	2806	2017	2201
878112	2839	2025	2151
878752	2836	1985	2082
879392	2857	1905	2033
880032	2819	1816	1970
880672	2853	1992	2031
881312	2857	2129	2091
881952	2848	2173	2074
882592	2841	2129	2038
883232	2817	2022	1941
883872	2850	1920	1871
884512	2893	1894	1884
885152	2916	1994	1890
885792	2929	2116	1937
886432	2943	2162	1937
887072	2971	1986	1925
887712	2932	2109	1916
888352	2817	2080	1957
888992	2744	2019	1994
889632	2760	1975	2121
890272	2771	1982	2186
890912	2735	2278	2149
891552	2725	2230	2227
892192	2772	2111	2192
892832	2767	2158	2171
893472	2747	2191	2135
894112	2798	2122	2096
894752	2808	2063	2053
895392	2806	1987	2024
896032	2815	2008	1944
896672	2826	2153	1951
897312	2794	2062	2026
897952	2912	1933	2006
898592	3003	1791	1868
899232	2985	1876	1537
899872	2192	1281	1975
900512	3084	1293	2379
901152	2944	1988	2087
901792	2915	1885	2157
902432	2921	1965	2160
903072	2859	2242	2210
903712	2768	2224	2170
904352	2842	1995	2044
904992	2800	1883	2001
905632	2851	1920	2026
906272	2828	2024	2048
906912	2842	2089	2078
907552	2822	2121	2107
908192	2817	2198	2109
908832	2811	2190	2093
909472	2867	2053	2030
910112	2836	2017	2070
910752	2847	2053	2103
911392	2824	2028	2118
912032	2833	2069	2146
912672	2830	2095	2128
913312	2841	2047	2096
913952	2850	2015	2097
914592	2850	1982	2111
915232	2813	2002	2144
915872	2824	2060	2175
916512	2822	2071	2176
917152	2819	2060	2130
917792	2844	2045	2119
918432	2835	2003	2108
919072	2835	2015	2096
919712	2828	2037	2097
920352	2854	2086	2102
920992	2807	2085	2143
921632	2810	2039	2128
922272	2816	2034	2093
922912	2811	2098	2210
923552	2793	1999	2144
924192	2809	2059	2168
924832	2820	2022	2165
925472	2785	2067	2180
926112	2787	2131	2139
926752	2827	2125	2165
927392	2823	2089	2136
928032	2819	2078	2126
928672	2804	2044	2166
929312	2828	1955	2130
929952	2790	1992	2095
930592	2846	2095	2061
931232	2827	2114	2078
931872	2844	2142	2030
932512	2858	2200	2046
933152	2820	2142	2102
933792	2826	2118	2113
934432	2808	2143	2143
935072	2811	2096	2153
935712	2817	2123	2147
936352	2816	2078	2092
936992	2804	2170	2120
937632	2807	2120	2105
938272	2821	2120	2105
938912	2815	2191	2138
939552	2797	2134	2137
940192	2824	2123	2184
940832	2822	1996	2127
941472	2846	2101	2157
942112	2800	2113	2111
942752	2809	2164	2147
943392	2823	2250	2195
944032	2835	2217	2287
944672	2784	2126	2284
945312	2820	2157	2297
945952	2844	2130	2304
946592	2788	2034	2240
947232	2841	1935	2215
947872	2823	1904	2175
948512	2807	1903	2149
949152	2811	1832	2095
949792	2846	1875	2063
950432	2877	1956	2078
951072	2884	2188	2081
951712	2924	2207	2085
952352	2947	2137	2006
952992	3016	2062	1920
953632	2962	2128	1839
954272	2906	2204	1757
954912	2878	2237	1763
955552	2868	2230	1868
956192	2816	2224	2068
956832	2827	2207	2282
957472	2812	2234	2442
958112	2825	2128	2577
958752	2739	2319	2477
959392	2745	2264	2503
960032	2799	1799	2451
960672	2728	1792	2367
961312	2734	1778	2327
961952	2748	1773	2322
962592	2699	1631	2238
963232	2857	1469	2031
963872	2768	1682	1755
964512	2808	1899	1723
965152	2904	2204	1489
965792	2985	2048	1271
966432	2518	1348	2125
967072	3230	1690	2190
967712	2872	1672	2166
968352	2896	2011	2463
968992	2807	1869	2352
969632	2872	2174	2280
970272	2842	2180	2204
970912	2841	1966	2091
971552	2785	1952	1993
972192	2830	2000	2039
972832	2853	2099	2077
973472	2862	2100	2096
974112	2826	2119	2132
974752	2847	2152	2195
975392	2826	2101	2214
976032	2804	2076	2217
976672	2799	2050	2257
977312	2801	1959	2251
977952	2815	2020	2263
978592	2819	2012	2255
979232	2805	2035	2229
979872	2820	2031	2210
980512	2835	2067	2240
981152	2802	2046	2223
981792	2793	2033	2207
982432	2817	2055	2208
983072	2831	2080	2219
983712	2800	2045	2191
984352	2816	2050	2184
984992	2848	2054	2216
985632	2823	2025	2198
986272	2798	2005	2198
986912	2812	2020	2206
987552	2834	2082	2272
988192	2788	2053	2227
988832	2788	2054	2218
989472	2807	2041	2221
990112	2825	2043	2238
990752	2816	2014	2212
991392	2809	2032	2235
992032	2796	2010	2223
992672	2821	2033	2230
993312	2824	2053	2275
993952	2787	2033	2259
994592	2783	2024	2248
995232	2787	2020	2244
995872	2822	2050	2286
996512	2804	2025	2251
997152	2787	2034	2248
997792	2792	2025	2254
998432	2808	2028	2260
999072	2808	2042	2265
999712	2793	2034	2248
1000352	2788	2039	2255
1000992	2792	2055	2267
1001632	2816	2082	2321
1002272	2802	2062	2280
1002912	2792	2056	2274
1003552	2789	2068	2271
1004192	2796	2077	2271
1004832	2802	2082	2286
1005472	2806	2088	2283
1006112	2807	2063	2275
1006752	2804	2056	2276
1007392	2802	2071	2283
1008032	2790	2065	2292
1008672	2789	2075	2308
1009312	2781	2067	2315
1009952	2782	2071	2315
1010592	2782	2064	2316
1011232	2784	2067	2312
1011872	2790	2060	2304
1012512	2794	2057	2291
1013152	2800	2071	2287
1013792	2800	2072	2286
1014432	2797	2074	2284
1015072	2795	2075	2289
1015712	2797	2077	2294
1016352	2789	2079	2296
1016992	2785	2072	2311
1017632	2781	2077	2317
1018272	2778	2078	2320
1018912	2780	2080	2323
1019552	2781	2069	2321
1020192	2782	2059	2318
1020832	2777	2051	2321
1021472	2775	2061	2334
1022112	2770	2064	2339
1022752	2756	2072	2337
1023392	2770	2070	2336
1024032	2792	2055	2313
1024672	2790	2073	2287
1025312	2799	2064	2274
1025952	2809	2064	2261
1026592	2804	2076	2271
1027232	2821	2074	2252
1027872	2830	2080	2240
1028512	2829	2062	2225
1029152	2797	2049	2239
1029792	2808	2049	2263
1030432	2808	2069	2272
1031072	2832	2178	2290
1031712	2799	2145	2259
1032352	2772	2160	2273
1032992	2762	2092	2288
1033632	2772	2126	2326
1034272	2778	2104	2332
1034912	2782	2081	2336
1035552	2806	2105	2345
1036192	2819	2133	2342
1036832	2791	2105	2283
1037472	2814	2100	2319
1038112	2809	2104	2292
1038752	2811	2055	2261
1039392	2808	2043	2235
1040032	2819	2022	2252
1040672	2788	2042	2264
1041312	2789	2049	2272
1041952	2828	2148	2241
1042592	2834	2116	2159
1043232	2834	2043	2107
1043872	2855	2045	2147
1044512	2847	1984	2194
1045152	2785	1989	2221
1045792	2832	1908	2119
1046432	2885	1757	1945
1047072	2954	1583	1853
1047712	2930	1599	1864
1048352	2879	1668	2002
1048992	2946	1863	2119
1049632	2859	1963	2222
1050272	2736	2042	2302
1050912	2732	1985	2199
1051552	2713	1952	2192
1052192	2710	1991	2204
1052832	2749	2075	2226
1053472	2839	2075	2242
1054112	2835	2006	2198
1054752	2768	1957	2146
1055392	2774	1923	2108
1056032	2871	1956	2054
1056672	2831	2068	2024
1057312	2833	2206	2085
1057952	2833	2230	2122
1058592	2765	2173	2218
1059232	2633	2151	2268
1059872	2725	2326	2471
1060512	2782	2261	2553
1061152	2833	2132	2407
1061792	3232	2697	1503
1062432	3101	2641	1650
1063072	3102	1363	1418
1063712	2961	1135	1302
1064352	2620	2258	2050
1064992	2684	2010	2270
1065632	2952	1958	2247
1066272	2806	2339	2227
1066912	2859	2417	2283
1067552	2775	2211	1988
1068192	2834	2083	1837
1068832	2817	2068	1821
1069472	2810	2075	1934
1070112	2821	2087	2026
1070752	2803	2147	2063
1071392	2855	2122	2085
1072032	2835	2057	2068
1072672	2848	2163	2088
1073312	2837	2289	2199
1073952	2824	2256	2256
1074592	2807	2001	2204
1075232	2823	1990	2189
1075872	2796	1935	2168
1076512	2828	2003	2126
1077152	2827	2045	2082
1077792	2837	2002	2023
1078432	2827	2078	2065
1079072	2830	2151	2110
1079712	2830	2111	2160
1080352	2825	2118	2170
1080992	2808	2084	2212
1081632	2804	2030	2187
1082272	2824	1973	2082
1082912	2837	1939	2009
1083552	2866	2190	2113
1084192	2816	2156	2176
1084832	2796	2078	2197
1085472	2824	2168	2226
1086112	2810	2068	2194
1086752	2786	1972	2148
1087392	2798	2084	2193
1088032	2814	2095	2208
1088672	2796	2021	2147
1089312	2817	2110	2135
1089952	2840	2101	2110
1090592	2840	2050	2099
1091232	2825	2089	2159
1091872	2798	2111	2152
1092512	2816	2092	2157
1093152	2832	2080	2175
1093792	2810	2047	2133
1094432	2821	2026	2140
1095072	2832	2034	2154
1095712	2806	2042	2149
1096352	2815	2040	2160
1096992	2825	2061	2174
1097632	2824	2049	2183
1098272	2807	2026	2165
1098912	2816	2028	2171
1099552	2816	2045	2181
1100192	2804	2031	2167
1100832	2829	2037	2178
1101472	2821	2028	2181
1102112	2821	2032	2202
1102752	2815	2053	2200
1103392	2808	2047	2193
1104032	2846	2070	2209
1104672	2820	2033	2172
1105312	2820	2041	2164
1105952	2839	2071	2223
1106592	2815	2051	2191
1107232	2802	2049	2180
1107872	2824	2068	2201
1108512	2820	2083	2227
1109152	2809	2027	2184
1109792	2812	2053	2209
1110432	2819	2046	2218
1111072	2805	2034	2200
1111712	2820	2033	2212
1112352	2825	2053	2230
1112992	2813	2049	2218
1113632	2804	2019	2192
1114272	2805	2036	2196
1114912	2842	2058	2212
1115552	2816	2040	2189
1116192	2814	2056	2179
1116832	2819	2065	2180
1117472	2846	2087	2187
1118112	2823	2054	2160
1118752	2827	2037	2158
1119392	2822	2026	2168
1120032	2826	2029	2188
1120672	2815	2028	2200
1121312	2816	2025	2197
1121952	2835	2025	2211
1122592	2824	2010	2193
1123232	2825	1991	2204
1123872	2860	1957	2197
1124512	2852	1913	2186
1125152	2838	1946	2208
1125792	2847	1905	2192
1126432	2842	1927	2183
1127072	2839	1948	2172
1127712	2814	1946	2118
1128352	2836	1888	2055
1128992	2906	1870	2014
1129632	2888	1831	2045
1130272	2864	1816	2132
1130912	2860	1819	2150
1131552	2781	1779	2153
1132192	2728	1819	2167
1132832	2715	1901	2194
1133472	2764	1894	2246
1134112	2820	1879	2260
1134752	2813	1890	2228
1135392	2823	1958	2209
1136032	2792	1941	2172
1136672	2848	1905	2152
1137312	2828	1916	2141
1137952	2849	1986	2131
1138592	2805	2048	2115
1139232	2877	2203	2139
1139872	2814	2218	2126
1140512	2796	2152	2113
1141152	2772	2140	2117
1141792	2738	2241	2203
1142432	2788	2216	2239
1143072	2827	2074	2305
1143712	2895	2169	2075
1144352	2918	2436	1779
1144992	2856	2014	1969
1145632	3016	1829	1781
1146272	2886	1576	1821
1146912	2879	1694	1852
1147552	2883	2169	1920
1148192	2789	2299	2132
1148832	2840	2015	2139
1149472	2832	1914	2090
1150112	2863	2048	2130
1150752	2789	2056	2147
1151392	2831	1871	2080
1152032	2797	1905	2028
1152672	2834	1961	2023
1153312	2855	2030	2083
1153952	2794	2166	2181
1154592	2835	2203	2258
1155232	2842	2079	2241
1155872	2808	2013	2192
1156512	2823	2015	2147
1157152	2804	2097	2195
1157792	2824	2163	2293
1158432	2824	2229	2296
1159072	2820	2191	2294
1159712	2801	2067	2244
1160352	2813	1990	2180
1160992	2789	2021	2139
1161632	2827	1995	2110
1162272	2839	2045	2172
1162912	2836	2083	2193
1163552	2817	2130	2185
1164192	2783	2186	2203
1164832	2809	2170	2210
1165472	2792	2143	2204
1166112	2809	2004	2141
1166752	2813	1938	2095
1167392	2818	1951	2073
1168032	2827	2110	2169
1168672	2781	2265	2264
1169312	2775	2454	2351
1169952	2780	2381	2337
1170592	2779	2171	2236
1171232	2745	2076	2172
1171872	2832	1996	2184
1172512	2818	2026	2229
1173152	2789	2063	2292
1173792	2823	2050	2301
1174432	2792	2069	2253
1175072	2812	2084	2245
1175712	2811	2095	2234
1176352	2815	2113	2245
1176992	2810	2083	2242
1177632	2785	2099	2252
1178272	2784	2120	2282
1178912	2785	2098	2274
1179552	2816	2094	2283
1180192	2796	2090	2294
1180832	2780	2081	2302
1181472	2786	2074	2306
1182112	2785	2066	2315
1182752	2789	2054	2309
1183392	2784	2040	2302
1184032	2804	2037	2294
1184672	2806	2042	2292
1185312	2803	2064	2277
1185952	2803	2073	2276
1186592	2795	2090	2285
1187232	2785	2107	2284
1187872	2795	2072	2287
1188512	2794	2060	2288
1189152	2790	2061	2291
1189792	2789	2063	2285
1190432	2784	2084	2286
1191072	2790	2080	2283
1191712	2790	2089	2285
1192352	2788	2072	2288
1192992	2793	2075	2294
1193632	2792	2079	2291
1194272	2797	2083	2282
1194912	2792	2075	2278
1195552	2800	2087	2295
1196192	2795	2079	2286
1196832	2793	2089	2284
1197472	2793	2085	2280
1198112	2787	2104	2277
1198752	2782	2112	2277
1199392	2796	2086	2261
1200032	2814	2082	2238
1200672	2814	2095	2231
1201312	2807	2097	2250
1201952	2794	2077	2267
1202592	2776	2057	2295
1203232	2765	2056	2347
1203872	2755	2067	2395
1204512	2752	1980	2372
1205152	2747	2011	2360
1205792	2766	1999	2356
1206432	2785	2165	2353
1207072	2792	2099	2349
1207712	2761	2112	2293
1208352	2795	2106	2318
1208992	2814	2030	2281
1209632	2782	2085	2260
1210272	2793	2063	2273
1210912	2779	2099	2292
1211552	2772	2112	2288
1212192	2783	2128	2273
1212832	2792	2094	2241
1213472	2808	2118	2226
1214112	2826	2094	2202
1214752	2849	2069	2173
1215392	2845	2069	2165
1216032	2856	2086	2174
1216672	2829	2119	2214
1217312	2824	2148	2278
1217952	2796	2192	2301
1218592	2795	2163	2296
1219232	2789	2125	2279
1219872	2777	2121	2271
1220512	2778	2076	2308
1221152	2762	2041	2309
1221792	2757	2144	2364
1222432	2764	2189	2405
1223072	2764	2161	2388
1223712	2753	2123	2363
1224352	2773	2067	2356
1224992	2794	2123	2326
1225632	2813	2094	2303
1226272	2816	2075	2256
1226912	2827	2055	2219
1227552	2809	2039	2203
1228192	2815	2022	2201
1228832	2816	2078	2209
1229472	2841	2156	2227
1230112	2826	2184	2235
1230752	2820	2169	2197
1231392	2834	2188	2130
1232032	2848	1970	1993
1232672	2864	1983	1896
1233312	2947	1980	1876
1233952	2947	2003	1881
1234592	2929	2012	1976
1235232	2913	2000	2114
1235872	2909	2016	2135
1236512	2819	1991	2162
1237152	2779	1980	2352
1237792	2815	2085	2393
1238432	2681	2372	2415
1239072	2787	2060	2384
1239712	2742	1925	2333
1240352	2741	1932	2298
1240992	2779	1921	2263
1241632	2791	1884	2235
1242272	2792	1732	2211
1242912	2886	1702	2068
1243552	2814	1911	1948
1244192	2819	1968	1901
1244832	3033	2081	1536
1245472	2660	2110	1454
1246112	2795	1585	2475
1246752	2741	1024	2157
1247392	3011	2020	2072
1248032	2825	1961	2171
1248672	2897	1875	2149
1249312	2845	2178	2143
1249952	2808	2193	2160
1250592	2830	2061	2090
1251232	2826	1926	2042
1251872	2822	1936	2065
1252512	2842	1995	2113
1253152	2848	2044	2118
1253792	2839	2081	2152
1254432	2827	2114	2169
1255072	2826	2063	2158
1255712	2813	2000	2154
1256352	2833	1973	2145
1256992	2836	1951	2136
1257632	2833	1990	2164
1258272	2823	2050	2174
1258912	2837	2095	2196
1259552	2820	2046	2165
1260192	2814	2029	2142
1260832	2827	2006	2143
1261472	2828	1988	2159
1262112	2819	1990	2172
1262752	2818	2026	2201
1263392	2816	2040	2200
1264032	2815	2035	2204
1264672	2808	2019	2184
1265312	2821	2021	2194
1265952	2815	2012	2199
1266592	2810	2014	2200
1267232	2802	2008	2196
1267872	2810	2031	2197
1268512	2818	2035	2191
1269152	2815	2037	2194
1269792	2804	2008	2169
1270432	2806	2033	2168
1271072	2842	2047	2215
1271712	2827	2032	2190
1272352	2796	2015	2161
1272992	2803	2030	2166
1273632	2789	2000	2126
1274272	2820	2033	2107
1274912	2914	2092	2218
1275552	2952	2114	2220
1276192	2899	2063	1963
1276832	2883	2117	1892
1277472	2916	2176	1841
1278112	2950	2256	1787
1278752	2939	2282	1755
1279392	2950	2435	1694
1280032	2889	2307	1738
1280672	3020	2150	1949
1281312	3084	2403	2060
1281952	3200	2579	2150
1282592	3042	2619	2393
1283232	2879	2306	2514
1283872	2844	2134	2565
1284512	2753	2147	2556
1285152	2717	2205	2549
1285792	2758	1989	2480
1286432	2700	1950	2421
1287072	2736	1846	2414
1287712	2741	1829	2395
1288352	2747	1792	2381
1288992	2771	1744	2340
1289632	2760	1635	2312
1290272	2763	1556	2228
1290912	2771	1492	2130
1291552	2827	1577	2002
1292192	2892	1748	1912
1292832	2963	1793	1855
1293472	2970	1939	1696
1294112	2950	1963	1704
1294752	2787	1940	1736
1295392	2904	2355	1754
1296032	3080	2352	2171
1296672	2998	1220	1899
1297312	2718	1824	1844
1297952	2809	1719	2171
1298592	2761	2143	2350
1299232	2872	2283	2290
1299872	2816	1956	1914
1300512	2879	1840	1794
1301152	2900	2026	1926
1301792	2816	2123	2026
1302432	2768	1980	2042
1303072	2755	1993	2037
1303712	2878	2046	2026
1304352	2819	2092	2104
1304992	2819	2201	2107
1305632	2797	2230	2087
1306272	2785	2365	2121
1306912	2867	2372	2138
1307552	2796	2255	2011
1308192	2786	2155	1954
1308832	2818	2166	1996
1309472	2834	2141	1988
1310112	2819	2008	1941
1310752	2832	2030	2034
1311392	2813	2078	2064
1312032	2804	2101	2156
1312672	2808	2115	2151
1313312	2825	2097	2141
1313952	2833	2141	2172
1314592	2802	2099	2145
1315232	2815	2007	2168
1315872	2834	1955	2173
1316512	2844	1966	2175
1317152	2855	2014	2177
1317792	2845	1992	2153
1318432	2832	1940	2114
1319072	2840	1894	2160
1319712	2827	1902	2167
1320352	2843	1953	2181
1320992	2835	1993	2158
1321632	2820	1982	2134
1322272	2837	1997	2144
1322912	2819	1990	2160
1323552	2820	1996	2169
1324192	2838	1967	2177
1324832	2822	1944	2169
1325472	2829	1943	2173
1326112	2828	1985	2162
1326752	2839	1992	2164
1327392	2824	1980	2158
1328032	2819	1958	2135
1328672	2833	1998	2157
1329312	2819	2004	2168
1329952	2821	1995	2181
1330592	2815	2015	2193
1331232	2800	2006	2198
1331872	2813	2021	2196
1332512	2817	2031	2189
1333152	2823	2016	2179
1333792	2817	2016	2160
1334432	2825	2011	2148
1335072	2835	2008	2154
1335712	2832	2003	2160
1336352	2830	1984	2174
1336992	2813	1990	2169
1337632	2818	1980	2184
1338272	2828	1990	2200
1338912	2820	1980	2215
1339552	2808	1952	2191
1340192	2825	1978	2190
1340832	2832	1977	2210
1341472	2807	1948	2184
1342112	2807	1957	2184
1342752	2840	1972	2221
1343392	2831	1977	2226
1344032	2807	1962	2204
1344672	2802	1959	2201
1345312	2814	1980	2203
1345952	2829	1994	2232
1346592	2809	1967	2205
1347232	2799	1976	2209
1347872	2801	1968	2216
1348512	2820	2005	2250
1349152	2822	2002	2256
1349792	2804	1998	2231
1350432	2798	2004	2221
1351072	2810	1999	2216
1351712	2808	2003	2223
1352352	2816	1999	2245
1352992	2820	2003	2258
1353632	2812	1971	2255
1354272	2806	2003	2249
1354912	2810	2008	2252
1355552	2809	2002	2254
1356192	2804	2005	2263
1356832	2803	2001	2272
1357472	2799	2003	2279
1358112	2798	1990	2280
1358752	2803	1973	2278
1359392	2800	1982	2276
1360032	2799	1979	2278
1360672	2805	1982	2281
1361312	2801	1980	2275
1361952	2802	1989	2271
1362592	2801	1992	2271
1363232	2805	1999	2266
1363872	2805	1994	2264
1364512	2809	1987	2254
1365152	2812	1982	2250
1365792	2808	1967	2256
1366432	2803	1976	2260
1367072	2801	1965	2268
1367712	2794	1964	2270
1368352	2792	1966	2278
1368992	2793	1972	2287
1369632	2798	1971	2286
1370272	2792	1974	2277
1370912	2798	1971	2270
1371552	2804	1971	2267
1372192	2806	1972	2259
1372832	2812	1959	2247
1373472	2812	1964	2242
1374112	2820	1964	2234
1374752	2814	1964	2239
1375392	2810	1970	2245
1376032	2808	1967	2250
1376672	2803	1964	2255
1377312	2802	1974	2257
1377952	2803	1956	2268
1378592	2797	1962	2260
1379232	2793	1974	2264
1379872	2814	1971	2272
1380512	2804	1968	2256
1381152	2801	1972	2254
1381792	2814	1962	2252
1382432	2807	1943	2245
1383072	2806	1939	2246
1383712	2806	1936	2248
1384352	2806	1932	2256
1384992	2797	1942	2258
1385632	2802	1943	2261
1386272	2803	1939	2260
1386912	2800	1937	2258
1387552	2798	1936	2259
1388192	2817	1933	2265
1388832	2801	1930	2250
1389472	2798	1932	2259
1390112	2788	1947	2268
1390752	2789	1971	2289
1391392	2799	1949	2263
1392032	2819	1932	2227
1392672	2826	2006	2275
1393312	2795	2027	2313
1393952	2808	2073	2281
1394592	2793	2068	2220
1395232	2786	1995	2178
1395872	2778	1983	2190
1396512	2830	1981	2181
1397152	2838	1961	2219
1397792	2824	1929	2220
1398432	2792	1911	2213
1399072	2790	1947	2231
1399712	2795	1899	2256
1400352	2785	1935	2299
1400992	2792	1916	2310
1401632	2791	1915	2295
1402272	2789	1926	2296
1402912	2804	1929	2285
1403552	2814	1935	2268
1404192	2813	1904	2257
1404832	2792	1891	2256
1405472	2806	1896	2277
1406112	2796	1929	2271
1406752	2809	1947	2251
1407392	2832	1952	2231
1408032	2825	1937	2210
1408672	2826	1925	2229
1409312	2803	1912	2259
1409952	2814	1909	2264
1410592	2789	1896	2268
1411232	2811	1921	2275
1411872	2809	1976	2277
1412512	2796	1973	2253
1413152	2793	1989	2232
1413792	2801	1977	2192
1414432	2809	1989	2149
1415072	2824	1974	2078
1415712	2832	1984	1995
1416352	2862	2025	1937
1416992	2875	2022	1904
1417632	2881	2018	1892
1418272	2908	2095	1871
1418912	2937	2134	1867
1419552	3031	2038	1795
1420192	2999	2239	1705
1420832	2970	2330	1698
1421472	3055	2340	1758
1422112	3069	2356	1885
1422752	3132	2350	2182
1423392	3064	2280	2453
1424032	2871	2060	2530
1424672	2869	2159	2599
1425312	2812	2281	2580
1425952	2672	2458	2496
1426592	2921	1985	2471
1427232	2798	1672	2412
1427872	2670	1635	2402
1428512	2668	1841	2379
1429152	2606	1971	2390
1429792	2754	1875	2432
1430432	2725	1614	2408
1431072	2791	1789	2214
1431712	2769	1773	1922
1432352	2862	1897	1797
1432992	3014	1799	1613
1433632	2926	1481	1246
1434272	2668	1661	1198
1434912	2924	1625	2231
1435552	3106	1774	2194
1436192	2750	1980	2002
1436832	2778	1983	2095
1437472	2841	2124	2211
1438112	2817	2404	2217
1438752	2797	2287	2031
1439392	2776	2051	1908
1440032	2838	2043	1925
1440672	2809	2024	1951
1441312	2854	2068	1995
1441952	2836	2076	2013
1442592	2808	2144	2033
1443232	2801	2197	2008
1443872	2812	2198	2025
1444512	2819	2218	2008
1445152	2824	2160	2007
1445792	2844	2126	2048
1446432	2822	2043	2059
1447072	2816	1977	2067
1447712	2852	1956	2054
1448352	2825	1949	2083
1448992	2809	2030	2116
1449632	2841	2070	2118
1450272	2828	2062	2114
1450912	2781	2136	2182
1451552	2826	2149	2208
1452192	2800	2097	2195
1452832	2778	2082	2212
1453472	2792	2080	2163
1454112	2858	2149	2234
1454752	2867	2107	2285
1455392	2786	1997	2201
1456032	2781	2048	2206
1456672	2804	2037	2217
1457312	2821	2093	2272
1457952	2850	2087	2358
1458592	2818	2058	2293
1459232	2798	1999	2263
1459872	2793	1997	2267
1460512	2793	2020	2313
1461152	2814	2009	2352
1461792	2780	2030	2292
1462432	2780	2027	2293
1463072	2778	2094	2300
1463712	2798	2124	2321
1464352	2792	2073	2302
1464992	2789	2092	2284
1465632	2801	2099	2289
1466272	2797	2071	2284
1466912	2794	2052	2281
1467552	2796	2018	2287
1468192	2792	2032	2300
1468832	2788	2039	2307
1469472	2785	2046	2305
1470112	2780	2025	2307
1470752	2778	2047	2308
1471392	2761	2000	2304
1472032	2746	2074	2308
1472672	2758	2146	2322
1473312	2780	2180	2317
1473952	2805	2105	2261
1474592	2788	2162	2227
1475232	2789	2125	2245
1475872	2800	2114	2274
1476512	2815	2132	2316
1477152	2784	2125	2340
1477792	2749	2160	2389
1478432	2763	2089	2438
1479072	2758	2081	2432
1479712	2743	2066	2453
1480352	2758	2002	2369
1480992	2803	1974	2312
1481632	2849	1985	2307
1482272	2859	2023	2318
1482912	2778	1823	2209
1483552	2761	1753	2200
1484192	2802	1934	2383
1484832	2765	1893	2405
1485472	2763	1916	2357
1486112	2808	1984	2343
1486752	2807	1986	2330
1487392	2794	2038	2312
1488032	2802	2007	2286
1488672	2811	2028	2260
1489312	2780	2004	2225
1489952	2801	2065	2204
1490592	2816	2089	2169
1491232	2820	2085	2124
1491872	2837	2106	2092
1492512	2912	2166	2123
1493152	2891	2126	2045
1493792	2815	2091	2048
1494432	2818	2112	2068
1495072	2779	2090	2105
1495712	2852	2047	2099
1496352	2808	2022	2152
1496992	2841	1985	2192
1497632	2886	2037	2190
1498272	2909	2108	2099
1498912	2986	2001	1934
1499552	2942	2195	1932
1500192	2859	1975	1812
1500832	2881	1936	1953
1501472	2949	1975	2019
1502112	2951	2070	1991
1502752	2926	2168	2013
1503392	2912	2267	2072
1504032	2902	2329	2153
1504672	2871	2164	2220
1505312	2793	2052	2297
1505952	2894	2176	2350
1506592	2747	2400	2307
1507232	2810	2191	2359
1507872	2794	1854	2332
1508512	2745	1975	2275
1509152	2748	2059	2276
1509792	2722	2076	2334
1510432	2762	1947	2295
1511072	2762	1935	2235
1511712	2725	1761	2086
1512352	2833	1850	2027
1512992	2926	1648	1907
1513632	2838	1440	1764
1514272	2926	1648	1907
1514912	2809	1789	1632
1515552	2803	1931	1638
1516192	2798	2161	1749
1516832	2896	2012	2060
1517472	3006	1815	1886
1518112	2792	1691	1694
1518752	2722	1936	2322
1519392	2924	2416	2489
1520032	2745	2180	2077
1520672	2843	1967	1975
1521312	2862	2096	1871
1521952	2802	2107	1863
1522592	2797	2111	1902
1523232	2827	2094	1941
1523872	2813	2097	1974
1524512	2829	2130	2028
1525152	2818	2141	2019
1525792	2830	2069	2020
1526432	2833	2015	2013
1527072	2828	2033	2010
1527712	2833	2071	2044
1528352	2823	2072	2103
1528992	2819	2061	2086
1529632	2830	2087	2094
1530272	2818	2078	2097
1530912	2825	2088	2118
1531552	2835	2084	2144
1532192	2800	2063	2198
1532832	2821	2051	2204
1533472	2833	2043	2204
1534112	2790	2021	2183
1534752	2818	1994	2181
1535392	2834	1991	2201
1536032	2839	1972	2224
1536672	2814	2051	2264
1537312	2802	2016	2222
1537952	2764	2008	2186
1538592	2808	2094	2212
1539232	2861	2138	2316
1539872	2834	2102	2258
1540512	2833	2039	2232
1541152	2835	2015	2187
1541792	2822	1995	2167
1542432	2823	2034	2209
1543072	2821	2057	2295
1543712	2795	2067	2316
1544352	2773	2063	2321
1544992	2769	2037	2313
1545632	2779	2062	2311
1546272	2791	2049	2318
1546912	2797	2039	2313
1547552	2794	2016	2284
1548192	2802	2037	2281
1548832	2810	2039	2283
1549472	2806	2047	2267
1550112	2808	2062	2269
1550752	2803	2034	2281
1551392	2788	2013	2308
1552032	2786	2013	2323
1552672	2774	2027	2325
1553312	2784	2032	2328
1553952	2786	2017	2308
1554592	2789	2026	2307
1555232	2796	2014	2304
1555872	2802	2005	2297
1556512	2791	1996	2280
1557152	2807	2051	2277
1557792	2807	2021	2272
1558432	2804	2075	2273
1559072	2783	2019	2287
1559712	2790	2001	2303
1560352	2775	2046	2324
1560992	2792	2169	2362
1561632	2803	2093	2335
1562272	2768	2099	2301
1562912	2817	2029	2296
1563552	2803	2016	2282
1564192	2826	2053	2306
1564832	2832	2015	2283
1565472	2792	2064	2255
1566112	2819	2082	2283
1566752	2836	2075	2274
1567392	2845	2111	2231
1568032	2767	1987	2173
1568672	2796	2105	2208
1569312	2797	2078	2201
1569952	2791	2085	2136
1570592	2835	2021	2078
1571232	2849	1963	2095
1571872	2856	1955	2139
1572512	2843	1821	2160
1573152	2834	1753	2177
1573792	2899	1754	2176
1574432	2877	1721	2095
1575072	2888	1763	1998
1575712	2839	1910	1958
1576352	2886	1789	1894
1576992	2860	1652	1858
1577632	2880	1556	1904
1578272	2903	1596	1927
1578912	2912	1705	1900
1579552	2771	1708	2013
1580192	2757	2087	2294
1580832	2863	2183	2233
1581472	2854	1989	2133
1582112	2784	1927	2143
1582752	2730	2099	2157
1583392	2712	2229	2178
1584032	2751	2214	2189
1584672	2761	2153	2169
1585312	2759	2078	2099
1585952	2720	2084	2067
1586592	2711	2092	2113
1587232	2741	2193	2193
1587872	2735	2412	2260
1588512	2895	2372	2269
1589152	3076	2344	1956
1589792	3394	2321	1107
1590432	2831	2243	845
1591072	2805	1373	1335
1591712	2706	2094	1766
1592352	2675	1991	1961
1592992	2764	2010	2062
1593632	2814	2152	2139
1594272	2784	2064	2101
1594912	2835	2204	2039
1595552	2838	2352	1906
1596192	2868	2296	1929
1596832	2814	2056	1910
1597472	2834	1997	1959
1598112	2828	1939	1960
1598752	2818	1852	1956
1599392	2858	1907	1955
1600032	2825	2017	1949
1600672	2773	2057	1955
1601312	2841	1992	2026
1601952	2756	1875	2036
1602592	2755	1896	2112
1603232	2831	2035	2141
1603872	2847	2186	2109
1604512	2799	2065	2042
1605152	2745	1925	2062
1605792	2777	1771	2082
1606432	2875	1878	2149
1607072	2977	2121	2148
1607712	2975	2101	1971
1608352	2958	2088	1963
1608992	2796	2015	2008
1609632	2752	2085	2180
1610272	2789	2286	2117
1610912	2871	2176	1921
1611552	2857	2110	1949
1612192	2876	2194	2061
1612832	2847	2141	2102
1613472	2806	2105	2129
1614112	2797	1960	2040
1614752	2819	2030	1999
1615392	2838	2131	2001
1616032	2784	2141	2029
1616672	2802	2140	1975
1617312	2806	2110	2010
1617952	2841	2170	2055
1618592	2813	2002	1975
1619232	2841	2074	2028
1619872	2804	2167	2101
1620512	2793	2305	2112
1621152	2924	2367	2116
1621792	2788	2250	2132
1622432	2763	2064	2067
1623072	2844	2001	2048
1623712	2853	1978	2134
1624352	2824	1964	2192
1624992	2808	2000	2240
1625632	2819	2016	2209
1626272	2834	2029	2143
1626912	2860	2077	2094
1627552	2820	2014	2087
1628192	2818	2011	2127
1628832	2811	2043	2176
1629472	2806	2031	2186
1630112	2822	2068	2180
1630752	2818	2029	2142
1631392	2821	2031	2118
1632032	2834	2040	2106
1632672	2837	2036	2113
1633312	2825	2012	2112
1633952	2825	2032	2123
1634592	2832	2021	2143
1635232	2835	2040	2151
1635872	2815	2051	2144
1636512	2828	2064	2129
1637152	2841	2058	2141
1637792	2815	2032	2134
1638432	2823	2063	2141
1639072	2846	2056	2142
1639712	2816	2028	2142
1640352	2815	2043	2160
1640992	2828	2046	2130
1641632	2829	2048	2139
1642272	2832	2046	2136
1642912	2820	2046	2152
1643552	2831	2039	2155
1644192	2822	2027	2148
1644832	2830	2051	2131
1645472	2828	2054	2151
1646112	2811	2052	2146
1646752	2837	2071	2142
1647392	2827	2051	2152
1648032	2815	2033	2145
1648672	2831	2054	2128
1649312	2835	2043	2117
1649952	2816	2038	2112
1650592	2839	2045	2104
1651232	2820	2051	2103
1651872	2820	2044	2106
1652512	2835	2035	2105
1653152	2828	2018	2106
1653792	2826	2011	2119
1654432	2827	2007	2124
1655072	2837	2020	2115
1655712	2831	2028	2131
1656352	2825	2032	2118
1656992	2830	2031	2108
1657632	2822	2018	2106
1658272	2834	2015	2096
1658912	2831	2012	2097
1659552	2828	2025	2097
1660192	2823	2037	2088
1660832	2826	2044	2097
1661472	2825	2050	2093
1662112	2822	2051	2091
1662752	2835	2038	2083
1663392	2822	2036	2087
1664032	2820	2051	2084
1664672	2834	2056	2060
1665312	2829	2045	2056
1665952	2836	2087	2091
1666592	2823	2085	2091
1667232	2838	2046	2097
1667872	2833	2015	2111
1668512	2845	1974	2114
1669152	2832	1955	2127
1669792	2847	1977	2124
1670432	2852	1990	2113
1671072	2849	2014	2096
1671712	2832	2023	2059
1672352	2830	2024	2078
1672992	2835	2032	2084
1673632	2846	2013	2085
1674272	2851	1972	2138
1674912	2856	1963	2162
1675552	2874	1951	2169
1676192	2888	1892	2161
1676832	2867	1911	2147
1677472	2844	1930	2091
1678112	2858	1806	1988
1678752	2862	1633	1892
1679392	2893	1560	1786
1680032	2838	1678	1870
1680672	2841	1793	2022
1681312	2818	1897	2154
1681952	2814	1895	2224
1682592	2765	1833	2241
1683232	2753	1849	2224
1683872	2762	1884	2208
1684512	2796	1914	2217
1685152	2864	1945	2220
1685792	2863	1980	2212
1686432	2818	2014	2212
1687072	2773	2061	2246
1687712	2870	1999	2194
1688352	2847	1951	2133
1688992	2854	2047	2069
1689632	2808	2188	2014
1690272	2796	2246	2009
1690912	2818	2230	1991
1691552	2815	2246	2013
1692192	2835	2291	1972
1692832	2826	2254	2149
1693472	2840	2165	2184
1694112	2896	2269	1762
1694752	2801	2274	1945
1695392	3003	1984	1819
1696032	2765	1320	1817
1696672	2860	1432	1867
1697312	3064	2283	1816
1697952	2817	2405	1982
1698592	2738	2079	1961
1699232	2833	1823	1957
1699872	2861	1841	2007
1700512	2838	1944	2101
1701152	2807	2018	2108
1701792	2834	2136	2125
1702432	2815	2159	2087
1703072	2810	2173	2094
1703712	2839	2237	2099
1704352	2852	2253	2126
1704992	2812	2184	2059
1705632	2870	2182	2060
1706272	2800	2019	2095
1706912	2809	2016	2122
1707552	2822	2026	2121
1708192	2838	2047	2136
1708832	2828	2056	2121
1709472	2844	2060	2089
1710112	2826	2096	2067
1710752	2825	2092	2053
1711392	2826	2125	2046
1712032	2822	2175	2046
1712672	2807	2072	2006
1713312	2835	2071	2050
1713952	2809	1993	2054
1714592	2848	2145	2125
1715232	2776	2000	2066
1715872	2859	2136	2109
1716512	2823	2356	2196
1717152	2803	2157	2157
1717792	2809	1991	2088
1718432	2770	1907	2055
1719072	2842	1946	2107
1719712	2809	2012	2118
1720352	2811	2086	2188
1720992	2809	2103	2205
1721632	2836	2072	2211
1722272	2814	2004	2180
1722912	2829	1985	2184
1723552	2797	2009	2202
1724192	2811	2077	2273
1724832	2869	2047	2226
1725472	2784	1958	2192
1726112	2778	1992	2183
1726752	2787	2051	2191
1727392	2862	2097	2318
1728032	2844	2049	2288
1728672	2796	2010	2214
1729312	2790	2010	2230
1729952	2808	2030	2226
1730592	2804	2055	2242
1731232	2814	2060	2275
1731872	2817	2033	2264
1732512	2797	2045	2263
1733152	2798	2042	2271
1733792	2804	2041	2262
1734432	2804	2046	2262
1735072	2806	2044	2259
1735712	2801	2043	2262
1736352	2810	2043	2261
1736992	2803	2043	2256
1737632	2796	2050	2264
1738272	2806	2037	2269
1738912	2794	2041	2272
1739552	2792	2050	2281
1740192	2797	2036	2280
1740832	2800	2035	2278
1741472	2798	2042	2273
1742112	2798	2036	2274
1742752	2802	2035	2273
1743392	2804	2040	2270
1744032	2805	2038	2264
1744672	2812	2038	2261
1745312	2807	2046	2253
1745952	2806	2041	2254
1746592	2811	2044	2255
1747232	2808	2041	2258
1747872	2803	2046	2265
1748512	2801	2037	2263
1749152	2796	2041	2268
1749792	2803	2029	2271
1750432	2792	2028	2273
1751072	2794	2033	2278
1751712	2796	2033	2275
1752352	2794	2033	2272
1752992	2801	2030	2270
1753632	2799	2024	2267
1754272	2804	2027	2266
1754912	2806	2032	2264
1755552	2800	2031	2259
1756192	2803	2032	2261
1756832	2798	2027	2266
1757472	2801	2034	2268
1758112	2797	2028	2274
1758752	2800	2029	2275
1759392	2802	2035	2272
1760032	2813	2023	2261
1760672	2805	2030	2249
1761312	2808	2038	2262
1761952	2804	2043	2259
1762592	2803	2045	2266
1763232	2810	2037	2269
1763872	2806	2052	2268
1764512	2805	2042	2270
1765152	2809	2034	2260
1765792	2807	2038	2261
1766432	2813	2028	2252
1767072	2804	2032	2250
1767712	2807	2038	2254
1768352	2799	2045	2262
1768992	2801	2040	2265
1769632	2803	2033	2265
1770272	2803	2042	2263
1770912	2825	2043	2248
1771552	2820	2050	2236
1772192	2828	2071	2227
1772832	2842	1988	2203
1773472	2830	1955	2194
1774112	2836	1986	2233
1774752	2855	1964	2238
1775392	2849	1942	2241
1776032	2881	1898	2249
1776672	2867	1853	2259
1777312	2833	1900	2299
1777952	2826	1957	2312
1778592	2816	2017	2275
1779232	2819	2006	2192
1779872	2805	1848	2116
1780512	2814	1850	2025
1781152	2840	1952	2002
1781792	2820	1823	2117
1782432	2808	1774	2073
1783072	2810	1829	2065
1783712	2768	1792	2085
1784352	2777	1799	2065
1784992	2771	1886	2106
1785632	2810	1898	2145
1786272	2850	1908	2140
1786912	2852	1836	2038
1787552	2765	1837	2002
1788192	2742	2031	2136
1788832	2846	2304	2198
1789472	2872	2250	2150
1790112	2850	2084	2118
1790752	2793	2130	2067
1791392	2742	2255	2092
1792032	2758	2303	2141
1792672	2803	2282	2129
1793312	2870	2161	2232
1793952	2829	1994	2186
1794592	2875	2072	1791
1795232	2798	2180	1891
1795872	2994	1905	1793
1796512	2978	1871	1778
1797152	2730	1236	1738
1797792	2974	1807	1800
1798432	2836	2403	2001
1799072	2846	2305	2119
1799712	2838	2061	2054
1800352	2837	1923	2030
1800992	2826	1920	2025
1801632	2847	1880	2045
1802272	2786	1845	2026
1802912	2808	1916	2027
1803552	2865	2021	2082
1804192	2865	2073	2177
1804832	2819	2140	2163
1805472	2843	2084	2119
1806112	2845	2042	2119
1806752	2827	2045	2115
1807392	2831	2144	2129
1808032	2841	2165	2109
1808672	2854	2191	2148
1809312	2806	2077	2127
1809952	2811	2023	2102
1810592	2831	2032	2110
1811232	2826	2006	2122
1811872	2820	1984	2118
1812512	2827	2031	2103
1813152	2824	2062	2069
1813792	2818	2062	2075
1814432	2832	2079	2051
1815072	2849	2058	2035
1815712	2830	2055	2050
1816352	2823	2027	2061
1816992	2822	2070	2126
1817632	2795	1951	2160
1818272	2815	1982	2188
1818912	2842	2055	2183
1819552	2857	2236	2261
1820192	2796	2128	2152
1820832	2781	2056	2111
1821472	2829	2039	2175
1822112	2832	1999	2227
1822752	2813	2004	2257
1823392	2792	2032	2281
1824032	2782	2045	2246
1824672	2807	2091	2253
1825312	2808	2076	2256
1825952	2813	2013	2240
1826592	2814	1998	2247
1827232	2799	2030	2270
1827872	2796	2094	2285
1828512	2793	2115	2277
1829152	2798	2130	2264
1829792	2803	2084	2255
1830432	2808	2060	2258
1831072	2819	2046	2271
1831712	2805	2031	2269
1832352	2796	2037	2269
1832992	2794	2067	2274
1833632	2797	2084	2269
1834272	2798	2076	2259
1834912	2801	2064	2255
1835552	2809	2054	2256
1836192	2802	2060	2259
1836832	2794	2081	2270
1837472	2795	2082	2275
1838112	2811	2071	2262
1838752	2804	2058	2252
1839392	2804	2051	2259
1840032	2799	2041	2267
1840672	2804	2050	2275
1841312	2793	2055	2275
1841952	2798	2066	2275
1842592	2796	2057	2272
1843232	2795	2058	2274
1843872	2798	2058	2275
1844512	2794	2051	2269
1845152	2796	2060	2272
1845792	2793	2058	2275
1846432	2795	2060	2275
1847072	2800	2057	2275
1847712	2794	2059	2267
1848352	2805	2051	2263
1848992	2808	2051	2257
1849632	2802	2066	2256
1850272	2804	2066	2262
1850912	2802	2062	2267
1851552	2794	2064	2269
1852192	2804	2060	2270
1852832	2803	2055	2260
1853472	2805	2066	2258
1854112	2805	2078	2251
1854752	2807	2067	2245
1855392	2808	2063	2247
1856032	2797	2073	2247
1856672	2794	2074	2253
1857312	2795	2061	2259
1857952	2791	2061	2271
1858592	2787	2052	2284
1859232	2786	2046	2295
1859872	2791	2053	2297
1860512	2791	2054	2287
1861152	2794	2065	2279
1861792	2801	2053	2268
1862432	2800	2014	2255
1863072	2804	2022	2264
1863712	2793	2054	2284
1864352	2769	1946	2269
1864992	2769	2062	2291
1865632	2798	2031	2285
1866272	2779	2159	2260
1866912	2795	2169	2299
1867552	2771	2110	2334
1868192	2747	2088	2376
1868832	2756	2151	2380
1869472	2774	2198	2297
1870112	2831	2141	2191
1870752	2843	2120	2155
1871392	2863	2065	2148
1872032	2845	2087	2152
1872672	2849	2036	2148
1873312	2831	2065	2142
1873952	2841	2039	2194
1874592	2809	2101	2225
1875232	2816	2157	2281
1875872	2802	2148	2292
1876512	2784	2137	2334
1877152	2782	2106	2329
1877792	2815	2043	2331
1878432	2804	2064	2303
1879072	2805	2104	2279
1879712	2828	2179	2269
1880352	2907	2200	2221
1880992	2747	2173	2193
1881632	2734	1980	2132
1882272	2790	1948	2200
1882912	2804	2057	2240
1883552	2821	2087	2211
1884192	2804	2003	2159
1884832	2808	1993	2145
1885472	2838	2106	2237
1886112	2844	2105	2270
1886752	2812	2082	2244
1887392	2815	2129	2154
1888032	2823	1905	2001
1888672	2909	2036	1966
1889312	2921	2155	1927
1889952	2930	1982	1900
1890592	2945	1997	1911
1891232	2861	1981	1928
1891872	2854	1913	1991
1892512	2839	1937	2085
1893152	2752	1927	2125
1893792	2744	1899	2296
1894432	2810	2000	2322
1895072	2776	2166	2317
1895712	2758	1978	2278
1896352	2776	1893	2239
1896992	2784	1929	2124
1897632	2783	1891	2120
1898272	2835	1838	2078
1898912	2812	1841	1918
1899552	2797	1941	1792
1900192	2810	1977	1789
1900832	3003	1998	1460
1901472	2719	2092	1621
1902112	2855	1343	2154
1902752	2872	1559	2058
1903392	2848	2053	2217
1904032	2787	1897	2200
1904672	2901	2020	2204
1905312	2843	2102	2117
1905952	2832	2050	2063
1906592	2808	1937	1997
1907232	2801	1919	1970
1907872	2823	1939	1977
1908512	2839	1955	2037
1909152	2834	2019	2115
1909792	2851	2064	2190
1910432	2849	2083	2205
1911072	2816	2044	2212
1911712	2789	2017	2232
1912352	2789	1996	2242
1912992	2815	1959	2263
1913632	2818	1983	2286
1914272	2816	1992	2262
1914912	2811	1980	2240
1915552	2813	1989	2237
1916192	2818	2010	2239
1916832	2821	2008	2235
1917472	2823	2014	2236
1918112	2825	2007	2237
1918752	2820	2016	2231
1919392	2824	2027	2235
1920032	2818	2027	2231
1920672	2814	2022	2236
1921312	2814	2024	2252
1921952	2800	2019	2265
1922592	2801	2022	2280
1923232	2793	2016	2292
1923872	2790	2014	2289
1924512	2793	2021	2286
1925152	2798	2020	2282
1925792	2805	2015	2273
1926432	2799	2004	2274
1927072	2792	2017	2283
1927712	2793	2015	2290
1928352	2801	2020	2291
1928992	2801	2020	2281
1929632	2804	2015	2272
1930272	2800	2012	2270
1930912	2802	2004	2275
1931552	2800	2007	2283
1932192	2793	2007	2283
1932832	2793	2004	2294
1933472	2797	2019	2297
1934112	2791	2009	2289
1934752	2793	2002	2282
1935392	2796	1998	2281
1936032	2799	2003	2281
1936672	2796	2017	2283
1937312	2799	2028	2287
1937952	2795	2018	2280
1938592	2792	2017	2287
1939232	2791	2012	2299
1939872	2792	2015	2304
1940512	2789	2014	2297
1941152	2789	2025	2291
1941792	2799	2034	2286
1942432	2806	2026	2274
1943072	2802	2025	2268
1943712	2803	2026	2280
1944352	2799	2024	2285
1944992	2795	2031	2290
1945632	2793	2036	2297
1946272	2792	2028	2292
1946912	2795	2030	2295
1947552	2791	2027	2294
1948192	2790	2028	2292
1948832	2803	1974	2285
1949472	2795	2036	2282
1950112	2805	2002	2293
1950752	2793	2019	2278
1951392	2807	2061	2294
1952032	2813	2033	2284
1952672	2807	2046	2270
1953312	2792	2058	2293
1953952	2779	2065	2318
1954592	2759	2115	2317
1955232	2757	2176	2346
1955872	2764	2153	2346
1956512	2758	2119	2329
1957152	2743	2165	2317
1957792	2764	2106	2348
1958432	2769	2052	2301
1959072	2792	2037	2244
1959712	2827	2003	2221
1960352	2848	2005	2163
1960992	2832	2074	2128
1961632	2862	2057	2164
1962272	2859	2139	2146
1962912	2871	2129	2147
1963552	2848	2083	2148
1964192	2836	2024	2174
1964832	2798	2028	2224
1965472	2777	2022	2271
1966112	2776	2039	2316
1966752	2799	2053	2356
1967392	2791	2095	2358
1968032	2780	2141	2373
1968672	2768	2112	2364
1969312	2788	2057	2341
1969952	2793	1954	2278
1970592	2800	1899	2253
1971232	2808	1918	2225
1971872	2827	1932	2217
1972512	2827	1958	2222
1973152	2821	2001	2233
1973792	2809	2049	2231
1974432	2800	2067	2243
1975072	2808	2078	2243
1975712	2813	2072	2208
1976352	2821	2048	2149
1976992	2845	2042	2088
1977632	2842	2014	2041
1978272	2844	2014	2007
1978912	2860	2018	1996
1979552	2859	2088	1956
1980192	2872	2131	1944
1980832	2880	2128	1875
1981472	2920	2093	1820
1982112	2859	2079	1742
1982752	2864	2088	1812
1983392	2870	2043	1907
1984032	2901	2034	2006
1984672	2861	2131	2064
1985312	2847	2141	2215
1985952	2844	2092	2402
1986592	2873	2165	2451
1987232	2765	2349	2500
1987872	2838	1978	2453
1988512	2836	1812	2297
1989152	2763	1855	2277
1989792	2788	1830	2295
1990432	2837	1784	2233
1991072	2814	1621	2229
1991712	2830	1590	2221
1992352	2816	1627	2036
1992992	2790	1743	1935
1993632	2840	1911	1928
1994272	2801	1998	1875
1994912	2836	1828	1691
1995552	2962	2108	1187
1996192	2625	1145	2237
1996832	2875	941	2294
1997472	3034	2424	2205
1998112	2778	1861	2208
1998752	2850	2125	2354
1999392	2877	2280	2228
2000032	2834	2031	2079
2000672	2787	1837	2007
2001312	2800	1941	2011
2001952	2858	1983	2095
2002592	2831	1960	2155
2003232	2800	2050	2152
2003872	2809	2110	2156
2004512	2831	2108	2175
2005152	2840	2068	2195
2005792	2844	2050	2216
2006432	2830	2007	2187
2007072	2824	1979	2189
2007712	2822	2003	2182
2008352	2831	2042	2225
2008992	2828	2065	2264
2009632	2808	2064	2227
2010272	2806	2054	2234
2010912	2817	2043	2244
2011552	2812	2046	2241
2012192	2824	2031	2254
2012832	2817	2014	2257
2013472	2803	2024	2263
2014112	2802	2022	2272
2014752	2805	2036	2276
2015392	2798	2039	2268
2016032	2802	2044	2273
2016672	2806	2028	2269
2017312	2798	2025	2256
2017952	2801	2032	2261
2018592	2811	2034	2267
2019232	2801	2035	2254
2019872	2801	2031	2257
2020512	2811	2027	2265
2021152	2803	2024	2256
2021792	2800	2016	2249
2022432	2809	2019	2263
2023072	2800	2013	2265
2023712	2796	2029	2265
2024352	2801	2035	2278
2024992	2799	2038	2273
2025632	2796	2037	2260
2026272	2803	2027	2264
2026912	2802	2022	2257
2027552	2811	2028	2257
2028192	2802	2022	2252
2028832	2805	2038	2253
2029472	2804	2041	2255
2030112	2805	2043	2250
2030752	2806	2043	2250
2031392	2808	2037	2242
2032032	2812	2034	2250
2032672	2806	2030	2249
2033312	2805	2043	2253
2033952	2807	2033	2255
2034592	2801	2040	2257
2035232	2806	2039	2256
2035872	2800	2030	2260
2036512	2802	2032	2262
2037152	2801	2020	2267
2037792	2799	2018	2271
2038432	2800	2021	2270
2039072	2802	2029	2272
2039712	2804	2022	2267
2040352	2803	2029	2257
2040992	2810	2021	2254
2041632	2808	2018	2247
2042272	2809	2019	2250
2042912	2812	2011	2252
2043552	2804	2024	2256
2044192	2805	2019	2256
2044832	2805	2025	2256
2045472	2808	2016	2254
2046112	2805	2008	2246
2046752	2807	2022	2259
2047392	2814	2005	2251
2048032	2814	2012	2235
2048672	2817	2057	2237
2049312	2830	2005	2223
2049952	2823	2008	2213
2050592	2826	2002	2227
2051232	2826	1968	2226
2051872	2815	1993	2256
2052512	2815	2012	2284
2053152	2813	1985	2269
2053792	2805	1974	2283
2054432	2809	1987	2284
2055072	2792	1995	2277
2055712	2805	2015	2285
2056352	2797	2020	2242
2056992	2821	2029	2223
2057632	2814	2069	2192
2058272	2857	2095	2171
2058912	2831	2074	2110
2059552	2820	2032	2044
2060192	2798	2013	2064
2060832	2801	2010	2081
2061472	2803	2028	2093
2062112	2809	2020	2079
2062752	2819	2030	2060
2063392	2823	2045	2065
2064032	2829	2039	2062
2064672	2802	2028	2058
2065312	2835	2010	2048
2065952	2835	1990	2041
2066592	2842	1991	2062
2067232	2834	2018	2042
2067872	2833	2033	2050
2068512	2833	2064	2061
2069152	2861	2082	2062
2069792	2859	2037	2081
2070432	2848	1999	2102
2071072	2874	1977	2123
2071712	2917	1874	2155
2072352	2952	1800	2246
2072992	3029	1731	2210
2073632	2987	1710	2223
2074272	2890	1726	2218
2074912	2775	1787	2167
2075552	2710	1776	2153
2076192	2669	1834	2111
2076832	2686	1872	2209
2077472	2786	1902	2134
2078112	2785	1827	2066
2078752	2816	1961	2002
2079392	2816	2001	1997
2080032	2856	1904	1999
2080672	2830	1795	1982
2081312	2824	1809	1955
2081952	2813	1786	2010
2082592	2869	1839	2125
2083232	2839	1906	2244
2083872	2827	1846	2250
2084512	2879	1838	2178
2085152	2946	1778	2184
2085792	2921	1884	2197
2086432	2839	2074	2206
2087072	2834	2207	2238
2087712	2809	2216	2236
2088352	2772	2224	2179
2088992	2748	2204	2157
2089632	2766	2236	2107
2090272	2792	2269	2039
2090912	2784	2250	2025
2091552	2813	2223	2106
2092192	2867	2224	2017
2092832	2857	2070	1671
2093472	2868	2148	1650
2094112	2806	1690	1817
2094752	2874	1681	1839
2095392	2842	1616	1876
2096032	2934	1651	1940
2096672	3026	1831	1903
2097312	3042	2304	1948
2097952	2924	2367	1955
2098592	2765	1926	1934
2099232	2822	1730	1864
2099872	2853	1815	1946
2100512	2751	1945	2093
2101152	2815	2124	2226
2101792	2836	2153	2223
2102432	2803	2089	2125
2103072	2881	2166	2078
2103712	2810	2117	2065
2104352	2828	2158	2123
2104992	2852	2128	2136
2105632	2855	2153	2153
2106272	2816	2136	2092
2106912	2817	2040	2042
2107552	2819	2003	2066
2108192	2797	1968	2054
2108832	2825	2055	2115
2109472	2836	2080	2128
2110112	2827	2126	2088
2110752	2805	2040	2013
2111392	2832	2127	2032
2112032	2840	2121	2060
2112672	2817	2151	2135
2113312	2849	2093	2210
2113952	2799	1788	2115
2114592	2796	1870	1985
2115232	2864	2090	1983
2115872	2876	2323	2138
2116512	2812	2367	2275
2117152	2783	2107	2219
2117792	2774	2009	2194
2118432	2795	1961	2179
2119072	2818	1982	2189
2119712	2819	1973	2162
2120352	2819	1987	2189
2120992	2821	2067	2181
2121632	2827	2101	2211
2122272	2804	2073	2155
2122912	2826	2056	2137
2123552	2840	2014	2134
2124192	2839	2003	2102
2124832	2827	2024	2131
2125472	2831	2070	2185
2126112	2829	2087	2202
2126752	2824	2040	2195
2127392	2808	2013	2179
2128032	2809	2015	2168
2128672	2817	1994	2184
2129312	2826	1987	2200
2129952	2815	2010	2191
2130592	2807	2049	2214
2131232	2837	2046	2260
2131872	2815	2037	2212
2132512	2807	2027	2188
2133152	2816	1999	2192
2133792	2833	2006	2203
2134432	2838	2005	2210
2135072	2808	2007	2190
2135712	2798	2055	2220
2136352	2807	2044	2232
2136992	2815	2039	2224
2137632	2815	2024	2217
2138272	2810	2020	2208
2138912	2812	2012	2218
2139552	2822	2031	2250
2140192	2814	2019	2222
2140832	2794	2026	2213
2141472	2798	2045	2232
2142112	2819	2056	2259
2142752	2803	2018	2240
2143392	2798	2014	2226
2144032	2799	1998	2242
2144672	2796	2044	2252
2145312	2805	2063	2261
2145952	2806	2059	2250
2146592	2799	2065	2238
2147232	2807	2057	2238
2147872	2810	2054	2225
2148512	2806	2059	2213
2149152	2817	2073	2221
2149792	2823	2066	2230
2150432	2831	2063	2230
2151072	2824	2056	2216
2151712	2826	2062	2230
2152352	2810	2059	2227
2152992	2811	2078	2244
2153632	2803	2043	2257
2154272	2782	2048	2282
2154912	2781	2056	2320
2155552	2767	2040	2322
2156192	2759	2042	2306
2156832	2771	2008	2310
2157472	2795	2127	2327
2158112	2784	2125	2301
2158752	2771	2117	2311
2159392	2766	2100	2294
2160032	2802	2090	2269
2160672	2812	2097	2257
2161312	2820	2027	2229
2161952	2799	2023	2185
2162592	2817	2031	2180
2163232	2854	2003	2191
2163872	2819	2049	2154
2164512	2822	2056	2138
2165152	2832	2048	2143
2165792	2863	2053	2146
2166432	2847	2092	2160
2167072	2804	2081	2186
2167712	2806	2029	2219
2168352	2816	2080	2262
2168992	2819	2110	2303
2169632	2795	2139	2271
2170272	2804	2098	2272
2170912	2826	2108	2316
2171552	2812	2049	2280
2172192	2798	2020	2253
2172832	2819	1995	2281
2173472	2876	2001	2243
2174112	2824	1939	2165
2174752	2814	1978	2151
2175392	2825	2004	2190
2176032	2855	2088	2241
2176672	2820	2052	2177
2177312	2765	2015	2116
2177952	2791	2027	2100
2178592	2822	1994	2084
2179232	2832	2001	2004
2179872	2857	1991	1937
2180512	2814	2003	1930
2181152	2824	2018	1999
2181792	2911	2089	2036
2182432	2960	2094	2023
2183072	3005	2074	1938
2183712	2947	1902	1858
2184352	2930	2076	1876
2184992	2874	2052	2003
2185632	2820	2017	2097
2186272	2778	1971	2200
2186912	2773	1931	2427
2187552	2794	2043	2444
2188192	2707	2408	2457
2188832	2793	2110	2483
2189472	2780	1924	2359
2190112	2785	1916	2319
2190752	2798	1895	2260
2191392	2795	1820	2085
2192032	2815	1735	1970
2192672	2783	1687	1883
2193312	2792	1711	1758
2193952	2856	1845	1645
2194592	2936	1892	1514
2195232	2765	1674	1872
2195872	2890	1458	2059
2196512	2865	1761	2163
2197152	2860	2138	2288
2197792	2819	2013	2243
2198432	2874	2038	2169
2199072	2835	2088	2090
2199712	2806	2015	2034
2200352	2850	1955	1994
2200992	2856	1913	1977
2201632	2851	1943	2022
2202272	2847	2015	2066
2202912	2840	2028	2126
2203552	2828	2051	2127
2204192	2815	2057	2124
2204832	2845	2059	2145
2205472	2841	1994	2153
2206112	2810	1970	2124
2206752	2827	1985	2145
2207392	2828	2000	2163
2208032	2828	2007	2176
2208672	2819	1992	2148
2209312	2827	1991	2151
2209952	2840	2016	2175
2210592	2824	1998	2186
2211232	2807	1999	2171
2211872	2811	2004	2174
2212512	2822	2004	2194
2213152	2813	2001	2184
2213792	2816	2027	2207
2214432	2827	2022	2224
2215072	2810	1996	2203
2215712	2804	2011	2197
2216352	2813	2023	2213
2216992	2832	2021	2243
2217632	2819	2008	2217
2218272	2811	2005	2213
2218912	2810	2004	2222
2219552	2807	2020	2230
2220192	2816	2023	2241
2220832	2814	2012	2236
2221472	2812	2018	2238
2222112	2813	2016	2240
2222752	2815	2016	2238
2223392	2812	2021	2240
2224032	2814	2022	2237
2224672	2817	2021	2233
2225312	2815	2021	2231
2225952	2814	2019	2234
2226592	2812	2016	2241
2227232	2808	2021	2243
2227872	2805	2026	2250
2228512	2803	2025	2253
2229152	2802	2010	2255
2229792	2801	2025	2261
2230432	2804	2035	2261
2231072	2803	2037	2249
2231712	2807	2034	2240
2232352	2817	2008	2231
2232992	2810	2015	2229
2233632	2818	2027	2235
2234272	2811	2022	2233
2234912	2812	2026	2234
2235552	2807	2023	2242
2236192	2808	2023	2247
2236832	2806	2020	2255
2237472	2804	2024	2254
2238112	2810	2025	2254
2238752	2817	1996	2244
2239392	2821	2002	2236
2240032	2827	2017	2232
2240672	2838	1979	2217
2241312	2828	2003	2218
2241952	2830	2004	2232
2242592	2824	1995	2228
2243232	2824	2001	2214
2243872	2830	1996	2207
2244512	2842	1990	2213
2245152	2830	1989	2214
2245792	2828	1998	2227
2246432	2833	1980	2232
2247072	2826	1989	2228
2247712	2838	1980	2240
2248352	2818	1972	2240
2248992	2812	2015	2238
2249632	2822	2062	2207
2250272	2808	2063	2143
2250912	2825	2030	2098
2251552	2831	1960	2067
2252192	2824	1851	2052
2252832	2827	1755	2002
2253472	2875	1701	1932
2254112	2850	1784	1901
2254752	2793	1889	1953
2255392	2775	1959	2030
2256032	2808	2024	2044
2256672	2784	2001	2059
2257312	2763	1936	2057
2257952	2773	1923	2035
2258592	2802	1923	2011
2259232	2812	1923	1992
2259872	2813	1992	1996
2260512	2806	2106	2071
2261152	2819	2024	2086
2261792	2818	2017	2043
2262432	2864	2085	2022
2263072	2834	2183	1984
2263712	2807	2178	1996
2264352	2862	2187	1994
2264992	2821	2160	2075
2265632	2832	2020	2175
2266272	2849	2081	1875
2266912	2753	2221	1869
2267552	2819	2005	2104
2268192	2976	2111	1926
2268832	2885	1632	1771
2269472	2914	2038	1776
2270112	2814	2259	2059
2270752	2780	2064	2087
2271392	2832	1961	2069
2272032	2854	1868	1992
2272672	2824	1886	2031
2273312	2817	1980	1983
2273952	2818	1938	1918
2274592	2831	1967	1943
2275232	2848	2044	2019
2275872	2833	2077	2061
2276512	2812	2058	2090
2277152	2770	2081	2108
2277792	2864	2019	2080
2278432	2833	2103	2099
2279072	2842	2198	2106
2279712	2839	2186	2083
2280352	2847	2162	2104
2280992	2798	2039	2063
2281632	2819	2019	2101
2282272	2822	2012	2066
2282912	2850	2022	2069
2283552	2826	2028	2028
2284192	2849	2090	2058
2284832	2821	2095	2058
2285472	2817	2033	2076
2286112	2821	2026	2060
2286752	2831	2082	2077
2287392	2813	2127	2114
2288032	2828	2133	2189
2288672	2793	2068	2205
2289312	2853	2007	2164
2289952	2779	1956	2088
2290592	2845	2061	2170
2291232	2815	2027	2147
2291872	2779	2088	2169
2292512	2814	2161	2256
2293152	2827	2196	2280
2293792	2802	2145	2241
2294432	2789	2045	2212
2295072	2803	2033	2198
2295712	2812	2040	2232
2296352	2821	2049	2276
2296992	2803	2074	2273
2297632	2798	2104	2287
2298272	2792	2093	2281
2298912	2793	2093	2285
2299552	2794	2085	2290
2300192	2799	2056	2284
2300832	2798	2028	2276
2301472	2806	2035	2275
2302112	2798	2079	2284
2302752	2806	2075	2262
2303392	2804	2106	2244
2304032	2804	2093	2243
2304672	2802	2058	2244
2305312	2796	2060	2262
2305952	2795	2078	2279
2306592	2800	2030	2259
2307232	2789	2099	2269
2307872	2788	2095	2282
2308512	2790	2014	2265
2309152	2786	2040	2263
2309792	2792	2058	2247
2310432	2777	2165	2260
2311072	2787	2089	2236
2311712	2786	2233	2239
2312352	2793	2201	2261
2312992	2794	2128	2238
2313632	2774	2162	2264
2314272	2806	2142	2325
2314912	2790	2060	2323
2315552	2782	2110	2347
2316192	2814	2075	2390
2316832	2836	2048	2389
2317472	2813	2078	2341
2318112	2844	2002	2339
2318752	2799	1838	2278
2319392	2727	1936	2236
2320032	2765	1951	2289
2320672	2812	1922	2268
2321312	2804	1969	2178
2321952	2827	1937	2152
2322592	2829	2005	2101
2323232	2882	2253	2138
2323872	2865	2115	2168
2324512	2784	2015	2131
2325152	2838	2156	2158
2325792	2848	2091	2200
2326432	2831	2089	2180
2327072	2799	2014	2155
2327712	2794	2058	2209
2328352	2775	1999	2226
2328992	2774	1926	2204
2329632	2798	2036	2184
2330272	2823	2070	2185
2330912	2810	2040	2178
2331552	2814	2069	2179
2332192	2798	2184	2196
2332832	2827	2240	2210
2333472	2850	2210	2208
2334112	2862	2146	2165
2334752	2882	2080	2113
2335392	2815	1939	2014
2336032	2821	1984	2050
2336672	2850	2118	2045
2337312	2876	2307	2034
2337952	2923	2230	2086
2338592	2852	1993	1956
2339232	2862	2116	1881
2339872	2943	2106	1808
2340512	3038	2174	1798
2341152	3005	2276	1680
2341792	2933	2176	1664
2342432	2917	1945	1876
2343072	2883	1940	2086
2343712	2843	1926	2328
2344352	2784	2131	2482
2344992	2797	2155	2640
2345632	2663	2250	2532
2346272	2684	2308	2594
2346912	2689	1834	2446
2347552	2665	1799	2375
2348192	2729	1838	2305
2348832	2781	1869	2222
2349472	2807	1719	2198
2350112	2829	1507	1949
2350752	2768	1599	1744
2351392	2911	1793	1700
2352032	2966	1972	1514
2352672	2946	1683	1326
2353312	2943	1555	1619
2353952	2899	1247	2090
2354592	2747	2037	2200
2355232	2858	2200	2325
2355872	2829	2032	2215
2356512	2879	2186	2105
2357152	2836	2088	2017
2357792	2844	1951	1914
2358432	2781	1860	1869
2359072	2848	1897	1920
2359712	2855	2061	2042
2360352	2853	2150	2084
2360992	2812	2095	2065
2361632	2835	2104	2066
2362272	2816	2071	2057
2362912	2839	2012	2073
2363552	2845	2012	2092
2364192	2832	2014	2100
2364832	2823	2039	2095
2365472	2836	2040	2122
2366112	2836	2042	2119
2366752	2835	2010	2116
2367392	2817	1985	2118
2368032	2830	2001	2122
2368672	2832	2009	2144
2369312	2817	2049	2142
2369952	2828	2057	2133
2370592	2824	2045	2132
2371232	2818	2023	2119
2371872	2838	2005	2108
2372512	2831	2007	2116
2373152	2829	2044	2121
2373792	2819	2039	2142
2374432	2820	2057	2139
2375072	2837	2072	2158
2375712	2819	2036	2157
2376352	2825	2023	2136
2376992	2827	1999	2137
2377632	2827	1984	2125
2378272	2832	2011	2123
2378912	2832	2040	2151
2379552	2823	2043	2131
2380192	2832	2042	2140
2380832	2827	2017	2131
2381472	2826	2028	2142
2382112	2822	2015	2145
2382752	2827	2042	2152
2383392	2837	2052	2142
2384032	2832	2059	2122
2384672	2837	2082	2122
2385312	2877	2042	2148
2385952	2827	2072	2089
2386592	2827	1992	2105
2387232	2855	2010	2082
2387872	2826	2039	2023
2388512	2822	2008	2043
2389152	2830	1968	2086
2389792	2847	1938	2155
2390432	2871	1862	2235
2391072	2883	1873	2245
2391712	2887	1910	2226
2392352	2879	1909	2202
2392992	2904	1917	2177
2393632	2859	1848	2180
2394272	2879	1883	2187
2394912	2854	1951	2147
2395552	2862	1983	2097
2396192	2847	1905	1986
2396832	2857	1854	1986
2397472	2823	1833	1902
2398112	2870	1742	1844
2398752	2807	1793	1787
2399392	2809	1846	1817
2400032	2795	1855	1996
2400672	2823	1917	2072
2401312	2771	2054	2195
2401952	2745	2076	2246
2402592	2765	2079	2160
2403232	2814	2218	2199
2403872	2816	2405	2125
2404512	2824	2445	2074
2405152	2828	2319	2101
2405792	2768	2248	2073
2406432	2746	2157	2022
2407072	2749	2166	2039
2407712	2700	2087	2055
2408352	2663	2044	2101
2408992	2722	2116	2183
2409632	3107	2472	2145
2410272	2480	1658	1169
2410912	2883	1956	1890
2411552	3235	2612	1779
2412192	3137	1835	1273
2412832	2819	2017	2037
2413472	2765	2276	2256
2414112	2861	2497	2143
2414752	2828	1940	1908
2415392	2778	1775	1968
2416032	2842	2076	1846
2416672	2776	2083	1833
2417312	2829	2080	1874
2417952	2874	2176	1986
2418592	2831	2112	2017
2419232	2836	2114	2069
2419872	2855	2023	2140
2420512	2841	2020	2184
2421152	2831	2057	2158
2421792	2845	2111	2101
2422432	2806	2088	2039
2423072	2809	2085	1999
2423712	2830	2123	1990
2424352	2824	2128	1957
2424992	2826	2108	1974
2425632	2815	2079	1971
2426272	2823	2074	1981
2426912	2804	2085	1962
2427552	2827	2119	1954
2428192	2807	2087	1917
2428832	2862	2020	1926
2429472	2796	2019	1915
2430112	2842	2101	2017
2430752	2870	2198	2201
2431392	2848	2040	2207
2432032	2828	1870	2183
2432672	2816	1871	2171
2433312	2842	1968	2268
2433952	2827	1995	2283
2434592	2805	2070	2257
2435232	2777	2101	2218
2435872	2782	2039	2166
2436512	2803	2022	2143
2437152	2835	2018	2121
2437792	2851	2040	2137
2438432	2859	2030	2160
2439072	2829	2043	2134
2439712	2813	2051	2141
2440352	2817	2062	2160
2440992	2832	2087	2180
2441632	2823	2054	2200
2442272	2818	2044	2214
2442912	2815	2047	2228
2443552	2812	2035	2241
2444192	2813	2037	2239
2444832	2811	2031	2242
2445472	2800	2018	2244
2446112	2801	2031	2246
2446752	2809	2029	2251
2447392	2809	2025	2239
2448032	2809	2011	2229
2448672	2813	1997	2224
2449312	2824	2010	2231
2449952	2811	2023	2239
2450592	2817	2031	2243
2451232	2810	2021	2243
2451872	2807	2028	2246
2452512	2811	2019	2240
2453152	2806	2022	2243
2453792	2806	2030	2241
2454432	2811	2020	2244
2455072	2807	2014	2245
2455712	2804	2011	2249
2456352	2807	2008	2254
2456992	2804	2023	2255
2457632	2805	2031	2251
2458272	2807	2020	2249
2458912	2806	2020	2245
2459552	2803	2023	2251
2460192	2809	2021	2249
2460832	2809	2023	2243
2461472	2811	2027	2242
2462112	2811	2013	2239
2462752	2807	2008	2241
2463392	2797	2020	2260
2464032	2801	2034	2271
2464672	2795	2032	2265
2465312	2807	2033	2260
2465952	2811	2014	2251
2466592	2813	2016	2241
2467232	2800	2024	2246
2467872	2813	2022	2251
2468512	2808	2032	2248
2469152	2826	2034	2242
2469792	2808	2028	2222
2470432	2808	2081	2234
2471072	2810	2068	2244
2471712	2807	2055	2237
2472352	2801	2049	2246
2472992	2814	1980	2258
2473632	2782	2052	2283
2474272	2809	2038	2365
2474912	2835	2012	2320
2475552	2846	2081	2229
2476192	2835	2149	2216
2476832	2780	2138	2177
2477472	2813	2111	2187
2478112	2793	2090	2104
2478752	2835	1996	2052
2479392	2767	1999	2057
2480032	2824	1974	2086
2480672	2842	2099	2087
2481312	2828	2157	2065
2481952	2785	2065	2055
2482592	2807	2116	2088
2483232	2740	2063	2045
2483872	2808	2085	2129
2484512	2807	2091	2097
2485152	2833	2109	2100
2485792	2829	2135	2076
2486432	2836	2169	2083
2487072	2850	2177	2046
2487712	2851	2197	2014
2488352	2859	2122	1929
2488992	2850	2165	1976
2489632	2783	2147	2009
2490272	2828	2171	2147
2490912	2841	2165	2183
2491552	2817	2162	2122
2492192	2819	2119	2062
2492832	2842	2112	2126
2493472	2814	2107	2158
2494112	2826	2146	2158
2494752	2872	2145	2138
2495392	2789	2096	2044
2496032	2814	1979	2011
2496672	2796	2083	2181
2497312	2720	1907	2136
2497952	2832	1826	2214
2498592	2797	2096	2193
2499232	2874	2124	2157
2499872	2962	2128	2088
2500512	2924	2209	2078
2501152	2932	2301	2066
2501792	2940	2134	1874
2502432	2887	2086	1807
2503072	2892	2099	1837
2503712	2845	2132	1922
2504352	2845	2210	2043
2504992	2844	2266	2175
2505632	2805	2260	2268
2506272	2815	2080	2262
2506912	2784	1948	2244
2507552	2781	1891	2263
2508192	2850	1931	2259
2508832	2812	2089	2279
2509472	2877	1884	2272
2510112	2816	1704	2202
2510752	2792	1747	2167
2511392	2798	1875	2153
2512032	2828	1912	2161
2512672	2872	1872	2156
2513312	2880	1748	2134
2513952	2862	1759	2103
2514592	2855	1766	2082
2515232	2844	1814	2097
2515872	2845	1828	2095
2516512	2847	1853	2032
2517152	2835	1790	2007
2517792	2835	1725	2012
2518432	2879	1911	1972
2519072	2847	2013	1903
2519712	2845	2040	1900
2520352	2859	1894	1959
2520992	2787	1871	2003
2521632	2677	1851	2134
2522272	2678	1918	2290
2522912	2805	2113	2351
2523552	2896	1642	2387
2524192	2847	1758	2044
2524832	2872	1785	2056
2525472	2851	1831	2124
2526112	2894	1915	2201
2526752	2832	2006	2058
2527392	2832	1947	1989
2528032	2844	2003	1964
2528672	2820	2111	2014
2529312	2835	2228	2045
2529952	2829	2192	2038
2530592	2825	2101	1991
2531232	2830	2124	1995
2531872	2824	2132	1968
2532512	2828	2118	1961
2533152	2808	2075	2011
2533792	2802	2009	2037
2534432	2833	2068	2062
2535072	2838	2041	2131
2535712	2816	2015	2140
2536352	2841	2108	2185
2536992	2828	2075	2191
2537632	2834	2006	2127
2538272	2843	2109	2193
2538912	2833	2045	2216
2539552	2818	1985	2178
2540192	2815	2063	2183
2540832	2826	2052	2169
2541472	2783	2055	2154
2542112	2803	2116	2170
2542752	2826	2059	2149
2543392	2814	2066	2177
2544032	2796	2050	2155
2544672	2812	2047	2194
2545312	2799	2026	2204
2545952	2803	2057	2212
2546592	2797	2067	2193
2547232	2819	2095	2223
2547872	2828	2076	2264
2548512	2850	2071	2260
2549152	2836	2034	2233
2549792	2823	2049	2235
2550432	2880	2082	2259
2551072	2938	2040	2249
2551712	2916	1984	2233
2552352	2891	1942	2224
2552992	2876	1974	2226
2553632	2834	1989	2234
2554272	2797	2045	2257
2554912	2773	2011	2228
2555552	2751	2006	2167
2556192	2766	1984	2161
2556832	2793	1952	2137
2557472	2788	1929	2133
2558112	2857	1948	2101
2558752	2864	1881	2122
2559392	2872	1900	2131
2560032	2858	1924	2091
2560672	2858	1957	2066
2561312	2859	1985	2052
2561952	2856	1954	2073
2562592	2851	1910	2095
2563232	2856	1877	2125
2563872	2844	1863	2174
2564512	2846	1818	2236
2565152	2844	1781	2314
2565792	2822	1762	2313
2566432	2805	1832	2271
2567072	2811	1898	2241
2567712	2812	1878	2212
2568352	2806	1861	2174
2568992	2804	1881	2146
2569632	2795	1880	2117
2570272	2807	1918	2076
2570912	2805	1933	2037
2571552	2812	1934	2019
2572192	2823	1954	1989
2572832	2830	1974	1942
2573472	2838	2004	1944
2574112	2847	1979	1926
2574752	2829	1958	1862
2575392	2892	1984	1834
2576032	2801	1951	1804
2576672	2770	1972	1855
2577312	2720	1978	1872
2577952	2731	2002	1912
2578592	2797	1974	1912
2579232	2809	2083	1760
2579872	2753	2035	2020
2580512	2816	1939	2061
2581152	2870	1917	1977
2581792	2852	1953	1965
2582432	2806	2049	2055
2583072	2801	2105	2117
2583712	2837	2012	2093
2584352	2852	1960	1964
2584992	2846	1967	1894
2585632	2860	2012	1898
2586272	2831	2021	1926
2586912	2824	2004	1946
2587552	2835	2038	1959
2588192	2837	2018	1973
2588832	2833	1982	1964
2589472	2824	2001	1955
2590112	2830	2001	1993
2590752	2838	1998	2022
2591392	2817	2035	2043
2592032	2832	2038	2060
2592672	2839	2022	2034
2593312	2829	2006	2015
2593952	2831	2042	1995
2594592	2847	2054	1997
2595232	2836	2022	1994
2595872	2830	2031	1967
2596512	2843	2034	1997
2597152	2826	2028	1991
2597792	2824	2007	1997
2598432	2833	2012	2003
2599072	2844	2028	2005
2599712	2820	2013	2000
2600352	2835	2002	2018
