Time Stamp	Gyroscope X	Gyroscope Y	Gyroscope Z
RAW	RAW	RAW	RAW
no units	no units	no units	no units
12933722	-2159	-1859	2098
12934050	-1991	-4140	752
12934378	-4108	-6546	-1272
12934706	-7514	-4079	-2412
12935034	-8938	-1462	-2624
12935362	-8222	-1339	-2505
12935690	-8047	-2137	-2684
12936018	-6973	-1568	-1741
12936346	-5235	-1201	-1042
12936674	-2167	-3128	-1478
12937002	37	-3875	-1860
12937330	1464	-1711	-1665
12937658	-83	-1233	-1360
12937986	-309	-892	-727
12938314	1631	427	-833
12938642	1336	2231	-1872
12938970	2331	700	-1813
12939298	3804	-372	-642
12939626	4072	-562	-1548
12939954	5821	-985	-3338
12940282	6938	215	-3730
12940610	5310	543	-3152
12940938	2469	-997	-1969
12941266	954	-703	-310
12941594	533	1212	172
12941922	-91	1706	-549
12942250	157	1212	-297
12942578	1933	577	-649
12942906	2293	577	-1360
12943234	2074	732	-1028
12943562	693	1143	-673
12943890	-1345	1049	-1430
12944218	-2988	1277	-2188
12944546	-4229	1300	-2716
12944874	-4409	999	-3063
12945202	-3963	863	-2715
12945530	-3412	961	-2249
12945858	-2556	827	-1964
12946186	-1524	596	-1798
12946514	-520	497	-1806
12946842	360	223	-1651
12947170	1180	-9	-1681
12947498	1605	-136	-1784
12947826	1613	-133	-1768
12948154	1443	-203	-1766
12948482	946	4	-1762
12948810	375	161	-1875
12949138	-1	446	-1901
12949466	-24	555	-1813
12949794	195	285	-1783
12950122	421	78	-1730
12950450	633	116	-1639
12950778	937	-72	-1481
12951106	1150	-87	-1502
12951434	1119	139	-1533
12951762	1212	130	-1500
12952090	1250	136	-1522
12952418	1212	160	-1545
12952746	1195	28	-1558
12953074	1273	70	-1551
12953402	1455	-120	-1542
12953730	1275	9	-1405
12954058	1211	128	-1410
12954386	1242	277	-953
12954714	543	298	-1221
12955042	425	227	-1516
12955370	508	137	-1326
12955698	885	-167	-1548
12956026	1599	-541	-1713
12956354	2025	-750	-1651
12956682	2168	-843	-1787
12957010	2324	-979	-1652
12957338	1900	-859	-889
12957666	1073	-407	-363
12957994	45	60	-1206
12958322	-579	-206	-1833
12958650	-648	187	-1810
12958978	-364	-129	-1629
12959306	-285	-226	-1494
12959634	-206	-279	-1488
12959962	-249	-447	-1860
12960290	-694	-219	-1866
12960618	-1515	107	-1771
12960946	-1648	100	-1698
12961274	-1453	-7	-2018
12961602	-883	-178	-2204
12961930	-292	-464	-2234
12962258	77	-723	-2206
12962586	91	-495	-2168
12962914	161	-406	-2164
12963242	450	-308	-2111
12963570	487	-434	-2022
12963898	425	-418	-1945
12964226	565	-531	-1934
12964554	665	-736	-2012
12964882	490	-863	-2007
12965210	234	-692	-1949
12965538	-97	-557	-1973
12965866	-503	-476	-2079
12966194	-837	-398	-2141
12966522	-828	-315	-2113
12966850	-773	-177	-2135
12967178	-622	-114	-2169
12967506	-146	-406	-2152
12967834	267	-638	-2133
12968162	521	-624	-2112
12968490	472	-514	-2029
12968818	374	-442	-1917
12969146	425	-533	-1942
12969474	612	-802	-2138
12969802	990	-1149	-2375
12970130	1291	-1388	-2488
12970458	1435	-1557	-2520
12970786	1255	-1490	-2527
12971114	1126	-1305	-2591
12971442	1099	-1067	-2646
12971770	1510	-1173	-2591
12972098	2066	-1645	-2636
12972426	2330	-1948	-2781
12972754	2151	-2042	-2823
12973082	1876	-2024	-2713
12973410	1523	-2078	-2655
12973738	1332	-2147	-2598
12974066	1320	-2321	-2554
12974394	1300	-2416	-2520
12974722	1207	-2535	-2524
12975050	1076	-2716	-2520
12975378	990	-2684	-2471
12975706	919	-2692	-2369
12976034	857	-3000	-2361
12976362	752	-3084	-2381
12976690	642	-3101	-2410
12977018	610	-3187	-2488
12977346	675	-3285	-2535
12977674	940	-3475	-2572
12978002	1122	-3741	-2587
12978330	1241	-3689	-2465
12978658	1073	-3591	-2351
12978986	900	-3421	-2259
12979314	832	-3257	-2166
12979642	917	-3427	-2181
12979970	1083	-3514	-2131
12980298	1139	-3612	-2112
12980626	1144	-3684	-2409
12980954	991	-3788	-2032
12981282	767	-3695	-2080
12981610	664	-3657	-2207
12981938	717	-3899	-2245
12982266	856	-4091	-2146
12982594	1104	-4230	-1868
12982922	806	-4001	-1623
12983250	559	-3878	-1324
12983578	53	-3722	-795
12983906	-659	-3462	-251
12984234	-1526	-3072	317
12984562	-2607	-2400	782
12984890	-3549	-1091	972
12985218	-4318	-565	1389
12985546	-4631	-750	1700
12985874	-4959	-878	1741
12986202	-5109	-192	1112
12986530	-5896	298	846
12986858	-6365	463	755
12987186	-6210	555	782
12987514	-5935	721	635
12987842	-5458	48	495
12988170	-5532	96	370
12988498	-6247	404	459
12988826	-7545	2815	743
12989154	-9316	4590	1230
12989482	-9029	4935	1922
12989810	-7911	4761	2278
12990138	-6633	3364	2161
12990466	-5580	2273	2114
12990794	-4775	1603	2279
12991122	-4400	1853	2522
12991450	-4180	2364	2615
12991778	-4016	2481	2767
12992106	-4123	2404	2907
12992434	-4532	2550	3187
12992762	-5305	2911	3517
12993090	-5841	3301	3780
12993418	-5846	3373	4058
12993746	-5509	3318	4253
12994074	-4904	3241	4316
12994402	-4001	2834	4364
12994730	-2938	2284	4542
12995058	-1977	2073	4838
12995386	-1122	2028	4994
12995714	-194	1719	5065
12996042	693	1477	5207
12996370	1549	1236	5490
12996698	2122	1241	5892
12997026	2286	1423	6307
12997354	2427	1693	6733
12997682	2567	1842	7070
12998010	2922	1658	7257
12998338	3474	1484	7352
12998666	3994	1471	7474
12998994	5023	1030	7482
12999322	6168	561	7580
12999650	7303	478	7630
12999978	8347	382	7621
13000306	9195	166	7667
13000634	9922	90	7618
13000962	10673	-75	7561
13001290	11343	-194	7535
13001618	11790	-289	7561
13001946	12325	-551	7556
13002274	12924	-878	7542
13002602	13217	-1138	7382
13002930	13110	-1257	7036
13003258	13044	-1327	6666
13003586	12712	-1419	6336
13003914	12211	-1341	6049
13004242	11432	-1246	5709
13004570	11097	-1264	5411
13004898	10692	-1834	5034
13005226	10414	-2213	4826
13005554	9983	-2517	4681
13005882	9672	-2944	4684
13006210	9438	-3460	4721
13006538	9062	-3579	4668
13006866	8713	-3426	4636
13007194	8862	-3129	4601
13007522	9077	-2861	4627
13007850	8991	-3033	4633
13008178	8529	-4210	4536
13008506	8574	-4677	4545
13008834	8156	-3871	4199
13009162	7915	-2935	3776
13009490	8177	-2063	3535
13009818	9321	-1159	3345
13010146	10931	-1399	2751
13010474	11664	-2491	2294
13010802	11530	-3148	2052
13011130	11282	-3089	1449
13011458	11688	-2968	759
13011786	12072	-3658	-15
13012114	12284	-4472	-844
13012442	11752	-4191	-1421
13012770	11092	-4002	-1827
13013098	11793	-4496	-2557
13013426	9525	-1990	-4250
13013754	5084	-2461	-2905
13014082	3105	-6345	-368
13014410	576	1161	889
13014738	-556	1635	1527
13015066	-2028	-1042	201
13015394	-3182	-1326	-542
13015722	-2951	-2016	-1012
13016050	-877	-418	-1147
13016378	2559	-1308	103
13016706	3931	-1543	134
13017034	4804	-1775	255
13017362	5327	-2567	264
13017690	5433	-2632	223
13018018	5009	-2151	148
13018346	4514	-2068	311
13018674	4016	-1999	439
13019002	3169	-2057	309
13019330	2083	-2194	-29
13019658	1240	-1650	-397
13019986	563	-947	-511
13020314	751	-787	-476
13020642	1454	-1039	-477
13020970	2650	-1712	-553
13021298	3429	-2279	-576
13021626	3728	-2387	-475
13021954	3276	-2126	-423
13022282	2639	-1816	-416
13022610	2082	-1715	-475
13022938	1587	-1478	-439
13023266	1515	-1239	-227
13023594	1588	-1264	-171
13023922	1759	-1469	-204
13024250	1723	-1485	-266
13024578	1655	-1457	-286
13024906	1552	-1283	-154
13025234	1648	-1399	-64
13025562	1682	-1536	-93
13025890	1661	-1427	-20
13026218	1717	-1289	67
13026546	1810	-1411	20
13026874	1912	-1570	-45
13027202	1996	-1449	-63
13027530	2284	-1532	-88
13027858	2380	-1758	-95
13028186	2273	-1712	-64
13028514	2336	-1759	-54
13028842	2408	-1973	-185
13029170	2285	-1926	-351
13029498	2030	-1747	-390
13029826	1734	-1744	-347
13030154	1419	-1554	-369
13030482	1188	-1472	-353
13030810	1110	-1497	-498
13031138	969	-1413	-564
13031466	841	-1248	-697
13031794	866	-1286	-688
13032122	973	-1216	-644
13032450	1034	-1244	-633
13032778	847	-1094	-620
13033106	632	-938	-549
13033434	503	-837	-487
13033762	453	-699	-457
13034090	509	-599	-493
13034418	603	-639	-571
13034746	593	-639	-527
13035074	469	-609	-526
13035402	345	-545	-475
13035730	261	-334	-455
13036058	246	-290	-437
13036386	255	-392	-431
13036714	307	-356	-391
13037042	293	-386	-374
13037370	290	-436	-374
13037698	317	-454	-437
13038026	356	-475	-477
13038354	479	-437	-507
13038682	470	-466	-434
13039010	423	-440	-388
13039338	402	-402	-386
13039666	286	-417	-411
13039994	273	-386	-431
13040322	224	-318	-363
13040650	267	-273	-374
13040978	280	-276	-377
13041306	301	-279	-372
13041634	257	-262	-343
13041962	310	-246	-330
13042290	292	-222	-304
13042618	294	-218	-316
13042946	264	-186	-301
13043274	209	-163	-258
13043602	141	-105	-308
13043930	104	-83	-208
13044258	39	-38	-217
13044586	-49	-23	-186
13044914	-149	21	-202
13045242	-202	12	-212
13045570	-310	84	-230
13045898	-290	59	-235
13046226	-266	56	-216
13046554	-323	122	-241
13046882	-354	95	-197
13047210	-371	61	-210
13047538	-438	64	-221
13047866	-470	98	-218
13048194	-508	145	-213
13048522	-492	174	-222
13048850	-513	205	-192
13049178	-452	186	-205
13049506	-373	150	-210
13049834	-391	145	-218
13050162	-382	153	-206
13050490	-413	170	-204
13050818	-363	173	-210
13051146	-353	188	-205
13051474	-327	172	-188
13051802	-282	194	-180
13052130	-270	181	-182
13052458	-230	189	-176
13052786	-200	205	-169
13053114	-168	184	-160
13053442	-120	198	-151
13053770	-93	197	-141
13054098	-54	206	-115
13054426	-69	200	-113
13054754	-104	179	-107
13055082	-144	213	-94
13055410	-164	246	-72
13055738	-176	230	-56
13056066	-157	229	-65
13056394	-150	187	-75
13056722	-111	262	-68
13057050	-55	178	-100
13057378	-2	178	-88
13057706	-31	172	-86
13058034	-70	194	-94
13058362	-65	174	-64
13058690	-68	152	-84
13059018	-17	129	-91
13059346	-42	154	-89
13059674	-22	151	-85
13060002	-21	141	-75
13060330	-6	159	-79
13060658	11	122	-80
13060986	8	128	-69
13061314	12	142	-60
13061642	45	111	-42
13061970	64	112	-62
13062298	53	129	-52
13062626	51	138	-48
13062954	62	116	-63
13063282	88	92	-91
13063610	86	131	-66
13063938	44	127	-70
13064266	86	125	-60
13064594	92	142	-54
13064922	97	117	-63
13065250	84	121	-51
13065578	122	138	-70
13065906	90	121	-68
13066234	53	137	-55
13066562	9	163	-60
13066890	8	161	-68
13067218	6	166	-84
13067546	0	146	-99
13067874	-11	140	-91
13068202	-60	181	-63
13068530	-65	221	-31
13068858	-77	215	-19
13069186	-56	154	-15
13069514	-50	147	4
13069842	1	127	-12
13070170	-3	124	-3
13070498	22	141	20
13070826	13	128	23
13071154	20	101	19
13071482	-26	123	42
13071810	-12	144	45
13072138	-26	142	36
13072466	-31	102	27
13072794	-45	84	5
13073122	-48	110	-10
13073450	-63	98	2
13073778	-49	109	-6
13074106	-33	92	-13
13074434	-27	100	-15
13074762	-53	121	-16
13075090	-46	107	-22
13075418	-58	141	-15
13075746	-71	122	-18
13076074	-61	130	-49
13076402	-58	107	-50
13076730	-56	118	-30
13077058	-80	139	-11
13077386	-103	140	-2
13077714	-90	149	-24
13078042	-70	162	-7
13078370	-70	115	-17
13078698	-36	97	-18
13079026	-88	132	-24
13079354	-124	126	-42
13079682	-127	87	-27
13080010	-80	88	-46
13080338	-131	119	-42
13080666	-66	93	-39
13080994	-84	111	-24
13081322	-35	82	-41
13081650	-51	93	-36
13081978	-26	97	-29
13082306	-33	101	-28
13082634	-6	70	-43
13082962	12	98	-40
13083290	28	109	-31
13083618	-1	91	-19
13083946	-28	98	-16
13084274	-43	98	-32
13084602	-49	46	-41
13084930	-81	68	-53
13085258	-85	102	-46
13085586	-95	100	-45
13085914	-114	103	-56
13086242	-111	122	-58
13086570	-141	151	-61
13086898	-106	141	-60
13087226	-52	98	-66
13087554	-39	97	-84
13087882	-5	58	-84
13088210	-3	95	-66
13088538	-26	73	-69
13088866	-34	92	-83
13089194	-48	110	-75
13089522	-66	123	-80
13089850	-65	107	-72
13090178	-42	118	-84
13090506	-42	118	-93
13090834	-45	89	-95
13091162	-52	71	-85
13091490	-64	126	-71
13091818	-58	123	-82
13092146	-82	114	-77
13092474	-45	112	-81
13092802	-71	123	-82
13093130	-24	108	-59
13093458	-43	121	-78
13093786	0	77	-87
13094114	12	69	-94
13094442	30	96	-78
13094770	11	116	-72
13095098	-21	92	-72
13095426	-9	92	-61
13095754	-47	91	-71
13096082	-47	99	-83
13096410	-50	110	-86
13096738	-57	123	-73
13097066	-38	109	-60
13097394	-46	105	-61
13097722	-54	115	-54
13098050	-1	114	-51
13098378	-27	99	-38
13098706	-10	115	-31
13099034	-35	101	-37
13099362	-2	94	-22
13099690	6	92	-35
13100018	17	104	-27
13100346	0	118	-35
13100674	-15	108	-53
13101002	10	84	-62
13101330	-6	115	-54
13101658	6	97	-50
13101986	18	118	-56
13102314	14	126	-56
13102642	25	108	-67
13102970	-6	134	-66
13103298	-2	119	-66
13103626	6	138	-35
13103954	1	122	-51
13104282	-30	125	-48
13104610	-32	111	-48
13104938	6	136	-35
13105266	-23	115	-48
13105594	-30	143	-30
13105922	-3	114	-37
13106250	-18	112	-45
13106578	-8	120	-47
13106906	-7	109	-49
13107234	-10	127	-33
13107562	14	150	-41
13107890	4	143	-46
13108218	13	132	-49
13108546	-2	116	-39
13108874	9	95	-51
13109202	14	106	-50
13109530	6	105	-52
13109858	-13	144	-33
13110186	-46	135	-44
13110514	-95	143	-42
13110842	-82	132	-51
13111170	-119	164	-42
13111498	-99	140	-24
13111826	-96	153	-48
13112154	-115	167	-31
13112482	-117	139	-47
13112810	-51	114	-42
13113138	-65	148	-32
13113466	9	138	-23
13113794	-12	164	-27
13114122	-7	145	-10
13114450	-53	171	-28
13114778	-78	162	-25
13115106	-128	170	-37
13115434	-114	164	-41
13115762	-80	163	-50
13116090	-59	174	-57
13116418	-78	179	-33
13116746	-40	123	-40
13117074	-31	167	-51
13117402	-12	148	-23
13117730	-41	152	-13
13118058	-49	176	-7
13118386	-57	135	-13
13118714	-74	144	-12
13119042	-77	115	-12
13119370	-3	129	4
13119698	-44	151	9
13120026	-21	123	8
13120354	-17	135	-3
13120682	-23	151	19
13121010	-8	138	17
13121338	-37	154	13
13121666	-43	153	3
13121994	-70	133	-8
13122322	-57	131	-21
13122650	-40	147	-38
13122978	-11	152	-53
13123306	20	142	-54
13123634	41	99	-67
13123962	26	105	-57
13124290	32	138	-60
13124618	8	124	-63
13124946	-9	139	-66
13125274	-64	129	-71
13125602	-78	144	-64
13125930	-48	156	-67
13126258	-57	152	-65
13126586	-42	155	-78
13126914	-94	167	-66
13127242	-39	153	-69
13127570	-2	143	-84
13127898	6	142	-74
13128226	36	136	-75
13128554	12	167	-57
13128882	11	159	-47
13129210	-4	165	-59
13129538	-32	147	-56
13129866	-22	127	-71
13130194	-19	144	-66
13130522	-30	155	-80
13130850	-63	134	-76
13131178	-33	158	-62
13131506	-32	143	-61
13131834	19	149	-61
13132162	45	135	-66
13132490	48	126	-44
13132818	44	134	-33
13133146	63	103	-50
13133474	73	103	-58
13133802	64	51	-43
13134130	51	85	-30
13134458	42	109	-19
13134786	28	91	-39
13135114	-13	60	-36
13135442	-28	90	-66
13135770	-11	58	-69
13136098	44	76	-69
13136426	49	93	-60
13136754	136	40	-73
13137082	74	51	-40
13137410	81	58	-21
13137738	106	55	-26
13138066	154	3	-68
13138394	161	8	-65
13138722	93	60	-41
13139050	141	10	-41
13139378	106	72	-24
13139706	56	97	-19
13140034	19	106	-11
13140362	11	84	-13
13140690	29	88	-25
13141018	41	86	-37
13141346	0	128	-20
13141674	-10	125	-31
13142002	7	92	-41
13142330	11	119	-38
13142658	43	91	-34
13142986	-11	121	-36
13143314	-46	109	-56
13143642	-66	121	-54
13143970	-82	130	-49
13144298	-123	144	-35
13144626	-122	136	-31
13144954	-120	159	-26
13145282	-139	154	-19
13145610	-118	168	-26
13145938	-100	134	-32
13146266	-80	188	-17
13146594	-88	200	-5
13146922	-88	153	-7
13147250	-135	162	-17
13147578	-124	156	-13
13147906	-87	212	-21
13148234	-155	202	-15
13148562	-134	187	-21
13148890	-143	172	-49
13149218	-134	171	-50
13149546	-122	190	-62
13149874	-113	190	-46
13150202	-101	195	-55
13150530	-100	204	-68
13150858	-63	182	-81
13151186	-76	182	-75
13151514	-105	209	-85
13151842	-88	221	-78
13152170	-106	215	-88
13152498	-79	203	-81
13152826	-80	169	-82
13153154	-98	198	-79
13153482	-79	183	-80
13153810	-56	205	-52
13154138	-63	209	-52
13154466	-42	201	-42
13154794	-17	202	-44
13155122	-3	174	-45
13155450	-10	163	-47
13155778	-15	199	-37
13156106	-23	206	-29
13156434	-46	178	-41
13156762	-69	171	-49
13157090	-69	191	-57
13157418	-82	200	-47
13157746	-53	190	-63
13158074	-30	168	-84
13158402	-27	198	-64
13158730	-24	193	-54
13159058	-7	194	-57
13159386	-1	179	-60
13159714	-14	210	-58
13160042	-34	225	-70
13160370	-12	214	-75
13160698	-75	223	-92
13161026	30	194	-124
13161354	-73	234	-114
13161682	-66	258	-106
13162010	-97	253	-115
13162338	-92	287	-93
13162666	-85	269	-80
13162994	-84	248	-95
13163322	-102	232	-78
13163650	-113	259	-72
13163978	-118	256	-67
13164306	-128	234	-68
13164634	-107	242	-72
13164962	-110	213	-54
13165290	-96	232	-33
13165618	-83	205	-35
13165946	-85	175	-44
13166274	-110	167	-31
13166602	-118	194	-28
13166930	-116	190	-23
13167258	-86	200	-22
13167586	-86	206	-28
13167914	-69	182	-34
13168242	-75	180	-38
13168570	-83	177	-21
13168898	-67	158	-17
13169226	-14	131	-34
13169554	-63	162	-28
13169882	-90	182	-30
13170210	-99	137	-36
13170538	-94	134	-45
13170866	-114	179	-30
13171194	-142	185	-39
13171522	-59	160	-11
13171850	-25	159	-34
13172178	-13	153	-17
13172506	1	149	-21
13172834	-29	144	-13
13173162	25	108	-33
13173490	0	164	-21
13173818	-20	156	-18
13174146	-50	143	-21
13174474	-37	174	-16
13174802	-64	142	-29
13175130	-32	135	-32
13175458	-38	143	-33
13175786	-45	166	-31
13176114	-38	158	-35
13176442	-13	147	-35
13176770	37	135	-36
13177098	43	99	-38
13177426	55	111	-34
13177754	34	132	-29
13178082	-1	132	-29
13178410	-6	132	-53
13178738	5	134	-43
13179066	32	107	-32
13179394	24	123	-29
13179722	26	95	-48
13180050	-3	99	-57
13180378	25	111	-48
13180706	44	97	-53
13181034	43	95	-56
13181362	60	105	-53
13181690	60	98	-62
13182018	108	69	-52
13182346	115	78	-36
13182674	87	91	-45
13183002	43	92	-41
13183330	22	101	-23
13183658	-1	84	-31
13183986	-14	86	-36
13184314	-24	89	-50
13184642	-16	98	-30
13184970	-12	86	-52
13185298	-17	98	-43
13185626	-8	108	-39
13185954	-46	95	-27
13186282	-8	100	-34
13186610	-93	140	-42
13186938	-53	99	-28
13187266	-68	123	-38
13187594	-36	98	-54
13187922	-113	126	-42
13188250	-103	130	-29
13188578	-77	146	-26
13188906	-61	92	-37
13189234	-118	136	-29
13189562	-103	165	-14
13189890	-131	138	-17
13190218	-109	137	-27
13190546	-140	131	-34
13190874	-97	162	-22
13191202	-108	148	-32
13191530	-127	135	-52
13191858	-118	129	-29
13192186	-144	176	-15
13192514	-120	162	-12
13192842	-112	134	-30
13193170	-133	149	-32
13193498	-107	126	-33
13193826	-75	134	-33
13194154	-59	159	-29
13194482	-46	169	-37
13194810	-17	148	-29
13195138	-30	160	-32
13195466	-28	156	-18
13195794	-38	157	-14
13196122	-57	136	-40
13196450	-88	175	-30
13196778	-33	158	-24
13197106	-32	153	-49
13197434	-68	231	-14
13197762	-64	120	-66
13198090	-38	171	-56
13198418	-75	180	-41
13198746	-13	134	-51
13199074	-48	156	-54
13199402	-66	128	-35
13199730	-19	134	-60
13200058	-44	132	-65
13200386	-43	187	-41
13200714	-26	196	-45
13201042	-9	167	-29
13201370	-3	159	-27
13201698	-12	147	-30
13202026	-6	135	-29
13202354	13	153	-34
13202682	20	153	-21
13203010	-14	167	-28
13203338	-29	148	-34
13203666	-27	154	-35
13203994	-38	180	-24
13204322	-41	162	-29
13204650	-9	136	-39
13204978	26	136	-43
13205306	97	122	-37
13205634	140	107	-36
13205962	172	103	-35
13206290	244	69	-38
13206618	287	87	-25
13206946	294	110	6
13207274	263	125	12
13207602	196	102	-3
13207930	207	52	-10
13208258	156	65	-9
13208586	93	88	-6
13208914	-82	111	-2
13209242	-223	97	-38
13209570	-279	98	-46
13209898	-318	105	-47
13210226	-354	102	-47
13210554	-402	144	-36
13210882	-500	149	-23
13211210	-530	224	46
13211538	-527	216	48
13211866	-455	119	-1
13212194	-467	161	44
13212522	-388	133	49
13212850	-369	105	40
13213178	-323	112	52
13213506	-223	108	53
13213834	-68	46	14
13214162	103	44	4
13214490	197	30	12
13214818	228	7	6
13215146	226	-4	-5
13215474	264	-50	-32
13215802	364	-91	-41
13216130	414	-105	-42
13216458	509	-134	-68
13216786	507	-152	-72
13217114	554	-158	-51
13217442	579	-124	-52
13217770	514	-77	-21
13218098	608	-32	57
13218426	678	-16	79
13218754	729	-34	62
13219082	903	-79	65
13219410	965	-101	73
13219738	1009	-152	87
13220066	869	-105	119
13220394	638	-21	126
13220722	537	-33	92
13221050	426	-44	73
13221378	361	-14	83
13221706	262	-26	61
13222034	186	2	47
13222362	120	-16	38
13222690	13	-10	3
13223018	-28	-5	-8
13223346	-58	31	26
13223674	-33	-32	29
13224002	34	-46	53
13224330	25	25	58
13224658	34	40	69
13224986	16	6	55
13225314	27	24	29
13225642	48	-29	23
13225970	-9	-22	9
13226298	-91	7	23
13226626	-163	29	-11
13226954	-222	4	-47
13227282	-241	55	-40
13227610	-332	81	-21
13227938	-400	72	-12
13228266	-557	86	-43
13228594	-632	80	-38
13228922	-775	108	-40
13229250	-876	130	-109
13229578	-975	172	-122
13229906	-1004	137	-155
13230234	-995	163	-152
13230562	-1075	158	-144
13230890	-1170	145	-114
13231218	-1229	64	-160
13231546	-1391	21	-182
13231874	-1576	71	-121
13232202	-1736	98	-88
13232530	-1814	-7	-196
13232858	-1927	-45	-270
13233186	-1997	15	-221
13233514	-2005	-43	-241
13233842	-2161	-110	-297
13234170	-2262	-116	-275
13234498	-2214	-259	-382
13234826	-2377	-260	-363
13235154	-2436	-301	-310
13235482	-2376	-359	-293
13235810	-2247	-427	-338
13236138	-2164	-406	-303
13236466	-2227	-346	-252
13236794	-2145	-363	-198
13237122	-2143	-623	-210
13237450	-2274	-563	-202
13237778	-2425	-623	-185
13238106	-2567	-627	-204
13238434	-2565	-825	-139
13238762	-2736	-933	-245
13239090	-3061	-729	-268
13239418	-3040	-821	-439
13239746	-3001	-1178	-451
13240074	-3129	-1287	-468
13240402	-3038	-1099	-292
13240730	-2806	-1189	-252
13241058	-2630	-1319	-238
13241386	-2523	-1384	-285
13241714	-2578	-1462	-363
13242042	-2834	-1495	-236
13242370	-2552	-1969	-157
13242698	-2135	-2310	-299
13243026	-1994	-2139	-342
13243354	-1828	-1901	-251
13243682	-1439	-1633	-244
13244010	-1399	-992	-144
13244338	-1282	-642	-101
13244666	-995	-811	-234
13244994	-852	-1118	-290
13245322	-1527	-1320	-208
13245650	-2353	-1544	-101
13245978	-3391	-1406	21
13246306	-4567	-958	84
13246634	-5444	-442	249
13246962	-6023	201	582
13247290	-6303	91	816
13247618	-7194	72	1037
13247946	-8228	258	1118
13248274	-9045	698	486
13248602	-10103	1355	-48
13248930	-10306	1395	-147
13249258	-10532	2383	-135
13249586	-11635	4749	415
13249914	-12759	5692	1073
13250242	-13036	4823	931
13250570	-12592	4344	366
13250898	-12302	4929	-144
13251226	-11811	5346	-249
13251554	-10799	5513	-83
13251882	-9686	5578	194
13252210	-8596	5470	467
13252538	-7726	5423	855
13252866	-7422	5409	1037
13253194	-7480	5642	1144
13253522	-7809	5757	1421
13253850	-8261	6066	1700
13254178	-8777	6470	1926
13254506	-9261	7008	2183
13254834	-9585	7167	2559
13255162	-9801	7399	3094
13255490	-9949	7627	3464
13255818	-9944	7762	3810
13256146	-9901	7880	4235
13256474	-9549	7900	4460
13256802	-9296	7862	4648
13257130	-8625	7634	4767
13257458	-7824	7208	4676
13257786	-7354	6825	4414
13258114	-7176	6062	3964
13258442	-7321	5060	3249
13258770	-7572	3972	2444
13259098	-7116	3672	1928
13259426	-7480	5149	1775
13259754	-8787	5794	1909
13260082	-9569	5789	2467
13260410	-9563	5156	2803
13260738	-9179	4122	2574
13261066	-9376	3678	2093
13261394	-9725	3577	1557
13261722	-9261	2756	928
13262050	-8888	1919	453
13262378	-8664	2041	538
13262706	-8158	2547	670
13263034	-7475	2767	515
13263362	-6225	2094	78
13263690	-5526	1653	-416
13264018	-4942	2033	-356
13264346	-4333	1949	-736
13264674	-3831	1706	-1210
13265002	-3129	1682	-1577
13265330	-2421	1647	-1994
13265658	-2394	416	-3811
13265986	-6435	-3132	-5772
13266314	-5294	-3568	-2970
13266642	-6413	167	-826
13266970	-9048	4144	-1582
13267298	-7830	3475	-2704
13267626	-5156	664	-4158
13267954	-3644	2187	-4261
13268282	-2730	574	-3007
13268610	-2745	524	-2160
13268938	-1993	-914	-2047
13269266	-524	-2295	-3849
13269594	-238	334	-4368
13269922	169	872	-3987
13270250	492	-771	-4251
13270578	185	-1035	-4154
13270906	-497	-817	-4126
13271234	-1111	-930	-4170
13271562	-1184	-727	-4134
13271890	-1002	-433	-4156
13272218	-504	-520	-4317
13272546	-166	-287	-4407
13272874	236	-473	-4451
13273202	-93	-541	-4367
13273530	-481	-178	-4231
13273858	-495	85	-4081
13274186	-232	375	-4042
13274514	365	286	-4167
13274842	839	-40	-4293
13275170	928	-88	-4310
13275498	556	-63	-4180
13275826	-22	-104	-4035
13276154	-429	58	-3943
13276482	-553	224	-3927
13276810	-585	135	-3969
13277138	-639	192	-4023
13277466	-663	93	-4104
13277794	-783	-35	-4178
13278122	-868	156	-4089
13278450	-682	109	-4056
13278778	-255	-150	-4003
13279106	1	-250	-3796
13279434	170	-358	-3583
13279762	195	-519	-3661
13280090	337	-749	-3740
13280418	425	-857	-3647
13280746	281	-769	-3394
13281074	230	-1107	-3304
13281402	281	-1603	-3290
13281730	125	-1461	-3140
13282058	-40	-1575	-2995
13282386	-58	-2002	-2913
13282714	-148	-2201	-2861
13283042	-274	-2415	-2894
13283370	-202	-2725	-2923
13283698	-441	-2528	-2765
13284026	-464	-2643	-2843
13284354	816	-4928	-2844
13284682	1874	-5545	-2697
13285010	2881	-4288	-2417
13285338	3527	-3184	-1648
13285666	4029	-2299	-695
13285994	3559	-1577	616
13286322	704	125	2378
13286650	-3613	4752	4017
13286978	-7466	8408	6013
13287306	-5421	4625	7642
13287634	3623	-3881	5052
13287962	5727	-2170	1420
13288290	2472	550	1691
13288618	411	323	2705
13288946	-313	1718	3425
13289274	-1542	3193	4075
13289602	-2040	3865	4460
13289930	-2204	3988	4769
13290258	-1787	3623	5135
13290586	-1083	3421	5554
13290914	-890	3326	5947
13291242	-764	3537	6216
13291570	-813	3840	6544
13291898	-697	3953	6842
13292226	-422	3876	7114
13292554	-286	3888	7255
13292882	-457	3900	7294
13293210	-536	3835	7290
13293538	-640	3925	7175
13293866	-636	4039	7027
13294194	-352	4388	6940
13294522	-2	4180	7003
13294850	676	3749	7072
13295178	1122	3473	6892
13295506	1377	3665	6732
13295834	1406	3965	6674
13296162	1579	4077	6350
13296490	1609	3995	6284
13296818	1404	4121	6289
13297146	1831	4239	5879
13297474	2384	4201	5351
13297802	2526	4177	4737
13298130	2502	3900	4268
13298458	2338	2840	4050
13298786	2452	1841	3830
13299114	2981	1628	3674
13299442	3336	2239	3404
13299770	3530	2603	2687
13300098	3852	3443	2224
13300426	4179	2826	1899
13300754	4269	1271	1418
13301082	4491	301	546
13301410	4006	42	-515
13301738	2411	-63	-881
13302066	963	-1649	-1320
13302394	1720	-1803	-1396
13302722	854	1479	-1258
13303050	1957	2265	-1458
13303378	3149	502	-1867
13303706	2394	-495	-2224
13304034	1608	-905	-3306
13304362	-4336	2058	-6639
13304690	-4802	-3798	-5649
13305018	2403	-16323	-544
13305346	-2202	-1291	-873
13305674	-9404	5696	-2121
13306002	-11239	2857	-3608
13306330	-6345	-2684	-3635
13306658	-5562	-2259	-2000
13306986	-7345	1873	-1749
13307314	-6627	-1265	-1716
13307642	-5117	-1407	-2332
13307970	-3162	525	-3093
13308298	-890	871	-3263
13308626	1104	-216	-3147
13308954	2345	-1586	-2628
13309282	2765	-2246	-2118
13309610	2696	-2288	-1956
13309938	2554	-1886	-2188
13310266	2257	-1236	-2240
13310594	1860	-1038	-2182
13310922	1598	-923	-2138
13311250	1368	-747	-1991
13311578	1605	-753	-1783
13311906	1948	-736	-1650
13312234	2027	-574	-1477
13312562	2196	-519	-1335
13312890	2467	-527	-1318
13313218	2965	-612	-1346
13313546	3559	-685	-1401
13313874	3916	-647	-1332
13314202	4363	-857	-1198
13314530	4704	-954	-1081
13314858	4792	-929	-1017
13315186	4686	-949	-1022
13315514	4165	-727	-1046
13315842	3602	-674	-1054
13316170	3096	-684	-1029
13316498	2732	-673	-1008
13316826	2443	-601	-947
13317154	2435	-390	-842
13317482	2468	-399	-818
13317810	2797	-533	-945
13318138	3284	-829	-1113
13318466	3643	-1282	-1148
13318794	3479	-1225	-1231
13319122	3243	-776	-958
13319450	3244	-453	-668
13319778	3439	-503	-721
13320106	3813	-991	-1045
13320434	4252	-1510	-1276
13320762	4508	-2061	-1317
13321090	4289	-2337	-1329
13321418	3236	-1799	-1383
13321746	2855	-1267	-1441
13322074	2765	-1383	-1621
13322402	3084	-1764	-1993
13322730	3711	-2435	-2296
13323058	4007	-3044	-2335
13323386	3748	-2711	-2195
13323714	3607	-2422	-2183
13324042	3459	-2291	-2315
13324370	3674	-2356	-2434
13324698	4339	-2628	-2593
13325026	5070	-1704	-2599
13325354	6048	-1784	-2222
13325682	7180	-2851	-1852
13326010	7667	-4346	-1735
13326338	7166	-4935	-1805
13326666	6576	-4918	-1844
13326994	5707	-4483	-1619
13327322	5326	-3864	-1161
13327650	5990	-3889	-859
13327978	5898	-3669	-697
13328306	7002	-3015	-142
13328634	7872	-3382	-178
13328962	8602	-3501	-264
13329290	8826	-3294	-188
13329618	8561	-2710	-36
13329946	8367	-2137	146
13330274	8256	-1744	270
13330602	7995	-1386	297
13330930	7712	-1084	389
13331258	6909	-13	786
13331586	7495	233	1497
13331914	8776	-313	1073
13332242	9931	-729	578
13332570	10927	-1115	348
13332898	11612	-1568	320
13333226	12015	-1614	345
13333554	12032	-1613	450
13333882	11787	-1415	549
13334210	10994	-825	579
13334538	10030	628	545
13334866	8874	1841	542
13335194	7563	2703	706
13335522	6291	3372	933
13335850	5483	3318	1384
13336178	5870	2884	1869
13336506	6534	2234	2317
13336834	6907	1659	2480
13337162	7318	1449	2469
13337490	8373	872	1999
13337818	9081	-21	1184
13338146	8878	-616	613
13338474	7995	-797	161
13338802	7038	-943	459
13339130	5576	-992	905
13339458	5012	-1357	1156
13339786	4313	-1021	694
13340114	2953	-572	393
13340442	1483	-91	349
13340770	-33	117	358
13341098	-521	-345	281
13341426	-218	-352	252
13341754	-632	4	150
13342082	-756	-1062	-611
13342410	-589	-1243	-1130
13342738	130	-1118	-1043
13343066	1079	-970	-613
13343394	961	-579	-505
13343722	466	-444	-658
13344050	581	-495	-648
13344378	887	-212	-536
13344706	994	421	-360
13345034	942	710	-273
13345362	643	484	-359
13345690	204	36	-527
13346018	-123	-51	-561
13346346	-373	85	-556
13346674	-309	-93	-556
13347002	-368	-233	-528
13347330	-486	-188	-535
13347658	-867	108	-523
13347986	-1260	266	-480
13348314	-1541	451	-411
13348642	-1700	735	-341
13348970	-1678	777	-341
13349298	-1499	762	-352
13349626	-1226	621	-376
13349954	-1184	378	-469
13350282	-1123	133	-571
13350610	-1314	328	-558
13350938	-1393	27	-653
13351266	-1696	3	-713
13351594	-2198	255	-658
13351922	-2716	752	-632
13352250	-3186	1211	-525
13352578	-3142	1126	-494
13352906	-2856	978	-464
13353234	-2393	825	-389
13353562	-2109	861	-297
13353890	-1655	659	-223
13354218	-1214	400	-208
13354546	-855	343	-132
13354874	-505	286	-16
13355202	-291	211	106
13355530	-105	150	147
13355858	-147	337	205
13356186	-113	410	270
13356514	59	371	333
13356842	233	333	352
13357170	299	324	334
13357498	293	298	322
13357826	242	254	277
13358154	86	241	216
13358482	-316	419	141
13358810	-754	631	78
13359138	-1083	846	24
13359466	-1185	1030	-8
13359794	-463	637	-123
13360122	374	211	-135
13360450	1311	-256	-194
13360778	2018	-335	-197
13361106	2432	-342	-193
13361434	2558	-439	-144
13361762	2425	-374	-87
13362090	1864	-83	-1
13362418	1339	57	52
13362746	805	251	57
13363074	598	143	-50
13363402	441	155	-154
13363730	384	194	-179
13364058	462	92	-207
13364386	609	9	-166
13364714	661	-30	-178
13365042	651	43	-210
13365370	623	163	-271
13365698	652	196	-323
13366026	639	212	-373
13366354	596	169	-407
13366682	438	79	-430
13367010	147	204	-418
13367338	-216	339	-512
13367666	-476	401	-653
13367994	-584	398	-793
13368322	-523	268	-889
13368650	-321	122	-919
13368978	-198	178	-893
13369306	-106	215	-802
13369634	-19	218	-706
13369962	82	238	-599
13370290	158	242	-512
13370618	224	196	-454
13370946	278	150	-372
13371274	264	184	-336
13371602	291	185	-293
13371930	312	172	-249
13372258	345	164	-201
13372586	371	151	-147
13372914	377	94	-142
13373242	323	108	-145
13373570	253	214	-145
13373898	202	166	-170
13374226	55	234	-166
13374554	-26	247	-220
13374882	-6	143	-267
13375210	-35	180	-302
13375538	-16	140	-316
13375866	-29	142	-303
13376194	-68	134	-315
13376522	-112	144	-330
13376850	-145	179	-322
13377178	-165	213	-339
13377506	-147	188	-345
13377834	-191	181	-326
13378162	-215	231	-320
13378490	-225	217	-366
13378818	-243	263	-369
13379146	-226	297	-375
13379474	-239	296	-380
13379802	-198	238	-403
13380130	-163	203	-424
13380458	-95	184	-445
13380786	-5	143	-447
13381114	20	130	-454
13381442	38	122	-457
13381770	28	110	-460
13382098	-8	125	-452
13382426	24	120	-452
13382754	-46	157	-458
13383082	-158	232	-436
13383410	-245	229	-410
13383738	-225	234	-387
13384066	-189	219	-392
13384394	-130	187	-435
13384722	-80	163	-478
13385050	5	157	-533
13385378	96	134	-611
13385706	245	68	-721
13386034	338	25	-844
13386362	383	-10	-964
13386690	315	26	-1074
13387018	152	107	-1084
13387346	-35	168	-964
13387674	-149	48	-794
13388002	-231	83	-525
13388330	-122	26	-365
13388658	-153	-76	-375
13388986	-329	-1	-397
13389314	-578	28	-451
13389642	-816	89	-403
13389970	-979	198	-383
13390298	-1091	277	-379
13390626	-1037	332	-336
13390954	-793	219	-267
13391282	-252	-11	-212
13391610	-188	-5	-145
13391938	-63	-4	-25
13392266	90	-56	0
13392594	208	-39	-4
13392922	278	20	-14
13393250	260	96	-56
13393578	254	93	-117
13393906	203	149	-155
13394234	150	150	-175
13394562	86	139	-187
13394890	4	208	-176
13395218	10	201	-194
13395546	15	213	-231
13395874	9	261	-289
13396202	-6	293	-351
13396530	4	300	-395
13396858	88	298	-473
13397186	250	238	-553
13397514	351	179	-621
13397842	320	120	-684
13398170	154	128	-702
13398498	64	308	-537
13398826	101	271	-310
13399154	235	59	-153
13399482	436	2	-104
13399810	536	62	-86
13400138	481	139	-93
13400466	350	222	-130
13400794	250	273	-156
13401122	230	266	-201
13401450	260	261	-233
13401778	242	256	-255
13402106	154	250	-293
13402434	81	220	-296
13402762	12	196	-298
13403090	2	177	-298
13403418	-4	131	-271
13403746	4	107	-235
13404074	1	130	-218
13404402	-30	151	-203
13404730	-26	169	-180
13405058	-13	175	-161
13405386	-7	195	-145
13405714	-4	240	-127
13406042	-15	219	-109
13406370	-12	217	-89
13406698	4	226	-87
13407026	17	211	-68
13407354	34	190	-59
13407682	47	188	-55
13408010	41	182	-56
13408338	36	173	-42
13408666	29	184	-36
13408994	26	189	-29
13409322	69	194	-18
13409650	80	191	-14
13409978	64	185	-5
13410306	63	209	-10
13410634	33	222	-29
13410962	29	225	-21
13411290	29	232	-8
13411618	8	219	-17
13411946	17	215	-17
13412274	-9	191	-24
13412602	-14	210	-22
13412930	-23	211	-23
13413258	-61	196	-21
13413586	-89	218	-16
13413914	-114	219	-11
13414242	-108	244	5
13414570	-84	227	5
13414898	-58	223	16
13415226	-36	198	7
13415554	-52	202	8
13415882	-106	198	11
13416210	-128	200	7
13416538	-124	213	14
13416866	-120	190	27
13417194	-135	192	25
13417522	-137	199	13
13417850	-174	200	15
13418178	-137	183	28
13418506	-109	182	39
13418834	-110	183	21
13419162	-146	159	24
13419490	-165	173	13
13419818	-188	175	17
13420146	-154	182	32
13420474	-144	194	29
13420802	-97	168	34
13421130	-72	158	39
13421458	-50	137	23
13421786	-39	131	21
13422114	-6	116	17
13422442	0	131	4
13422770	-12	137	-1
13423098	-24	110	-7
13423426	-48	122	-20
13423754	-50	138	-28
13424082	-51	149	-24
13424410	-72	145	-28
13424738	-104	170	-29
13425066	-116	166	-38
13425394	-113	162	-38
13425722	-123	164	-45
13426050	-87	145	-41
13426378	-100	140	-44
13426706	-80	125	-53
13427034	-72	134	-53
13427362	-87	137	-59
13427690	-80	151	-63
13428018	-75	124	-60
13428346	-80	142	-71
13428674	-77	139	-69
13429002	-84	161	-68
13429330	-114	172	-67
13429658	-110	161	-75
13429986	-96	153	-74
13430314	-89	150	-86
13430642	-74	156	-82
13430970	-74	157	-94
13431298	-77	151	-88
13431626	-74	147	-101
13431954	-90	154	-105
13432282	-87	153	-115
13432610	-100	157	-112
13432938	-120	180	-112
13433266	-146	185	-114
13433594	-143	198	-115
13433922	-137	175	-107
13434250	-136	191	-112
13434578	-151	181	-112
13434906	-158	155	-91
13435234	-141	164	-96
13435562	-124	183	-84
13435890	-105	171	-81
13436218	-80	161	-82
13436546	-66	144	-87
13436874	-59	141	-88
13437202	-42	137	-76
13437530	-41	144	-66
13437858	-33	158	-57
13438186	-33	156	-47
13438514	-30	127	-53
13438842	-26	144	-44
13439170	-23	159	-46
13439498	-27	139	-54
13439826	-13	151	-60
13440154	-18	135	-59
13440482	-37	137	-60
13440810	-42	135	-62
13441138	-25	123	-63
13441466	-19	127	-67
13441794	-23	120	-74
13442122	-45	132	-67
13442450	-46	136	-72
13442778	-59	130	-68
13443106	-53	132	-71
13443434	-71	146	-74
13443762	-68	139	-63
13444090	-71	145	-67
13444418	-79	133	-65
13444746	-72	138	-71
13445074	-85	133	-64
13445402	-78	148	-64
13445730	-81	147	-67
13446058	-96	148	-77
13446386	-102	155	-77
13446714	-89	158	-71
13447042	-87	141	-70
13447370	-75	138	-67
13447698	-89	140	-77
13448026	-86	135	-75
13448354	-98	146	-68
13448682	-82	143	-63
13449010	-95	145	-75
13449338	-97	170	-74
13449666	-76	145	-64
13449994	-68	151	-66
13450322	-61	147	-62
13450650	-65	158	-73
13450978	-65	148	-78
13451306	-45	162	-81
13451634	-51	156	-69
13451962	-66	148	-79
13452290	-77	158	-85
13452618	-86	156	-93
13452946	-63	164	-89
13453274	-77	171	-88
13453602	-93	172	-76
13453930	-82	171	-87
13454258	-79	178	-63
13454586	-70	172	-57
13454914	-50	165	-55
13455242	-41	150	-47
13455570	-30	153	-36
13455898	-32	159	-51
13456226	-24	157	-42
13456554	-31	157	-49
13456882	-17	156	-47
13457210	-11	133	-53
13457538	-21	115	-50
13457866	-11	99	-48
13458194	-6	117	-40
13458522	-20	109	-34
13458850	-31	118	-42
13459178	-19	97	-33
13459506	-35	88	-36
13459834	-33	119	-34
13460162	-38	137	-34
13460490	-41	117	-33
13460818	-45	91	-39
13461146	-46	125	-32
13461474	-64	132	-41
13461802	-69	132	-42
13462130	-63	136	-47
13462458	-41	145	-40
13462786	-39	136	-48
13463114	-40	124	-50
13463442	-52	129	-43
13463770	-68	139	-54
13464098	-73	161	-45
13464426	-77	143	-39
13464754	-70	139	-36
13465082	-63	146	-46
13465410	-59	144	-43
13465738	-56	147	-51
13466066	-59	148	-48
13466394	-59	137	-50
13466722	-54	134	-47
13467050	-72	158	-58
13467378	-75	170	-56
13467706	-77	154	-57
13468034	-64	150	-45
13468362	-71	153	-42
13468690	-75	143	-37
13469018	-60	172	-49
13469346	-70	164	-55
13469674	-76	158	-55
13470002	-60	155	-54
13470330	-61	140	-42
13470658	-59	148	-45
13470986	-75	151	-46
13471314	-50	143	-37
13471642	-44	153	-48
13471970	-43	148	-48
13472298	-53	158	-42
13472626	-66	154	-46
13472954	-67	164	-54
13473282	-67	176	-58
13473610	-70	172	-68
13473938	-67	160	-65
13474266	-79	164	-63
13474594	-61	153	-62
13474922	-84	166	-53
13475250	-86	159	-49
13475578	-83	159	-55
13475906	-80	170	-53
13476234	-62	169	-42
13476562	-73	172	-28
13476890	-61	153	-46
13477218	-42	161	-40
13477546	-42	149	-29
13477874	-48	141	-39
13478202	-56	156	-38
13478530	-60	154	-31
13478858	-46	159	-31
13479186	-47	141	-37
13479514	-38	140	-33
13479842	-19	128	-44
13480170	-25	122	-47
13480498	-34	140	-50
13480826	-43	142	-43
13481154	-37	141	-31
13481482	-31	128	-51
13481810	-14	118	-40
13482138	-19	131	-47
13482466	-28	140	-40
13482794	-12	123	-47
13483122	-8	117	-46
13483450	-12	116	-55
13483778	-27	132	-44
13484106	-34	125	-64
13484434	-31	126	-49
13484762	-37	131	-50
13485090	-28	142	-54
13485418	-41	132	-60
13485746	-38	111	-52
13486074	-40	131	-55
13486402	-31	142	-52
13486730	-38	115	-53
13487058	-25	101	-48
13487386	-7	79	-55
13487714	3	96	-56
13488042	9	86	-61
13488370	3	84	-59
13488698	9	80	-62
13489026	6	88	-55
13489354	13	102	-65
13489682	9	84	-62
13490010	8	86	-55
13490338	8	91	-50
13490666	1	104	-55
13490994	-13	120	-53
13491322	-5	118	-51
13491650	-14	116	-45
13491978	-13	125	-47
13492306	-1	137	-39
13492634	11	110	-49
13492962	8	98	-43
13493290	16	95	-42
13493618	32	77	-51
13493946	54	80	-53
13494274	25	93	-42
13494602	36	93	-45
13494930	38	86	-42
13495258	101	29	-25
13495586	117	-23	-38
13495914	73	27	-1
13496242	38	76	9
13496570	26	69	16
13496898	60	62	35
13497226	72	90	50
13497554	63	90	77
13497882	78	70	101
13498210	104	71	173
13498538	141	92	266
13498866	199	106	389
13499194	305	135	502
13499522	361	106	548
13499850	312	102	608
13500178	342	113	718
13500506	348	31	801
13500834	234	119	918
13501162	418	114	1098
13501490	416	118	1222
13501818	275	158	1340
13502146	145	240	1505
13502474	167	308	1671
13502802	220	183	1678
13503130	-2	268	1707
13503458	-23	409	1734
13503786	-32	269	1701
13504114	-27	64	1675
13504442	225	-105	1499
13504770	486	99	1358
13505098	536	292	1301
13505426	339	253	1343
13505754	416	67	1264
13506082	462	-107	1147
13506410	376	-169	1108
13506738	500	-214	1101
13507066	404	-270	1000
13507394	157	-28	1189
13507722	450	-251	1102
13508050	322	-97	1132
13508378	428	-30	1104
13508706	463	79	1133
13509034	608	149	1178
13509362	403	91	1214
13509690	228	115	1194
13510018	396	174	1272
13510346	285	346	1250
13510674	-28	448	1270
13511002	238	263	1264
13511330	300	4	1239
13511658	188	2	1257
13511986	354	-120	1368
13512314	237	-151	1315
13512642	294	-83	1320
13512970	332	-110	1460
13513298	423	-293	1353
13513626	-41	80	1445
13513954	295	69	1692
13514282	356	-11	1714
13514610	665	-112	1782
13514938	1455	-564	1712
13515266	1482	-511	1655
13515594	1068	-256	1742
13515922	1369	-505	1703
13516250	892	-419	1525
13516578	524	203	1636
13516906	990	146	1624
13517234	923	27	1392
13517562	213	486	1354
13517890	507	852	1616
13518218	809	490	1507
13518546	829	259	1212
13518874	500	291	1119
13519202	653	289	1286
13519530	993	234	1105
13519858	870	351	855
13520186	507	660	766
13520514	575	695	806
13520842	408	599	708
13521170	98	595	677
13521498	123	611	1125
13521826	599	387	1002
13522154	1015	184	637
13522482	1165	181	343
13522810	1265	271	375
13523138	1303	337	368
13523466	1248	365	373
13523794	1100	346	368
13524122	991	385	523
13524450	1204	228	425
13524778	1410	126	148
13525106	981	140	150
13525434	726	227	229
13525762	1014	81	79
13526090	1266	76	-275
13526418	1328	189	-387
13526746	1608	157	-367
13527074	1536	42	-82
13527402	1690	2	158
13527730	1498	-9	174
13528058	1123	49	213
13528386	907	162	133
13528714	617	32	63
13529042	433	-104	15
13529370	212	-172	228
13529698	236	-351	180
13530026	261	-542	135
13530354	-5	-515	157
13530682	-193	-501	325
13531010	-169	-644	445
13531338	-120	-687	491
13531666	-355	-566	460
13531994	-672	-774	324
13532322	-874	-1148	323
13532650	-988	-1534	315
13532978	-1853	-1788	227
13533306	-2661	-1507	-465
13533634	-2980	-1417	-1249
13533962	-3123	-1504	-2163
13534290	-3466	-1170	-2754
13534618	-3240	-732	-2862
13534946	-3198	-446	-2837
13535274	-3301	-342	-2671
13535602	-2733	-716	-2981
13535930	-1537	-2002	-3518
13536258	-640	-3272	-4106
13536586	19	-3290	-4127
13536914	282	-2360	-3576
13537242	181	-981	-2994
13537570	-55	718	-1903
13537898	-1031	2599	-427
13538226	-797	3052	559
13538554	827	2783	1641
13538882	4230	1046	3036
13539210	4737	-1662	2826
13539538	121	-1537	418
13539866	-4177	2410	-75
13540194	-2063	2448	935
13540522	-311	1480	569
13540850	-526	2221	439
13541178	-731	2278	261
13541506	-1210	2107	43
13541834	-1576	2024	202
13542162	-1548	1820	121
13542490	-1203	1012	-177
13542818	59	93	-294
13543146	1083	-796	-295
13543474	1502	-1460	-161
13543802	1435	-1002	23
13544130	941	-350	199
13544458	304	-45	49
13544786	-540	284	-197
13545114	-1553	557	-269
13545442	-2006	147	-217
13545770	-2709	291	-183
13546098	-3475	586	-373
13546426	-3822	212	-587
13546754	-3307	-382	-678
13547082	514	-3489	368
13547410	-6880	-1545	-4680
13547738	-8650	8457	-2326
13548066	1817	1235	2547
13548394	8940	-8702	5438
13548722	2232	1985	1696
13549050	-705	6956	2580
13549378	8449	954	4169
13549706	4355	-7084	1951
13550034	-11255	16897	4370
13550362	-12616	9517	2649
13550690	-4556	558	-397
13551018	5666	-4873	-519
13551346	10466	-7135	-2531
13551674	4108	-1568	-2668
13552002	-473	1946	1047
13552330	-1760	1008	1744
13552658	-2057	421	471
13552986	-2338	7	-839
13553314	-3017	704	-1483
13553642	-3205	2097	-2050
13553970	-2963	2731	-2669
13554298	-1865	1230	-1840
13554626	-699	184	-1425
13554954	-586	32	-973
13555282	-635	-215	-670
13555610	-794	-257	-555
13555938	-1220	334	-156
13556266	-401	260	169
13556594	23	-60	264
13556922	324	-4	567
13557250	617	-383	686
13557578	245	-282	635
13557906	-352	527	748
13558234	-804	926	897
13558562	-972	1263	865
13558890	-770	1385	811
13559218	-72	816	549
13559546	348	283	195
13559874	553	45	-16
13560202	352	12	-222
13560530	240	-11	-397
13560858	-143	53	-592
13561186	-515	342	-612
13561514	-460	353	-431
13561842	-66	-76	-462
13562170	40	-40	-490
13562498	304	-40	-464
13562826	373	-98	-607
13563154	554	-113	-523
13563482	471	-127	-476
13563810	466	89	-359
13564138	500	-198	-468
13564466	538	-263	-501
13564794	413	-213	-544
13565122	298	-220	-590
13565450	129	-138	-526
13565778	43	-52	-494
13566106	3	66	-416
13566434	-30	129	-371
13566762	17	272	-313
13567090	108	272	-229
13567418	289	104	-302
13567746	421	58	-344
13568074	762	-142	-360
13568402	1054	-390	-478
13568730	947	-271	-503
13569058	872	-319	-517
13569386	642	-289	-496
13569714	289	43	-346
13570042	74	120	-318
13570370	-150	128	-328
13570698	-271	257	-353
13571026	-276	230	-389
13571354	-76	104	-430
13571682	139	-22	-498
13572010	438	-58	-533
13572338	626	65	-448
13572666	852	130	-219
13572994	552	-320	-358
13573322	439	-255	-522
13573650	540	-3	-722
13573978	1695	-862	-905
13574306	2022	-1049	-923
13574634	1776	-597	-707
13574962	1304	-254	-522
13575290	759	-163	-659
13575618	317	18	-756
13575946	182	-70	-839
13576274	45	-220	-929
13576602	-174	-124	-861
13576930	-396	-85	-776
13577258	-701	-21	-681
13577586	-892	141	-571
13577914	-971	209	-567
13578242	-953	184	-581
13578570	-802	221	-611
13578898	-690	279	-642
13579226	-629	219	-629
13579554	-521	165	-637
13579882	-277	105	-725
13580210	-82	82	-779
13580538	40	8	-758
13580866	133	-89	-758
13581194	146	-126	-746
13581522	81	11	-754
13581850	-1	105	-819
13582178	-78	-8	-848
13582506	-111	-77	-770
13582834	-129	-30	-766
13583162	-177	45	-793
13583490	-237	111	-834
13583818	-268	177	-878
13584146	-27	-82	-863
13584474	50	-278	-842
13584802	-113	-29	-767
13585130	-128	166	-686
13585458	-30	105	-679
13585786	44	75	-684
13586114	179	-36	-655
13586442	227	-49	-596
13586770	272	-27	-575
13587098	263	-44	-560
13587426	196	-87	-522
13587754	288	-46	-521
13588082	224	1	-524
13588410	266	34	-517
13588738	411	-33	-551
13589066	437	-178	-555
13589394	281	-115	-507
13589722	31	-69	-408
13590050	-33	18	-314
13590378	-119	151	-339
13590706	-83	131	-340
13591034	-39	62	-347
13591362	-38	72	-318
13591690	-77	91	-273
13592018	-71	12	-271
13592346	-78	25	-271
13592674	-87	58	-286
13593002	-91	96	-275
13593330	-125	100	-284
13593658	-168	81	-261
13593986	-204	76	-249
13594314	-278	76	-256
13594642	-410	128	-266
13594970	-466	139	-262
13595298	-467	133	-285
13595626	-429	167	-339
13595954	-420	105	-399
13596282	-404	50	-399
13596610	-422	95	-383
13596938	-440	147	-370
13597266	-376	152	-355
13597594	-372	177	-363
13597922	-315	159	-367
13598250	-221	89	-368
13598578	-267	142	-320
13598906	-240	192	-234
13599234	-148	210	-183
13599562	-139	193	-140
13599890	-122	141	-126
13600218	-58	150	-111
13600546	-56	234	-126
13600874	-67	239	-158
13601202	-28	176	-198
13601530	-67	169	-203
13601858	-97	150	-167
13602186	-77	174	-192
13602514	-68	199	-209
13602842	-97	181	-205
13603170	-19	107	-224
13603498	-30	87	-196
13603826	-144	106	-128
13604154	-83	122	-114
13604482	-79	229	-106
13604810	-36	197	-140
13605138	-13	147	-151
13605466	4	134	-136
13605794	21	125	-119
13606122	50	120	-114
13606450	94	149	-123
13606778	89	154	-148
13607106	86	179	-155
13607434	-42	215	-142
13607762	-73	174	-83
13608090	-38	179	-78
13608418	-55	215	-89
13608746	-45	205	-80
13609074	-49	154	-82
13609402	-58	198	-84
13609730	-49	191	-81
13610058	-28	183	-89
13610386	-62	171	-74
13610714	-43	188	-52
13611042	-82	214	-50
13611370	-73	165	-61
13611698	-166	141	-51
13612026	-177	159	-38
13612354	-213	187	-39
13612682	-208	218	-50
13613010	-244	207	-70
13613338	-279	224	-69
13613666	-300	240	-92
13613994	-351	287	-92
13614322	-365	263	-112
13614650	-359	220	-128
13614978	-369	245	-110
13615306	-355	247	-145
13615634	-347	176	-162
13615962	-365	169	-178
13616290	-346	213	-179
13616618	-370	230	-194
13616946	-337	194	-173
13617274	-282	201	-166
13617602	-295	257	-148
13617930	-267	194	-128
13618258	-279	198	-89
13618586	-217	248	-62
13618914	-174	231	-66
13619242	-178	250	-47
13619570	-96	251	-28
13619898	-88	206	-13
13620226	-63	189	2
13620554	-56	180	7
13620882	-111	215	48
13621210	-79	169	47
13621538	-41	193	30
13621866	-14	202	-8
13622194	-33	215	-47
13622522	-55	229	-75
13622850	-58	189	-80
13623178	-60	179	-70
13623506	-73	145	-67
13623834	-42	170	-53
13624162	1	198	-60
13624490	-35	199	-76
13624818	9	152	-72
13625146	30	121	-78
13625474	64	139	-77
13625802	83	88	-53
13626130	48	126	-29
13626458	66	135	-4
13626786	38	173	-20
13627114	45	154	-7
13627442	49	173	-18
13627770	-3	198	-39
13628098	32	193	-34
13628426	22	156	-56
13628754	7	134	-34
13629082	10	134	-18
13629410	45	133	-29
13629738	85	164	-31
13630066	83	137	-46
13630394	68	125	-44
13630722	15	151	-31
13631050	-24	138	-18
13631378	-49	126	-12
13631706	-46	165	-42
13632034	-39	198	-64
13632362	-43	157	-76
13632690	-33	146	-84
13633018	-44	129	-85
13633346	-92	140	-45
13633674	-65	137	-54
13634002	-41	159	-58
13634330	-60	152	-62
13634658	-90	142	-42
13634986	-101	122	-26
13635314	-93	143	-26
13635642	-83	145	-51
13635970	-77	166	-45
13636298	-67	145	-69
13636626	-121	162	-50
13636954	-135	146	-26
13637282	-132	155	-17
13637610	-155	188	15
13637938	-122	183	0
13638266	-91	172	-16
13638594	-96	177	-29
13638922	-74	206	-63
13639250	-74	185	-68
13639578	-67	167	-62
13639906	-70	169	-64
13640234	-31	144	-66
13640562	17	135	-69
13640890	15	128	-67
13641218	12	157	-56
13641546	-46	172	-56
13641874	-81	167	-37
13642202	-50	170	-44
13642530	-36	192	-77
13642858	-5	191	-84
13643186	1	142	-82
13643514	-28	156	-50
13643842	-34	152	-29
13644170	-22	178	-34
13644498	-6	140	-58
13644826	-9	127	-78
13645154	-45	121	-57
13645482	-32	139	-56
13645810	6	135	-74
13646138	2	114	-66
13646466	5	125	-83
13646794	5	141	-88
13647122	-26	162	-80
13647450	-44	164	-56
13647778	-10	117	-65
13648106	15	99	-71
13648434	45	66	-70
13648762	21	85	-66
13649090	53	75	-49
13649418	-66	102	-4
13649746	-13	102	14
13650074	-10	93	-12
13650402	35	88	-11
13650730	31	79	-43
13651058	-10	134	-26
13651386	15	108	-20
13651714	0	88	-17
13652042	58	80	-10
13652370	48	92	-15
13652698	22	98	-60
13653026	-22	116	-42
13653354	-22	127	-40
13653682	4	145	-47
13654010	-3	85	-55
13654338	1	73	-32
13654666	8	82	-30
13654994	-7	108	-45
13655322	4	91	-53
13655650	2	107	-25
13655978	27	115	-20
13656306	35	89	-20
13656634	46	75	4
13656962	42	74	-6
13657290	39	68	9
13657618	12	124	27
13657946	17	104	40
13658274	14	147	27
13658602	-2	154	13
13658930	31	124	-13
13659258	22	122	-35
13659586	36	87	-30
13659914	-14	49	-31
13660242	-14	82	11
13660570	-15	112	7
13660898	-37	172	8
13661226	-36	146	-2
13661554	-32	161	7
13661882	-39	160	-9
13662210	-28	132	-4
13662538	-24	134	12
13662866	-13	127	5
13663194	-57	121	10
13663522	-34	112	35
13663850	-84	133	36
13664178	-77	161	24
13664506	-62	170	12
13664834	-88	167	9
13665162	-49	152	0
13665490	-75	156	16
13665818	-97	166	6
13666146	-68	158	-10
13666474	-61	173	-24
13666802	-90	155	-12
13667130	-119	128	33
13667458	-144	143	63
13667786	-107	189	79
13668114	-80	187	56
13668442	-87	183	22
13668770	-122	165	25
13669098	-149	190	29
13669426	-127	188	39
13669754	-72	192	26
13670082	-42	165	-10
13670410	-66	157	-10
13670738	-173	168	13
13671066	-170	191	26
13671394	-156	235	38
13671722	-171	251	25
13672050	-177	278	29
13672378	-159	239	-1
13672706	-166	270	-12
13673034	-103	203	-93
13673362	-62	181	-92
13673690	-54	169	-77
13674018	22	166	-73
13674346	-49	178	-41
13674674	-127	198	3
13675002	-154	217	18
13675330	-153	210	15
13675658	-154	238	19
13675986	-164	258	-11
13676314	-147	237	-23
13676642	-199	236	14
13676970	-135	225	4
13677298	-104	233	-18
13677626	-94	223	-34
13677954	-63	192	-71
13678282	-100	184	-38
13678610	-90	176	-26
13678938	-104	206	-33
13679266	-88	208	-32
13679594	-91	205	-16
13679922	-95	172	-25
13680250	-98	192	-14
13680578	-45	180	-23
13680906	-26	179	-41
13681234	-20	169	-49
13681562	-37	139	-46
13681890	-70	172	-5
13682218	-50	167	-11
13682546	-58	194	-6
13682874	-17	163	-13
13683202	-22	158	-35
13683530	-44	197	-42
13683858	-151	203	-9
13684186	-93	141	17
13684514	-68	161	17
13684842	-98	161	32
13685170	-127	181	51
13685498	-74	135	28
13685826	-80	189	36
13686154	-75	190	67
13686482	-17	139	57
13686810	-58	188	60
13687138	-27	160	97
13687466	-23	189	113
13687794	-54	183	105
13688122	-16	196	136
13688450	41	194	91
13688778	36	203	74
13689106	102	194	58
13689434	60	161	54
13689762	5	147	74
13690090	17	135	70
13690418	6	153	48
13690746	23	196	19
13691074	-54	176	-1
13691402	-113	199	-5
13691730	-258	234	37
13692058	-235	219	51
13692386	-254	324	34
13692714	-289	339	32
13693042	-328	328	12
13693370	-370	360	11
13693698	-352	365	29
13694026	-309	353	56
13694354	-229	285	48
13694682	-183	290	38
13695010	-159	327	29
13695338	-149	362	43
13695666	-58	393	84
13695994	-49	476	129
13696322	34	512	141
13696650	139	577	134
13696978	168	608	116
13697306	75	641	135
13697634	83	633	123
13697962	67	664	105
13698290	122	678	73
13698618	107	633	18
13698946	105	675	-62
13699274	-5	707	-86
13699602	-28	638	-78
13699930	-173	665	-88
13700258	-322	819	-116
13700586	-371	878	-136
13700914	-507	920	-173
13701242	-564	946	-182
13701570	-588	978	-206
13701898	-670	1057	-198
13702226	-587	1067	-224
13702554	-624	1063	-196
13702882	-681	1072	-216
13703210	-742	1103	-226
13703538	-777	1137	-251
13703866	-813	1183	-283
13704194	-1171	1267	-337
13704522	-1357	1332	-388
13704850	-1702	1438	-381
13705178	-1850	1511	-392
13705506	-1851	1586	-396
13705834	-1841	1587	-386
13706162	-1697	1585	-373
13706490	-1482	1625	-394
13706818	-1170	1376	-375
13707146	-1024	1276	-325
13707474	-957	1369	-298
13707802	-828	1357	-264
13708130	-569	1184	-237
13708458	-312	1052	-258
13708786	-62	962	-279
13709114	-2	955	-286
13709442	92	1080	-287
13709770	337	888	-319
13710098	505	807	-315
13710426	410	732	-306
13710754	161	748	-345
13711082	48	818	-386
13711410	15	761	-433
13711738	91	573	-474
13712066	45	515	-492
13712394	4	465	-473
13712722	51	497	-483
13713050	150	455	-500
13713378	333	354	-454
13713706	502	363	-432
13714034	759	176	-460
13714362	771	96	-434
13714690	788	188	-402
13715018	729	177	-373
13715346	712	175	-325
13715674	665	213	-366
13716002	584	225	-411
13716330	600	184	-470
13716658	627	206	-507
13716986	530	96	-546
13717314	336	169	-541
13717642	188	238	-584
13717970	25	258	-630
13718298	-4	242	-645
13718626	7	237	-693
13718954	126	64	-710
13719282	171	185	-707
13719610	198	155	-698
13719938	288	104	-656
13720266	362	198	-652
13720594	398	208	-670
13720922	444	204	-662
13721250	428	196	-650
13721578	446	270	-646
13721906	453	225	-651
13722234	550	192	-658
13722562	677	122	-694
13722890	783	82	-729
13723218	815	79	-740
13723546	802	41	-746
13723874	773	29	-746
13724202	794	-9	-740
13724530	882	-59	-775
13724858	901	-112	-824
13725186	928	-171	-811
13725514	872	-166	-785
13725842	748	-50	-796
13726170	586	-40	-801
13726498	395	9	-764
13726826	266	-40	-774
13727154	147	88	-748
13727482	128	51	-815
13727810	144	-3	-891
13728138	120	-54	-961
13728466	221	-133	-1009
13728794	327	-244	-1071
13729122	438	-409	-1106
13729450	500	-370	-1116
13729778	542	-414	-1150
13730106	628	-560	-1178
13730434	676	-650	-1201
13730762	807	-712	-1195
13731090	894	-712	-1175
13731418	916	-696	-1138
13731746	1032	-749	-1113
13732074	1059	-789	-1110
13732402	1030	-778	-1115
13732730	979	-672	-1096
13733058	954	-715	-1209
13733386	1018	-768	-1295
13733714	991	-700	-1400
13734042	930	-726	-1488
13734370	700	-945	-1586
13734698	554	-1349	-1788
13735026	547	-880	-1616
13735354	804	-1577	-1568
13735682	489	-1586	-1626
13736010	-46	-1216	-1670
13736338	-225	-1170	-1660
13736666	-68	-1282	-1575
13736994	200	-1526	-1512
13737322	139	-1461	-1427
13737650	-15	-1481	-1338
13737978	169	-1658	-1275
13738306	333	-1547	-1230
13738634	582	-1679	-1216
13738962	940	-2026	-1183
13739290	1030	-2331	-1151
13739618	872	-2366	-1116
13739946	1085	-2343	-995
13740274	1311	-2349	-911
13740602	1526	-2361	-821
13740930	1874	-2545	-712
13741258	2236	-2744	-570
13741586	2491	-2653	-268
13741914	2910	-2576	50
13742242	3110	-2373	511
13742570	3351	-2334	813
13742898	3561	-2019	1017
13743226	3527	-1440	1192
13743554	3163	-861	1584
13743882	2772	-260	1967
13744210	2403	431	2038
13744538	1940	873	2030
13744866	1174	1341	1860
13745194	585	1617	1580
13745522	-353	1793	1470
13745850	-997	1733	1313
13746178	-995	1510	1259
13746506	-656	855	1333
13746834	-461	489	1699
13747162	-618	507	2232
13747490	-1322	822	2761
13747818	-2051	1154	3089
13748146	-2443	1347	3423
13748474	-2700	1644	3846
13748802	-2776	1818	3967
13749130	-2865	1782	4116
13749458	-2817	1671	4181
13749786	-2748	1540	4398
13750114	-2608	1491	4429
13750442	-2558	1436	4638
13750770	-2579	1429	4882
13751098	-2489	1423	5044
13751426	-2332	1390	5186
13751754	-2223	1408	5244
13752082	-2203	1412	5269
13752410	-2186	1434	5278
13752738	-2186	1456	5314
13753066	-2223	1516	5307
13753394	-2179	1492	5354
13753722	-2004	1438	5349
13754050	-1799	1370	5315
13754378	-1585	1289	5347
13754706	-1564	1232	5422
13755034	-1736	1262	5537
13755362	-2102	1259	5701
13755690	-2546	1016	5921
13756018	-2607	818	5914
13756346	-2676	761	5878
13756674	-2895	846	5832
13757002	-3011	903	5823
13757330	-2742	916	5808
13757658	-2169	748	5849
13757986	-2029	761	5800
13758314	-2003	596	5704
13758642	-1067	389	5506
13758970	-552	359	5258
13759298	-885	325	5054
13759626	-775	113	4900
13759954	-679	30	4698
13760282	-583	-157	4241
13760610	72	63	3747
13760938	-94	618	3513
13761266	-41	456	3258
13761594	-93	-80	3046
13761922	243	-353	2837
13762250	633	-126	2432
13762578	459	293	1961
13762906	70	554	1509
13763234	-278	552	1150
13763562	-420	490	795
13763890	-657	616	379
13764218	-947	773	-58
13764546	-980	791	-550
13764874	-1079	742	-954
13765202	-1221	662	-1402
13765530	-1830	826	-1773
13765858	-2638	1113	-2188
13766186	-3940	619	-3288
13766514	-2928	306	-2150
13766842	-1651	-49	-1783
13767170	-1469	1114	-1968
13767498	-2283	3305	-2019
13767826	-2420	3004	-2782
13768154	-848	930	-3163
13768482	-244	866	-2731
13768810	260	1494	-2475
13769138	582	2045	-2326
13769466	621	1933	-2292
13769794	905	1682	-2267
13770122	38	2039	-2087
13770450	-446	1532	-2117
13770778	-559	728	-2619
13771106	-182	547	-2734
13771434	672	651	-2624
13771762	508	942	-2518
13772090	-677	1173	-2617
13772418	-1687	1220	-2798
13772746	-2491	1477	-2774
13773074	-2772	1610	-2897
13773402	-2730	1745	-2864
13773730	-2444	1837	-2867
13774058	-1847	1748	-2859
13774386	-996	1385	-2990
13774714	-142	929	-2994
13775042	596	516	-2992
13775370	823	201	-2999
13775698	532	249	-2992
13776026	-174	520	-2903
13776354	-761	725	-2831
13776682	-1136	929	-2809
13777010	-1270	1119	-2847
13777338	-1285	1195	-2844
13777666	-1221	1051	-2797
13777994	-1152	993	-2739
13778322	-1302	1013	-2599
13778650	-1370	990	-2434
13778978	-1454	1017	-2387
13779306	-1271	860	-2384
13779634	-928	749	-2345
13779962	-543	752	-2312
13780290	-244	745	-2355
13780618	-45	712	-2415
13780946	-55	863	-2473
13781274	-113	967	-2520
13781602	-315	1000	-2447
13781930	-340	1096	-2379
13782258	-159	848	-2335
13782586	-121	687	-2290
13782914	-254	869	-2211
13783242	-154	822	-2146
13783570	43	711	-2138
13783898	305	544	-2175
13784226	456	524	-2151
13784554	431	609	-2125
13784882	382	706	-2091
13785210	337	675	-1989
13785538	391	681	-1879
13785866	547	572	-1855
13786194	663	557	-1896
13786522	763	438	-1961
13786850	640	428	-1957
13787178	565	503	-1942
13787506	526	473	-1936
13787834	491	403	-1898
13788162	427	451	-1918
13788490	346	404	-1997
13788818	221	508	-2007
13789146	216	507	-2037
13789474	277	402	-2076
13789802	493	404	-2068
13790130	689	299	-2064
13790458	918	226	-2054
13790786	1156	143	-2059
13791114	1504	0	-2032
13791442	1696	-21	-1972
13791770	1913	-9	-1952
13792098	2114	-131	-1903
13792426	2309	-272	-1910
13792754	2361	-321	-1922
13793082	2320	-244	-1963
13793410	2157	-92	-1851
13793738	2007	-65	-1661
13794066	1968	-118	-1430
13794394	2000	-256	-1443
13794722	2126	-469	-1595
13795050	2166	-594	-1772
13795378	2167	-448	-1857
13795706	1897	-66	-1920
13796034	2560	-1767	-2588
13796362	2464	-2450	-2725
13796690	2073	-460	-2063
13797018	2353	-1737	-1733
13797346	1625	-1823	-1860
13797674	1025	-1446	-1678
13798002	718	-1308	-1390
13798330	637	-1744	-1379
13798658	377	-1905	-1413
13798986	202	-1754	-1379
13799314	459	-1773	-1308
13799642	918	-1921	-1126
13799970	1482	-2038	-915
13800298	1756	-2104	-773
13800626	1765	-2233	-730
13800954	2160	-2326	-539
13801282	2563	-2425	-291
13801610	3317	-2651	-102
13801938	4138	-2866	11
13802266	4938	-3013	64
13802594	5767	-2982	174
13802922	6243	-2508	276
13803250	6478	-2193	710
13803578	6523	-1856	1151
13803906	6339	-1323	1294
13804234	6050	-858	1322
13804562	5377	-349	1451
13804890	4155	226	1748
13805218	3175	791	2036
13805546	2802	1126	2036
13805874	2474	1249	1942
13806202	1874	1510	1788
13806530	1144	2031	1629
13806858	1104	1841	2023
13807186	1058	1453	2053
13807514	963	1167	2449
13807842	691	1457	3059
13808170	118	1945	3583
13808498	-750	2351	3907
13808826	-1479	2587	4065
13809154	-1888	2591	4210
13809482	-2395	2545	4430
13809810	-2638	2566	4647
13810138	-2864	2610	4740
13810466	-2964	2457	4984
13810794	-2877	2244	5110
13811122	-3011	2125	5226
13811450	-3201	2062	5420
13811778	-3348	2034	5561
13812106	-3231	1967	5659
13812434	-3127	1939	5704
13812762	-2938	1771	5836
13813090	-2692	1637	5873
13813418	-2316	1522	5895
13813746	-1973	1415	5876
13814074	-1681	1358	5843
13814402	-1469	1290	5875
13814730	-1448	1130	6024
13815058	-1400	784	6310
13815386	-1439	423	6422
13815714	-1493	251	6147
13816042	-1692	237	5879
13816370	-2099	264	6175
13816698	-2183	307	6388
13817026	-1927	382	6195
13817354	-1877	487	5956
13817682	-1992	321	5972
13818010	-1566	-35	5957
13818338	-777	-217	5848
13818666	-956	-94	5654
13818994	-1290	-124	5396
13819322	-1839	-277	5225
13819650	-1898	-596	5116
13819978	-2085	-1199	4607
13820306	-2023	-1165	3866
13820634	-2086	-717	3392
13820962	-1220	-786	3170
13821290	-269	-707	2991
13821618	497	-900	2578
13821946	875	-804	2060
13822274	690	-537	1579
13822602	313	-337	1131
13822930	-141	-309	688
13823258	-547	-238	285
13823586	-908	-98	-20
13823914	-1223	12	-324
13824242	-1519	116	-662
13824570	-1846	328	-1038
13824898	-2408	548	-1429
13825226	-3007	992	-1785
13825554	-2597	1298	-2321
13825882	-2165	1045	-2930
13826210	-2825	450	-3757
13826538	-4595	639	-4034
13826866	-1364	-623	-1996
13827194	-1009	-2545	-2007
13827522	-413	-229	-2262
13827850	-1745	3512	-2485
13828178	-1580	2346	-2956
13828506	-1204	1516	-1950
13828834	-1553	2425	-1985
13829162	-1036	2443	-2167
13829490	-532	1779	-2163
13829818	162	1214	-2219
13830146	1229	1309	-2179
13830474	1377	1801	-2108
13830802	1332	1329	-2194
13831130	1245	632	-2364
13831458	1066	784	-2408
13831786	881	884	-2418
13832114	289	842	-2478
13832442	-357	1048	-2486
13832770	-711	1178	-2486
13833098	-1104	1351	-2499
13833426	-1455	1625	-2513
13833754	-1560	1684	-2576
13834082	-1555	1732	-2682
13834410	-1351	1860	-2746
13834738	-1008	1818	-2801
13835066	-658	1526	-2803
13835394	-198	1266	-2785
13835722	344	1021	-2709
13836050	733	787	-2734
13836378	879	687	-2687
13836706	558	659	-2518
13837034	23	677	-2370
13837362	-630	803	-2300
13837690	-1176	1092	-2243
13838018	-1449	1311	-2170
13838346	-1519	1422	-2110
13838674	-1546	1517	-2050
13839002	-1447	1463	-1984
13839330	-1439	1317	-1815
13839658	-1170	1201	-1615
13839986	-966	1078	-1475
13840314	-942	1064	-1346
13840642	-866	1017	-1228
13840970	-1024	915	-1173
13841298	-976	1015	-1025
13841626	-1057	1084	-869
13841954	-975	996	-795
13842282	-935	989	-728
13842610	-805	961	-641
13842938	-514	807	-612
13843266	-196	555	-670
13843594	50	428	-694
13843922	221	346	-696
13844250	333	324	-644
13844578	306	235	-628
13844906	303	143	-593
13845234	290	148	-566
13845562	349	98	-562
13845890	344	74	-543
13846218	323	93	-512
13846546	253	169	-472
13846874	254	159	-440
13847202	206	161	-420
13847530	343	138	-452
13847858	475	150	-499
13848186	582	129	-523
13848514	685	77	-564
13848842	728	-8	-613
13849170	716	23	-663
13849498	737	92	-708
13849826	891	77	-733
13850154	974	71	-750
13850482	1055	-35	-757
13850810	1026	34	-737
13851138	943	85	-692
13851466	876	16	-626
13851794	830	-48	-583
13852122	761	-96	-562
13852450	617	-32	-565
13852778	543	9	-536
13853106	512	62	-518
13853434	457	50	-494
13853762	336	144	-468
13854090	333	72	-495
13854418	569	-128	-557
13854746	675	24	-550
13855074	803	-257	-614
13855402	817	-436	-671
13855730	671	-357	-699
13856058	546	-418	-704
13856386	520	-467	-680
13856714	451	-531	-672
13857042	534	-563	-656
13857370	673	-426	-579
13857698	833	-525	-480
13858026	1004	-650	-444
13858354	1179	-710	-440
13858682	1425	-838	-443
13859010	1583	-852	-459
13859338	1753	-907	-461
13859666	1590	-750	-339
13859994	1460	-653	-298
13860322	1326	-548	-269
13860650	1288	-507	-273
13860978	1282	-553	-338
13861306	1297	-573	-384
13861634	1211	-534	-433
13861962	1232	-513	-492
13862290	1142	-403	-518
13862618	1194	-362	-570
13862946	1232	-563	-579
13863274	983	-339	-574
13863602	992	-223	-621
13863930	927	-300	-658
13864258	809	-270	-666
13864586	787	-197	-699
13864914	709	-217	-700
13865242	675	-206	-703
13865570	601	-164	-757
13865898	687	-209	-808
13866226	782	-373	-855
13866554	796	-329	-920
13866882	961	-418	-999
13867210	948	-488	-1027
13867538	961	-471	-946
13867866	743	-352	-881
13868194	634	-284	-837
13868522	589	-251	-756
13868850	631	-308	-711
13869178	594	-336	-663
13869506	515	-319	-646
13869834	466	-255	-622
13870162	417	-242	-629
13870490	389	-221	-699
13870818	523	-333	-855
13871146	595	-388	-924
13871474	743	-331	-995
13871802	822	-328	-1109
13872130	723	-265	-1153
13872458	511	-192	-1155
13872786	248	-161	-1048
13873114	112	-94	-809
13873442	144	-65	-629
13873770	278	-115	-555
13874098	369	-189	-549
13874426	276	-173	-565
13874754	113	-79	-579
13875082	-33	2	-637
13875410	-198	62	-699
13875738	-329	133	-741
13876066	-383	171	-746
13876394	-379	139	-698
13876722	-391	116	-604
13877050	-424	152	-474
13877378	-375	139	-412
13877706	-193	33	-393
13878034	-51	-20	-421
13878362	-60	-5	-424
13878690	-120	26	-424
13879018	-144	39	-432
13879346	-164	56	-432
13879674	-178	66	-414
13880002	-219	43	-415
13880330	-263	56	-407
13880658	-347	100	-398
13880986	-382	115	-370
13881314	-395	131	-364
13881642	-360	142	-338
13881970	-339	125	-321
13882298	-330	139	-312
13882626	-317	138	-304
13882954	-306	124	-288
13883282	-289	117	-277
13883610	-289	152	-238
13883938	-283	165	-223
13884266	-308	161	-222
13884594	-354	150	-225
13884922	-355	145	-228
13885250	-373	116	-223
13885578	-408	149	-230
13885906	-415	148	-220
13886234	-423	143	-218
13886562	-397	131	-231
13886890	-396	144	-225
13887218	-383	152	-221
13887546	-344	113	-207
13887874	-353	98	-209
13888202	-341	92	-213
13888530	-389	123	-204
13888858	-413	137	-187
13889186	-365	133	-196
13889514	-321	137	-173
13889842	-295	159	-173
13890170	-278	153	-142
13890498	-244	179	-132
13890826	-200	173	-122
13891154	-108	161	-98
13891482	-83	132	-94
13891810	-51	118	-84
13892138	-35	123	-89
13892466	-34	118	-63
13892794	-5	120	-56
13893122	7	136	-71
13893450	-3	121	-60
13893778	-39	110	-72
13894106	-80	143	-69
13894434	-98	167	-67
13894762	-106	164	-66
13895090	-127	188	-86
13895418	-147	204	-93
13895746	-104	133	-116
13896074	-119	136	-93
13896402	-85	131	-103
13896730	-77	124	-88
13897058	-50	131	-88
13897386	-45	120	-97
13897714	-6	120	-90
13898042	33	134	-87
13898370	79	102	-71
13898698	111	90	-65
13899026	91	110	-54
13899354	66	104	-56
13899682	63	102	-62
13900010	94	91	-61
13900338	187	72	-63
13900666	254	3	-58
13900994	298	-2	-78
13901322	272	-38	-88
13901650	303	-146	-100
13901978	263	-185	-96
13902306	166	-149	-83
13902634	28	-110	-105
13902962	-23	-137	-96
13903290	-107	-105	-88
13903618	-213	-82	-93
13903946	-303	-69	-109
13904274	-286	-59	-111
13904602	-258	-138	-121
13904930	-255	-196	-113
13905258	-274	-241	-130
13905586	-315	-209	-110
13905914	-323	-183	-97
13906242	-311	-234	-112
13906570	-283	-263	-90
13906898	-283	-211	-89
13907226	-181	-226	-94
13907554	-141	-304	-95
13907882	-66	-321	-103
13908210	-88	-380	-66
13908538	68	-302	-68
13908866	220	-436	-82
13909194	235	-428	-79
13909522	270	-469	-72
13909850	222	-483	-84
13910178	260	-537	-95
13910506	231	-491	-63
13910834	260	-540	-28
13911162	299	-577	-12
13911490	427	-675	-43
13911818	344	-725	-15
13912146	246	-650	15
13912474	295	-705	18
13912802	232	-746	51
13913130	185	-708	87
13913458	179	-662	124
13913786	234	-689	146
13914114	276	-816	173
13914442	256	-875	198
13914770	158	-848	210
13915098	-48	-797	245
13915426	-245	-744	251
13915754	-405	-670	255
13916082	-530	-598	266
13916410	-568	-575	263
13916738	-595	-576	261
13917066	-540	-652	269
13917394	-569	-690	269
13917722	-595	-775	275
13918050	-683	-782	311
13918378	-698	-813	322
13918706	-721	-838	326
13919034	-710	-877	342
13919362	-789	-833	379
13919690	-780	-840	404
13920018	-758	-892	435
13920346	-784	-840	486
13920674	-852	-778	542
13921002	-864	-726	606
13921330	-871	-724	701
13921658	-972	-703	811
13921986	-1134	-758	1028
13922314	-1241	-738	1158
13922642	-1633	-481	1284
13922970	-1803	-303	1450
13923298	-1862	-377	1509
13923626	-2063	-279	1649
13923954	-2252	-138	1760
13924282	-2438	-97	1827
13924610	-2659	49	1810
13924938	-2928	-6	1803
13925266	-3174	-113	1608
13925594	-3299	-302	1595
13925922	-3233	-431	1506
13926250	-3174	-272	1298
13926578	-3300	265	1397
13926906	-3290	621	1371
13927234	-3377	851	1423
13927562	-3317	971	1464
13927890	-3308	1137	1484
13928218	-3545	1289	1570
13928546	-3756	1317	1607
13928874	-4011	1131	1637
13929202	-4240	1075	1492
13929530	-4517	1179	1323
13929858	-5017	1376	1321
13930186	-5671	1845	1366
13930514	-6332	2087	1729
13930842	-6891	2297	2072
13931170	-7372	2359	2122
13931498	-7669	2454	2133
13931826	-7801	2455	2105
13932154	-7632	2338	2434
13932482	-7320	2141	2650
13932810	-6903	1947	2856
13933138	-6613	1760	3022
13933466	-6358	1537	3111
13933794	-6209	1370	3272
13934122	-6204	1266	3430
13934450	-6266	1217	3596
13934778	-6337	1181	3725
13935106	-6454	1000	3813
13935434	-6625	899	3847
13935762	-7029	985	3790
13936090	-7392	1001	3688
13936418	-7831	955	3634
13936746	-8238	1007	3629
13937074	-8524	1309	3514
13937402	-8913	2030	3520
13937730	-9614	2690	3554
13938058	-10061	3071	3505
13938386	-10333	3347	3443
13938714	-10387	3393	3238
13939042	-9981	3022	2947
13939370	-9340	2359	2546
13939698	-8617	1755	2108
13940026	-8089	1252	1690
13940354	-8019	1015	1506
13940682	-8329	1195	1418
13941010	-8844	1693	1427
13941338	-9164	2108	1502
13941666	-9367	2133	1451
13941994	-9302	1918	1341
13942322	-8885	1745	1187
13942650	-8366	1618	989
13942978	-7899	1364	771
13943306	-7584	1193	553
13943634	-7248	1094	430
13943962	-6996	1132	422
13944290	-6812	1212	294
13944618	-6637	1207	68
13944946	-6674	1097	-240
13945274	-6673	1161	-484
13945602	-6773	1355	-731
13945930	-6670	1355	-1021
13946258	-6633	1349	-1308
13946586	-6502	1520	-1440
13946914	-6334	1803	-1430
13947242	-6061	2144	-1380
13947570	-5648	2347	-1325
13947898	-5338	2445	-1202
13948226	-5162	2668	-1138
13948554	-5356	3057	-1148
13948882	-5476	3518	-1216
13949210	-5238	3660	-1213
13949538	-4861	3529	-1084
13949866	-4312	2932	-889
13950194	-4093	2418	-719
13950522	-4482	2477	-661
13950850	-5089	2554	-762
13951178	-5280	2567	-931
13951506	-5098	2647	-1011
13951834	-4735	2522	-1004
13952162	-4239	2136	-1032
13952490	-3934	1916	-998
13952818	-3484	2412	-644
13953146	-3266	2411	-460
13953474	-3063	2309	-473
13953802	-2689	1953	-685
13954130	-2127	1808	-749
13954458	-1880	1875	-717
13954786	-1696	1645	-794
13955114	-1644	1370	-854
13955442	-1842	1264	-808
13955770	-2449	1565	-638
13956098	-3279	2153	-482
13956426	-4200	2465	-665
13956754	-4944	2465	-1110
13957082	-5402	2480	-1355
13957410	-5368	2220	-1332
13957738	-4838	1619	-1208
13958066	-4499	1507	-912
13958394	-4298	1814	-565
13958722	-4226	2161	-415
13959050	-3910	2017	-591
13959378	-3417	1755	-773
13959706	-2849	1782	-620
13960034	-1967	1406	-548
13960362	-1274	1246	-560
13960690	-869	1161	-567
13961018	-614	764	-725
13961346	-577	372	-849
13961674	-828	465	-872
13962002	-1141	745	-882
13962330	-1204	907	-945
13962658	-1216	1078	-1001
13962986	-1012	910	-1106
13963314	-721	1072	-1125
13963642	-484	1019	-1133
13963970	-439	793	-1230
13964298	-925	699	-1278
13964626	-1673	698	-1272
13964954	-2266	1076	-1250
13965282	-2704	1368	-1221
13965610	-2769	1436	-956
13965938	-2664	1587	-725
13966266	-2455	1562	-771
13966594	-2231	1158	-912
13966922	-2065	1262	-815
13967250	-2094	1227	-905
13967578	-2274	1215	-912
13967906	-2609	1336	-824
13968234	-2670	1103	-848
13968562	-2693	1043	-847
13968890	-2890	833	-907
13969218	-3113	855	-871
13969546	-3404	1086	-804
13969874	-3776	1053	-793
13970202	-4027	1067	-647
13970530	-4004	987	-597
13970858	-3979	899	-669
13971186	-3996	818	-730
13971514	-3917	635	-733
13971842	-3860	572	-751
13972170	-3917	421	-745
13972498	-3994	288	-688
13972826	-4205	318	-565
13973154	-4328	274	-542
13973482	-4453	235	-565
13973810	-4643	285	-560
13974138	-4472	297	-598
13974466	-4090	-59	-642
13974794	-3912	-263	-638
13975122	-4169	-210	-478
13975450	-4635	60	-384
13975778	-4916	189	-424
13976106	-4757	137	-358
13976434	-4398	-29	-291
13976762	-4216	-149	-216
13977090	-4053	-206	-121
13977418	-3843	-316	-84
13977746	-3736	-278	-49
13978074	-3519	-127	86
13978402	-3251	-170	229
13978730	-3061	-230	329
13979058	-2829	-178	443
13979386	-2437	-404	551
13979714	-2346	-241	621
13980042	-2211	-150	704
13980370	-1975	-322	796
13980698	-1759	-461	829
13981026	-1740	-496	884
13981354	-1639	-454	885
13981682	-1457	-655	900
13982010	-1520	-672	960
13982338	-1495	-565	977
13982666	-1526	-565	1004
13982994	-1541	-482	1035
13983322	-1279	-422	1095
13983650	-1485	-444	1140
13983978	-1343	-216	1330
13984306	-847	-673	1620
13984634	-549	-940	1498
13984962	-1012	-254	1629
13985290	-730	-529	1550
13985618	-633	-851	1618
13985946	-463	-1059	1691
13986274	-308	-1165	1767
13986602	-282	-1243	1814
13986930	-322	-1291	1863
13987258	-186	-1479	1905
13987586	125	-1786	1926
13987914	374	-1910	1920
13988242	745	-1914	1959
13988570	848	-1589	2030
13988898	1154	-2151	2063
13989226	1244	-2021	2062
13989554	954	-1527	2189
13989882	951	-1300	2313
13990210	1025	-1257	2305
13990538	964	-1005	2188
13990866	630	-792	1969
13991194	661	-829	1756
13991522	617	-990	1542
13991850	205	-794	1434
13992178	-159	-607	1358
13992506	-823	-526	1179
13992834	-1497	-578	1220
13993162	-2100	-593	1226
13993490	-2625	-490	1221
13993818	-2970	-309	1216
13994146	-3512	-44	1232
13994474	-4137	213	1252
13994802	-4766	333	1175
13995130	-5287	515	1186
13995458	-6328	1135	995
13995786	-7319	1855	879
13996114	-8371	2391	792
13996442	-9525	2491	661
13996770	-10456	2246	366
13997098	-11130	2074	-45
13997426	-11486	2158	-422
13997754	-11432	1963	-682
13998082	-10879	1588	-790
13998410	-10402	1538	-708
13998738	-9909	1710	-565
13999066	-9222	1729	-429
13999394	-8699	2003	-333
13999722	-8046	2443	-277
14000050	-7345	2545	-167
14000378	-6998	2546	-271
14000706	-6310	2290	-210
14001034	-5520	1832	-289
14001362	-4746	1572	-327
14001690	-3981	1312	-423
14002018	-3924	1094	-408
14002346	-3867	879	-443
14002674	-3587	129	-543
14003002	-3285	343	-478
14003330	-3081	1060	-388
14003658	-2552	1220	-488
14003986	-2286	1031	-525
14004314	-2223	859	-511
14004642	-2660	716	-380
14004970	-3043	415	-273
14005298	-3046	1	-453
14005626	-2894	326	-517
14005954	-2828	595	-504
14006282	-2263	515	-599
14006610	-1581	551	-602
14006938	-774	461	-670
14007266	-145	136	-808
14007594	340	-181	-885
14007922	395	-97	-920
14008250	15	-31	-938
14008578	145	-443	-680
14008906	193	-446	-434
14009234	-56	67	-357
14009562	-326	346	-488
14009890	-617	617	-821
14010218	-831	671	-1245
14010546	-1097	726	-1592
14010874	-1321	1075	-1836
14011202	-923	1054	-1945
14011530	-18	454	-1923
14011858	822	-141	-1838
14012186	1247	-212	-1815
14012514	1302	-133	-2067
14012842	1008	-35	-2346
14013170	565	-252	-2577
14013498	-42	-415	-2562
14013826	-579	-393	-2384
14014154	-997	-131	-2120
14014482	-1263	121	-1785
14014810	-1424	316	-1523
14015138	-1885	661	-1466
14015466	-2011	713	-1535
14015794	-2001	702	-1583
14016122	-1830	675	-1578
14016450	-1538	638	-1520
14016778	-1240	627	-1464
14017106	-990	563	-1504
14017434	-759	431	-1453
14017762	-580	296	-1402
14018090	-521	261	-1368
14018418	-525	333	-1342
14018746	-443	449	-1329
14019074	-421	465	-1277
14019402	-487	509	-1141
14019730	-578	573	-981
14020058	-643	622	-879
14020386	-716	624	-809
14020714	-725	680	-741
14021042	-650	678	-702
14021370	-543	661	-658
14021698	-385	640	-637
14022026	-236	597	-598
14022354	-206	609	-566
14022682	-220	656	-555
14023010	-201	640	-525
14023338	-159	614	-515
14023666	-120	607	-517
14023994	-94	502	-503
14024322	-128	502	-502
14024650	-186	502	-507
14024978	-217	511	-477
14025306	-225	510	-464
14025634	-259	506	-442
14025962	-306	521	-415
14026290	-340	514	-420
14026618	-307	454	-423
14026946	-262	431	-399
14027274	-228	448	-377
14027602	-169	448	-365
14027930	-132	396	-350
14028258	-111	368	-320
14028586	-145	402	-320
14028914	-205	414	-315
14029242	-249	436	-324
14029570	-255	392	-323
14029898	-237	388	-309
14030226	-194	365	-298
14030554	-207	338	-295
14030882	-232	382	-287
14031210	-253	355	-286
14031538	-244	352	-277
14031866	-226	349	-283
14032194	-201	312	-268
14032522	-200	322	-271
14032850	-146	286	-256
14033178	-129	268	-242
14033506	-141	298	-233
14033834	-169	285	-217
14034162	-185	290	-221
14034490	-238	295	-213
14034818	-275	316	-200
14035146	-305	334	-195
14035474	-292	293	-194
14035802	-306	278	-189
14036130	-314	288	-177
14036458	-293	299	-171
14036786	-231	277	-154
14037114	-177	247	-162
14037442	-193	246	-163
14037770	-190	249	-143
14038098	-145	227	-135
14038426	-132	253	-125
14038754	-103	251	-116
14039082	-65	232	-97
14039410	-32	204	-96
14039738	-31	207	-100
14040066	-39	224	-92
14040394	-63	253	-78
14040722	-89	262	-74
14041050	-95	277	-66
14041378	-100	290	-62
14041706	-108	283	-67
14042034	-99	255	-75
14042362	-137	236	-80
14042690	-141	256	-86
14043018	-120	203	-102
14043346	-142	233	-78
14043674	-165	233	-92
14044002	-221	255	-89
14044330	-213	258	-80
14044658	-227	258	-84
14044986	-231	261	-85
14045314	-197	256	-97
14045642	-197	238	-102
14045970	-217	241	-99
14046298	-277	291	-122
14046626	-307	288	-112
14046954	-306	296	-106
14047282	-287	321	-108
14047610	-250	261	-114
14047938	-257	262	-113
14048266	-263	302	-103
14048594	-289	321	-106
14048922	-273	350	-92
14049250	-263	385	-94
14049578	-219	360	-83
14049906	-196	367	-75
14050234	-166	354	-90
14050562	-153	364	-81
14050890	-200	394	-79
14051218	-234	408	-80
14051546	-265	427	-83
14051874	-242	412	-102
14052202	-260	421	-102
14052530	-280	422	-109
14052858	-320	445	-108
14053186	-364	458	-110
14053514	-391	496	-108
14053842	-326	486	-96
14054170	-252	445	-101
14054498	-279	463	-99
14054826	-364	488	-96
14055154	-437	533	-126
14055482	-457	505	-127
14055810	-557	566	-130
14056138	-626	609	-154
14056466	-667	619	-162
14056794	-697	653	-151
14057122	-695	681	-161
14057450	-706	678	-164
14057778	-747	675	-164
14058106	-771	677	-160
14058434	-802	694	-149
14058762	-917	761	-159
14059090	-1017	742	-169
14059418	-1130	673	-200
14059746	-1259	793	-220
14060074	-1380	844	-237
14060402	-1391	804	-247
14060730	-1363	771	-245
14061058	-1391	794	-243
14061386	-1350	780	-269
14061714	-1322	667	-294
14062042	-1353	674	-271
14062370	-1335	714	-274
14062698	-1338	700	-283
14063026	-1347	726	-269
14063354	-1366	788	-269
14063682	-1396	803	-283
14064010	-1336	891	-255
14064338	-1150	824	-239
14064666	-967	806	-252
14064994	-820	796	-245
14065322	-608	705	-232
14065650	-370	620	-217
14065978	-229	618	-161
14066306	-309	660	-170
14066634	-371	621	-193
14066962	-419	629	-200
14067290	-458	660	-197
14067618	-516	658	-221
14067946	-500	668	-238
14068274	-398	600	-235
14068602	-336	565	-263
14068930	-271	519	-291
14069258	-213	498	-316
14069586	-157	477	-352
14069914	-80	405	-372
14070242	46	356	-376
14070570	110	308	-382
14070898	237	284	-369
14071226	386	268	-361
14071554	534	166	-341
14071882	553	148	-323
14072210	530	189	-368
14072538	492	136	-383
14072866	484	220	-392
14073194	518	152	-411
14073522	481	162	-437
14073850	445	160	-461
14074178	380	142	-532
14074506	402	29	-558
14074834	370	74	-557
14075162	279	140	-564
14075490	251	57	-589
14075818	214	128	-601
14076146	289	83	-596
14076474	424	26	-628
14076802	489	-53	-646
14077130	679	-115	-663
14077458	754	-124	-639
14077786	762	-73	-591
14078114	603	21	-591
14078442	490	-28	-690
14078770	519	-39	-724
14079098	618	-87	-765
14079426	580	-81	-783
14079754	525	-35	-815
14080082	523	-152	-843
14080410	540	-128	-883
14080738	573	-239	-913
14081066	593	-197	-923
14081394	556	-266	-918
14081722	505	-173	-903
14082050	562	-199	-890
14082378	574	-200	-887
14082706	633	-247	-899
14083034	639	-234	-918
14083362	693	-332	-1004
14083690	807	-448	-1060
14084018	932	-520	-1067
14084346	1040	-610	-1059
14084674	1086	-541	-1041
14085002	1081	-622	-1009
14085330	1053	-590	-956
14085658	983	-572	-990
14085986	1130	-654	-1038
14086314	1338	-884	-1066
14086642	1471	-896	-1036
14086970	1613	-912	-1018
14087298	1539	-880	-1024
14087626	1273	-893	-1140
14087954	1147	-1466	-1311
14088282	829	-915	-1248
14088610	870	-821	-1158
14088938	1107	-1403	-1072
14089266	1083	-1420	-985
14089594	890	-1319	-977
14089922	703	-1026	-914
14090250	751	-1274	-896
14090578	828	-1463	-834
14090906	869	-1301	-730
14091234	933	-1326	-613
14091562	895	-1350	-501
14091890	871	-1541	-515
14092218	703	-1688	-552
14092546	356	-1623	-542
14092874	10	-1716	-494
14093202	-146	-2135	-476
14093530	-215	-2401	-564
14093858	-37	-2441	-568
14094186	566	-2603	-465
14094514	1383	-2676	-279
14094842	2370	-2788	-45
14095170	3641	-3234	-11
14095498	4512	-3343	242
14095826	5166	-3189	624
14096154	5470	-2737	939
14096482	5484	-2129	1360
14096810	4959	-1228	1821
14097138	4521	-317	2546
14097466	3855	319	2982
14097794	2759	855	3040
14098122	1840	1496	3050
14098450	890	2017	3110
14098778	196	2282	3168
14099106	-204	2079	3016
14099434	-10	1865	2741
14099762	-338	1986	2317
14100090	-258	1898	1920
14100418	-244	1421	2038
14100746	-227	1413	2556
14101074	-711	1672	3742
14101402	-1282	2126	4533
14101730	-2334	2634	4583
14102058	-3048	2987	4546
14102386	-3502	3286	4613
14102714	-3362	3341	4642
14103042	-2962	3071	5000
14103370	-2708	2890	5328
14103698	-2575	2881	5502
14104026	-2481	2920	5645
14104354	-2385	2831	5937
14104682	-2084	2706	6005
14105010	-1782	2599	6084
14105338	-1782	2573	6015
14105666	-1947	2585	6067
14105994	-1962	2459	6170
14106322	-1752	2269	6333
14106650	-1600	2202	6363
14106978	-1692	2176	6162
14107306	-1736	2091	6015
14107634	-1734	1940	5932
14107962	-1689	1788	5834
14108290	-1647	1733	5565
14108618	-1675	1667	5272
14108946	-1691	1531	4954
14109274	-1473	1404	4647
14109602	-1172	1572	4159
14109930	-1060	1420	3880
14110258	-693	1200	3898
14110586	-403	871	3590
14110914	-367	678	2985
14111242	-498	700	2538
14111570	-900	801	2047
14111898	-1381	682	1605
14112226	-2005	433	1228
14112554	-2444	309	1116
14112882	-2198	146	876
14113210	-1500	27	606
14113538	-1014	25	415
14113866	-763	-22	64
14114194	-763	7	-284
14114522	-790	67	-609
14114850	-630	36	-1035
14115178	-587	-71	-1493
14115506	-643	26	-1890
14115834	-717	220	-2229
14116162	-767	417	-2619
14116490	-1164	650	-3102
14116818	-1987	743	-3691
14117146	-4903	195	-4845
14117474	-7921	-1282	-4734
14117802	-3024	-3451	-803
14118130	-668	193	-277
14118458	-2975	4860	-1112
14118786	-3203	4743	-1752
14119114	-3420	895	-2992
14119442	-3530	-748	-2881
14119770	-2344	-539	-2528
14120098	-2209	1375	-2078
14120426	-1949	1584	-1643
14120754	-2571	1167	-1804
14121082	-3299	722	-1921
14121410	-2605	-106	-2244
14121738	-1511	62	-2635
14122066	-243	593	-2704
14122394	1101	452	-2623
14122722	1295	-44	-2394
14123050	415	-207	-2337
14123378	-878	243	-2492
14123706	-2082	824	-2561
14124034	-2633	962	-2733
14124362	-2769	1032	-2985
14124690	-2743	1446	-3047
14125018	-2673	1869	-2940
14125346	-2680	2003	-2867
14125674	-2901	1809	-2855
14126002	-3062	1889	-2929
14126330	-3015	1842	-3086
14126658	-2716	1862	-3110
14126986	-2306	1962	-3024
14127314	-1801	1929	-2836
14127642	-1215	1657	-2678
14127970	-704	1349	-2514
14128298	-174	1070	-2317
14128626	281	1000	-2052
14128954	671	786	-1714
14129282	950	640	-1460
14129610	1135	501	-1350
14129938	1155	564	-1262
14130266	1094	523	-1227
14130594	954	620	-1032
14130922	923	703	-848
14131250	808	666	-681
14131578	710	590	-669
14131906	547	626	-616
14132234	361	521	-611
14132562	160	314	-536
14132890	-234	469	-561
14133218	-508	566	-617
14133546	-912	755	-838
14133874	-1173	802	-914
14134202	-1120	738	-951
14134530	-920	601	-1174
14134858	-685	600	-1419
14135186	-470	675	-1522
14135514	-200	554	-1595
14135842	156	434	-1696
14136170	493	380	-1771
14136498	815	400	-1719
14136826	1046	408	-1762
14137154	1297	334	-1758
14137482	1441	341	-1767
14137810	1595	388	-1809
14138138	1756	406	-1894
14138466	1991	251	-1994
14138794	2237	247	-2131
14139122	2465	181	-2266
14139450	2658	16	-2210
14139778	2689	-13	-2147
14140106	2733	-108	-2262
14140434	2746	-254	-2370
14140762	2466	-223	-2008
14141090	2058	-161	-1985
14141418	1822	-67	-1998
14141746	1981	-192	-2040
14142074	2178	-363	-2104
14142402	2245	-342	-2138
14142730	2319	-431	-2176
14143058	2317	-503	-2277
14143386	2310	-508	-2377
14143714	2090	-255	-2407
14144042	1180	204	-2637
14144370	1672	-1831	-3274
14144698	1010	-798	-3134
14145026	1290	-277	-2612
14145354	2309	-2291	-2274
14145682	2271	-1805	-2165
14146010	2014	-605	-2055
14146338	2347	-1282	-1932
14146666	2680	-2352	-1990
14146994	2582	-2163	-1841
14147322	2382	-1545	-1452
14147650	2923	-1996	-1080
14147978	3192	-2754	-900
14148306	2857	-2829	-749
14148634	2426	-2732	-661
14148962	2199	-2692	-570
14149290	2083	-2530	-434
14149618	2252	-2353	-145
14149946	2414	-2362	126
14150274	2919	-2653	212
14150602	3211	-2667	289
14150930	3599	-2620	505
14151258	4203	-2438	710
14151586	4434	-2077	936
14151914	4195	-1222	1166
14152242	3738	-346	1690
14152570	3002	570	2397
14152898	2313	1373	3024
14153226	2278	1264	3198
14153554	2441	808	2915
14153882	2101	628	2291
14154210	1669	876	1779
14154538	1671	864	1325
14154866	1642	455	1167
14155194	1518	140	1345
14155522	1369	341	2672
14155850	832	878	3731
14156178	63	1541	4178
14156506	-886	2102	4478
14156834	-1835	2525	4747
14157162	-2313	2539	4886
14157490	-2503	2348	4999
14157818	-2491	2276	5151
14158146	-2561	2263	5229
14158474	-2697	2300	5378
14158802	-2727	2259	5566
14159130	-2719	2232	5647
14159458	-2579	2090	5792
14159786	-2267	1950	5847
14160114	-2017	1867	5867
14160442	-1861	1875	5848
14160770	-1659	1765	5851
14161098	-1378	1557	5754
14161426	-1038	1434	5779
14161754	-778	1418	5700
14162082	-548	1417	5623
14162410	-353	1372	5551
14162738	-250	1296	5458
14163066	-288	1131	5378
14163394	-424	948	5280
14163722	-931	958	5124
14164050	-1452	1205	5031
14164378	-1791	1415	5054
14164706	-1608	1323	4820
14165034	-976	996	4321
14165362	-399	878	4046
14165690	194	788	3741
14166018	578	1002	3230
14166346	1061	1136	2647
14166674	1570	848	2157
14167002	1854	435	1780
14167330	1867	64	1460
14167658	1607	-58	1107
14167986	1301	23	825
14168314	1110	94	633
14168642	965	295	470
14168970	843	370	248
14169298	475	489	-6
14169626	179	355	-299
14169954	-10	257	-621
14170282	-252	347	-1105
14170610	-755	711	-1538
14170938	-1119	915	-1960
14171266	-1811	1028	-2411
14171594	-8032	-813	-4459
14171922	-5750	-3023	-2081
14172250	-2191	-2420	253
14172578	-3889	2184	-997
14172906	-5085	4784	-1279
14173234	-4062	2061	-2193
14173562	-3568	-121	-2506
14173890	-2118	-1050	-2400
14174218	-853	599	-1915
14174546	-402	1533	-1299
14174874	-1329	926	-1539
14175202	-1914	-565	-1943
14175530	-1040	-1268	-2323
14175858	117	-383	-2677
14176186	1143	232	-2771
14176514	2018	53	-2599
14176842	2140	-312	-2509
14177170	1091	-133	-2388
14177498	-227	236	-2171
14177826	-1422	466	-2083
14178154	-2292	766	-2163
14178482	-2733	1039	-2347
14178810	-2846	1143	-2473
14179138	-2889	1186	-2468
14179466	-2773	1291	-2448
14179794	-2548	1079	-2496
14180122	-2259	987	-2443
14180450	-1901	906	-2377
14180778	-1539	869	-2340
14181106	-1287	812	-2326
14181434	-1241	689	-2296
14181762	-1356	979	-2255
14182090	-1391	1126	-2269
14182418	-1294	1142	-2203
14182746	-1155	1151	-2090
14183074	-1083	1141	-1999
14183402	-1188	1120	-1922
14183730	-1282	1055	-1855
14184058	-1171	954	-1860
14184386	-986	831	-1824
14184714	-685	617	-1768
14185042	-472	559	-1677
14185370	-331	474	-1579
14185698	-395	461	-1495
14186026	-472	448	-1442
14186354	-442	322	-1413
14186682	-351	349	-1332
14187010	-274	291	-1280
14187338	-280	351	-1236
14187666	-343	429	-1205
14187994	-414	497	-1189
14188322	-449	487	-1183
14188650	-412	462	-1184
14188978	-422	445	-1204
14189306	-439	443	-1202
14189634	-564	525	-1224
14189962	-663	555	-1251
14190290	-692	463	-1273
14190618	-699	497	-1282
14190946	-689	504	-1301
14191274	-569	409	-1326
14191602	-523	356	-1335
14191930	-476	311	-1345
14192258	-466	347	-1359
14192586	-434	326	-1359
14192914	-433	349	-1335
14193242	-364	346	-1337
14193570	-226	317	-1330
14193898	-13	266	-1330
14194226	153	172	-1365
14194554	218	82	-1354
14194882	130	116	-1380
14195210	3	178	-1407
14195538	-79	189	-1403
14195866	-183	142	-1402
14196194	-239	75	-1436
14196522	-270	136	-1448
14196850	-262	86	-1466
14197178	-291	89	-1484
14197506	-313	111	-1513
14197834	-184	201	-1497
14198162	211	27	-1512
14198490	580	-77	-1456
14198818	1044	-103	-1401
14199146	1554	-212	-1387
14199474	2124	-482	-1394
14199802	2624	-546	-1298
14200130	2982	-527	-1220
14200458	3332	-828	-1223
14200786	3620	-974	-1214
14201114	3908	-1196	-1139
14201442	3911	-1204	-943
14201770	3574	-1093	-798
14202098	3171	-1178	-749
14202426	2967	-1511	-671
14202754	3051	-1652	-502
14203082	2826	-1348	-340
14203410	2474	-954	-232
14203738	2208	-748	-192
14204066	2115	-510	-115
14204394	2324	-577	-9
14204722	2675	-745	81
14205050	3052	-768	240
14205378	3374	-939	390
14205706	3553	-1056	504
14206034	3618	-1057	667
14206362	3534	-953	841
14206690	3588	-1243	962
14207018	3602	-1601	1075
14207346	3426	-1636	1264
14207674	3160	-1576	1379
14208002	2905	-1615	1546
14208330	2531	-1546	1745
14208658	2073	-1340	1817
14208986	1598	-1224	1859
14209314	1287	-1300	1834
14209642	1217	-1306	1767
14209970	1436	-1239	1834
14210298	1822	-1162	1952
14210626	2006	-945	2099
14210954	1838	-357	2195
14211282	1638	175	2344
14211610	1605	315	2577
14211938	1684	127	2690
14212266	1907	-163	2715
14212594	2056	-242	2689
14212922	2148	-269	2547
14213250	2587	-441	2292
14213578	3106	-608	1795
14213906	3336	-683	1320
14214234	2801	-373	1328
14214562	1844	-6	1899
14214890	924	211	2452
14215218	66	332	2713
14215546	-526	480	2808
14215874	-802	572	2930
14216202	-919	544	3002
14216530	-1020	558	2945
14216858	-1270	727	2876
14217186	-1371	716	2726
14217514	-1303	512	2598
14217842	-1112	284	2452
14218170	-688	-71	2295
14218498	-515	-247	2110
14218826	-346	-202	1902
14219154	-292	-273	1761
14219482	-279	-476	1876
14219810	-327	-600	1965
14220138	-334	-402	1995
14220466	-288	-133	1664
14220794	-262	-79	1439
14221122	-57	-148	1228
14221450	176	-207	1025
14221778	228	-195	748
14222106	62	-67	465
14222434	-298	33	327
14222762	-168	-152	77
14223090	-34	-479	-358
14223418	6	-610	-679
14223746	-273	-539	-682
14224074	-446	-374	-722
14224402	-512	-354	-914
14224730	-1142	289	-1305
14225058	-1987	460	-1716
14225386	-2145	-191	-1884
14225714	-1560	64	-1713
14226042	-1050	68	-1432
14226370	-933	185	-1447
14226698	-834	293	-1611
14227026	-738	292	-1798
14227354	-742	517	-1960
14227682	-925	1149	-2055
14228010	-772	1385	-2063
14228338	-259	685	-2151
14228666	285	-178	-2143
14228994	495	-417	-1963
14229322	180	-1	-1818
14229650	-407	560	-1780
14229978	-952	854	-1723
14230306	-1399	1072	-1661
14230634	-1576	1180	-1656
14230962	-1471	1071	-1635
14231290	-1321	979	-1617
14231618	-1216	1030	-1547
14231946	-1247	945	-1477
14232274	-1386	830	-1392
14232602	-1458	698	-1358
14232930	-1475	674	-1310
14233258	-1344	733	-1269
14233586	-824	595	-1097
14233914	-723	633	-976
14234242	-758	711	-896
14234570	-882	829	-838
14234898	-997	908	-801
14235226	-1108	939	-791
14235554	-1071	933	-766
14235882	-1027	957	-755
14236210	-996	919	-731
14236538	-911	841	-727
14236866	-816	816	-705
14237194	-708	787	-686
14237522	-597	766	-659
14237850	-473	650	-623
14238178	-372	666	-583
14238506	-284	680	-566
14238834	-165	637	-516
14239162	-101	607	-458
14239490	-30	606	-398
14239818	-34	637	-346
14240146	-84	610	-324
14240474	-122	668	-297
14240802	-152	681	-279
14241130	-178	682	-235
14241458	-164	681	-193
14241786	-126	631	-174
14242114	-76	585	-157
14242442	-73	545	-149
14242770	-81	536	-150
14243098	-65	504	-150
14243426	-51	436	-150
14243754	-47	418	-153
14244082	-48	435	-144
14244410	-49	436	-142
14244738	-28	378	-162
14245066	-33	336	-149
14245394	-74	340	-130
14245722	-101	322	-102
14246050	-133	303	-83
14246378	-148	330	-72
14246706	-153	357	-66
14247034	-95	320	-44
14247362	-53	281	-20
14247690	-11	266	-29
14248018	-19	257	-30
14248346	-14	249	-37
14248674	21	206	-31
14249002	20	202	-24
14249330	38	191	3
14249658	4	201	4
14249986	-12	177	20
14250314	-29	148	15
14250642	-44	155	2
14250970	-80	163	4
14251298	-79	161	18
14251626	-86	175	23
14251954	-111	161	26
14252282	-101	144	5
14252610	-69	133	24
14252938	-13	115	42
14253266	6	167	53
14253594	48	165	72
14253922	73	118	71
14254250	89	134	64
14254578	92	104	46
14254906	94	114	26
14255234	60	148	29
14255562	50	117	23
14255890	4	97	18
14256218	-21	99	27
14256546	-43	87	3
14256874	-66	114	-7
14257202	-72	119	-19
14257530	-33	100	-19
14257858	-77	108	-37
14258186	-136	137	-48
14258514	-193	139	-65
14258842	-209	140	-74
14259170	-187	143	-76
14259498	-142	138	-74
14259826	-78	122	-82
14260154	-20	115	-66
14260482	-16	84	-69
14260810	0	56	-70
14261138	-26	90	-73
14261466	-65	123	-77
14261794	-88	127	-67
14262122	-81	139	-74
14262450	-117	121	-71
14262778	-129	125	-86
14263106	-128	140	-90
14263434	-90	127	-76
14263762	-101	133	-73
14264090	-115	135	-89
14264418	-113	127	-89
14264746	-66	125	-82
14265074	-55	135	-79
14265402	-29	119	-81
14265730	18	64	-97
14266058	86	27	-98
14266386	117	14	-89
14266714	155	14	-84
14267042	144	15	-73
14267370	73	64	-54
14267698	15	138	-57
14268026	-22	127	-60
14268354	-17	133	-41
14268682	14	160	-25
14269010	59	157	2
14269338	56	161	10
14269666	57	136	-3
14269994	9	197	-3
14270322	11	245	1
14270650	10	238	39
14270978	20	253	74
14271306	-12	278	86
14271634	-78	340	95
14271962	-203	445	109
14272290	-350	521	92
14272618	-466	567	95
14272946	-580	584	126
14273274	-682	655	145
14273602	-743	716	163
14273930	-796	678	212
14274258	-913	680	212
14274586	-1009	675	179
14274914	-1089	759	172
14275242	-1122	802	176
14275570	-1240	824	147
14275898	-1356	866	150
14276226	-1515	910	146
14276554	-1712	932	136
14276882	-1901	1021	178
14277210	-2038	1129	181
14277538	-2122	1157	178
14277866	-2163	1245	211
14278194	-2141	1219	191
14278522	-2157	1132	171
14278850	-2207	1096	174
14279178	-2191	1120	167
14279506	-2153	1175	150
14279834	-2215	1175	111
14280162	-2184	1157	90
14280490	-2062	1166	64
14280818	-1788	1300	156
14281146	-1359	1041	252
14281474	-1113	1026	331
14281802	-1223	1307	402
14282130	-1539	1354	436
14282458	-1889	1325	489
14282786	-2050	1445	568
14283114	-2175	1469	638
14283442	-2327	1298	734
14283770	-2258	1106	711
14284098	-2174	977	627
14284426	-2094	949	508
14284754	-2095	936	493
14285082	-2078	949	542
14285410	-2024	963	523
14285738	-1911	940	427
14286066	-1742	872	376
14286394	-1524	808	351
14286722	-1293	681	265
14287050	-1103	623	195
14287378	-1099	592	172
14287706	-1033	502	178
14288034	-923	427	112
14288362	-881	437	91
14288690	-926	452	84
14289018	-953	370	43
14289346	-1044	431	-13
14289674	-1100	409	-107
14290002	-1091	349	-173
14290330	-1154	351	-223
14290658	-1249	314	-253
14290986	-1409	347	-251
14291314	-1531	404	-250
14291642	-1605	417	-254
14291970	-1621	375	-276
14292298	-1664	343	-256
14292626	-1768	392	-274
14292954	-1849	475	-274
14293282	-1813	449	-287
14293610	-1676	431	-303
14293938	-1520	194	-347
14294266	-1569	169	-323
14294594	-1775	173	-295
14294922	-1981	144	-337
14295250	-2189	251	-326
14295578	-2287	389	-293
14295906	-2310	356	-290
14296234	-2425	403	-218
14296562	-2413	375	-196
14296890	-2458	341	-167
14297218	-2410	343	-73
14297546	-2303	264	-13
14297874	-2180	223	27
14298202	-2116	221	69
14298530	-1930	72	139
14298858	-1756	-75	321
14299186	-1712	3	522
14299514	-1565	-102	608
14299842	-1483	-252	700
14300170	-1317	-323	746
14300498	-1177	-441	822
14300826	-1090	-492	864
14301154	-1193	-449	941
14301482	-1275	-345	1001
14301810	-1322	-454	1021
14302138	-580	-586	1396
14302466	-1272	-1122	1374
14302794	-1223	-1009	1097
14303122	-1081	-870	1199
14303450	-714	-1464	1122
14303778	-522	-1630	1210
14304106	-432	-1841	1226
14304434	-403	-1855	1215
14304762	-524	-1947	1202
14305090	-807	-1852	1182
14305418	-1227	-1802	1241
14305746	-1410	-1894	1226
14306074	-1579	-1938	1137
14306402	-1992	-1902	1085
14306730	-2244	-2171	1065
14307058	-2674	-2257	933
14307386	-3306	-1980	943
14307714	-3466	-1912	901
14308042	-3706	-1683	895
14308370	-3771	-1536	986
14308698	-4010	-1372	1137
14309026	-4418	-1260	1166
14309354	-4766	-1185	1439
14309682	-5320	-1131	1259
14310010	-6182	-770	1163
14310338	-7263	-323	1159
14310666	-8252	-176	933
14310994	-9169	-6	813
14311322	-10074	718	803
14311650	-10969	1512	895
14311978	-11730	1875	860
14312306	-12312	1631	689
14312634	-12831	1339	398
14312962	-13351	1437	126
14313290	-13826	1639	-67
14313618	-14224	1725	-112
14313946	-14537	1846	-39
14314274	-14845	1840	-12
14314602	-15274	1861	32
14314930	-15758	1940	48
14315258	-16057	1964	121
14315586	-16671	2276	152
14315914	-17038	2210	292
14316242	-17301	2278	441
14316570	-17294	2218	584
14316898	-17497	2304	697
14317226	-17699	2381	854
14317554	-17879	2441	972
14317882	-17896	2125	1097
14318210	-17816	1792	1253
14318538	-17652	1864	1407
14318866	-17403	2404	1617
14319194	-17191	2806	1747
14319522	-16880	3011	1894
14319850	-16556	2790	2170
14320178	-16049	2428	2445
14320506	-15539	2355	2577
14320834	-15162	2328	2521
14321162	-14702	2142	2374
14321490	-14103	1879	2209
14321818	-13558	1660	2038
14322146	-13166	1497	1892
14322474	-12929	1478	1872
14322802	-12701	1490	1841
14323130	-12441	1396	1751
14323458	-12431	1314	1629
14323786	-12505	1248	1560
14324114	-12589	1398	1541
14324442	-12815	1619	1426
14324770	-13145	1617	1348
14325098	-13341	1549	1214
14325426	-13406	1525	1048
14325754	-13251	1400	876
14326082	-12924	1212	720
14326410	-12343	998	494
14326738	-11708	655	343
14327066	-10716	667	112
14327394	-10398	754	-31
14327722	-10215	815	-61
14328050	-10024	866	-46
14328378	-9814	893	-114
14328706	-9676	859	-224
14329034	-9408	791	-330
14329362	-8935	882	-417
14329690	-8308	1028	-539
14330018	-7732	1240	-621
14330346	-7385	1412	-673
14330674	-7071	1480	-699
14331002	-6588	1581	-757
14331330	-5938	1655	-489
14331658	-5322	1725	-441
14331986	-4883	1947	-334
14332314	-4805	2442	-267
14332642	-4700	2514	-368
14332970	-4076	2445	-622
14333298	-3172	2528	-895
14333626	-2373	2638	-1089
14333954	-1449	2467	-1205
14334282	-450	2111	-1209
14334610	290	1975	-1165
14334938	910	1928	-1058
14335266	1246	1933	-961
14335594	1299	1754	-982
14335922	1160	1574	-1084
14336250	873	1615	-1163
14336578	486	1742	-944
14336906	177	1931	-578
14337234	16	2038	-264
14337562	-361	2177	-261
14337890	-334	2238	-188
14338218	-116	2639	-7
14338546	166	2747	159
14338874	673	2357	472
14339202	828	1549	530
14339530	192	1599	420
14339858	-803	1895	322
14340186	-1615	1901	302
14340514	-1857	1774	384
14340842	-1861	1773	495
14341170	-2036	1930	579
14341498	-2184	1948	558
14341826	-2050	1787	407
14342154	-1924	1550	234
14342482	-1671	1196	89
14342810	-1281	791	-4
14343138	-1151	550	-63
14343466	-1238	455	-31
14343794	-1554	614	-12
14344122	-1775	860	-27
14344450	-1806	921	-44
14344778	-1551	554	-97
14345106	-1408	376	-78
14345434	-1426	460	-12
14345762	-1545	624	-8
14346090	-1587	609	-68
14346418	-1609	396	-83
14346746	-1517	230	-96
14347074	-1493	47	-135
14347402	-1609	-14	-55
14347730	-1713	19	-12
14348058	-1960	245	30
14348386	-2028	269	39
14348714	-1960	106	-36
14349042	-1854	-21	-67
14349370	-1725	-135	-114
14349698	-1803	-7	-44
14350026	-1838	223	36
14350354	-1826	348	44
14350682	-1749	341	35
14351010	-1693	312	38
14351338	-1615	214	23
14351666	-1581	109	-34
14351994	-1562	106	-103
14352322	-1653	114	-154
14352650	-1752	94	-149
14352978	-1957	162	-164
14353306	-2126	180	-207
14353634	-2283	116	-271
14353962	-2277	37	-337
14354290	-2026	-110	-400
14354618	-1924	180	-320
14354946	-1764	160	-228
14355274	-1629	4	-145
14355602	-1625	195	-80
14355930	-1677	411	-18
14356258	-1560	271	0
14356586	-1393	80	35
14356914	-1276	-50	30
14357242	-1038	-177	9
14357570	-882	-52	81
14357898	-749	-243	102
14358226	-834	-159	292
14358554	-868	-66	312
14358882	-854	-59	327
14359210	-716	-46	241
14359538	-548	6	210
14359866	-250	-105	231
14360194	80	-241	186
14360522	354	-356	177
14360850	730	-537	141
14361178	1091	-756	73
14361506	1473	-925	55
14361834	1649	-900	49
14362162	1747	-931	74
14362490	1639	-807	103
14362818	1439	-553	155
14363146	1297	-397	231
14363474	1249	-359	261
14363802	1155	-378	258
14364130	1048	-430	179
14364458	945	-495	89
14364786	897	-606	1
14365114	782	-601	-68
14365442	645	-552	-143
14365770	529	-575	-227
14366098	425	-546	-262
14366426	307	-486	-254
14366754	208	-373	-239
14367082	178	-342	-268
14367410	127	-338	-279
14367738	88	-339	-261
14368066	30	-281	-247
14368394	7	-268	-297
14368722	-13	-234	-338
14369050	-78	-213	-379
14369378	-6	-201	-390
14369706	106	-252	-402
14370034	155	-265	-356
14370362	197	-250	-311
14370690	166	-195	-263
14371018	171	-144	-207
14371346	199	-157	-219
14371674	153	-131	-243
14372002	124	-68	-270
14372330	93	-78	-288
14372658	51	-65	-295
14372986	-68	-10	-288
14373314	-182	-49	-314
14373642	-204	-86	-306
14373970	-258	-55	-277
14374298	-264	-40	-225
14374626	-212	-68	-199
14374954	-139	-14	-188
14375282	-99	19	-184
14375610	38	-28	-156
14375938	128	-34	-136
14376266	132	-39	-103
14376594	128	-25	-52
14376922	103	8	-33
14377250	135	44	-27
14377578	150	80	-40
14377906	160	89	-64
14378234	220	51	-101
14378562	220	48	-123
14378890	198	62	-144
14379218	196	87	-159
14379546	177	106	-208
14379874	182	87	-264
14380202	212	32	-275
14380530	227	8	-285
14380858	166	57	-314
14381186	153	105	-360
14381514	247	13	-430
14381842	249	-44	-488
14382170	242	42	-533
14382498	230	56	-595
14382826	224	5	-650
14383154	243	-2	-703
14383482	294	-13	-698
14383810	357	-88	-694
14384138	379	-76	-631
14384466	358	-75	-588
14384794	287	-10	-568
14385122	214	91	-492
14385450	243	103	-409
14385778	289	63	-397
14386106	396	6	-441
14386434	432	10	-491
14386762	337	41	-502
14387090	196	121	-466
14387418	79	167	-395
14387746	47	75	-359
14388074	47	76	-325
14388402	116	78	-330
14388730	128	58	-354
14389058	54	78	-402
14389386	-85	117	-407
14389714	-170	189	-355
14390042	-171	193	-250
14390370	-102	125	-186
14390698	32	-9	-169
14391026	73	2	-182
14391354	56	75	-201
14391682	24	75	-226
14392010	-48	50	-247
14392338	-88	75	-264
14392666	-95	130	-263
14392994	-114	146	-232
14393322	-107	149	-171
14393650	-82	125	-116
14393978	-27	87	-91
14394306	-20	116	-86
14394634	-73	176	-119
14394962	-114	172	-127
14395290	-150	142	-145
14395618	-174	157	-171
14395946	-194	172	-154
14396274	-212	213	-146
14396602	-194	191	-142
14396930	-173	134	-137
14397258	-138	104	-117
14397586	-138	145	-113
14397914	-148	161	-113
14398242	-143	146	-123
14398570	-176	152	-127
14398898	-214	196	-112
14399226	-202	198	-76
14399554	-159	196	-54
14399882	-105	157	-72
14400210	-96	157	-74
14400538	-81	150	-92
14400866	-132	151	-95
14401194	-175	178	-88
14401522	-159	188	-80
14401850	-127	177	-74
14402178	-101	170	-53
14402506	-113	159	-64
14402834	-116	164	-40
14403162	-123	168	-43
14403490	-106	189	-58
14403818	-99	182	-85
14404146	-115	201	-89
14404474	-151	234	-94
14404802	-123	212	-73
14405130	-103	198	-68
14405458	-71	163	-65
14405786	-112	166	-64
14406114	-113	185	-77
14406442	-95	170	-72
14406770	-100	153	-71
14407098	-127	190	-66
14407426	-117	184	-63
14407754	-128	198	-42
14408082	-134	205	-25
14408410	-114	224	-1
14408738	-107	226	4
14409066	-126	226	1
14409394	-141	226	8
14409722	-175	255	21
14410050	-200	253	40
14410378	-218	265	69
14410706	-233	275	71
14411034	-258	287	61
14411362	-349	326	72
14411690	-404	383	100
14412018	-386	372	108
14412346	-363	364	139
14412674	-351	375	171
14413002	-324	363	194
14413330	-292	386	188
14413658	-250	394	193
14413986	-187	373	220
14414314	-201	363	265
14414642	-213	385	298
14414970	-209	473	351
14415298	-188	510	418
14415626	-173	455	440
14415954	-249	420	479
14416282	-431	505	609
14416610	-493	662	805
14416938	-549	500	897
14417266	-678	437	970
14417594	-700	390	1048
14417922	-730	422	1138
14418250	-769	527	1258
14418578	-804	482	1325
14418906	-838	357	1296
14419234	-852	216	1253
14419562	-526	162	1212
14419890	75	350	1244
14420218	453	256	1217
14420546	615	202	1215
14420874	670	302	1141
14421202	635	339	1079
14421530	603	426	997
14421858	546	533	825
14422186	486	566	653
14422514	566	543	509
14422842	488	503	375
14423170	491	477	291
14423498	409	438	222
14423826	233	459	161
14424154	-50	478	145
14424482	-233	579	166
14424810	-365	689	142
14425138	-431	879	176
14425466	-311	935	169
14425794	-132	927	181
14426122	65	887	175
14426450	228	827	158
14426778	208	841	167
14427106	309	769	190
14427434	322	757	202
14427762	299	773	210
14428090	253	811	231
14428418	73	1002	281
14428746	-93	1072	271
14429074	-248	1165	284
14429402	-184	1139	315
14429730	-149	1105	340
14430058	-156	1112	310
14430386	-252	1164	323
14430714	-332	1182	300
14431042	-391	1262	280
14431370	-349	1255	258
14431698	-218	1238	261
14432026	-86	1230	317
14432354	36	1230	337
14432682	208	1111	325
14433010	289	1088	304
14433338	355	993	274
14433666	534	823	305
14433994	653	821	327
14434322	527	807	336
14434650	414	867	346
14434978	300	918	368
14435306	199	956	356
14435634	291	833	303
14435962	612	526	214
14436290	1005	196	170
14436618	1302	26	164
14436946	1388	80	208
14437274	1445	108	203
14437602	1578	80	230
14437930	1848	11	257
14438258	2339	-288	221
14438586	2887	-678	247
14438914	3199	-782	247
14439242	3386	-858	255
14439570	3418	-776	241
14439898	3452	-888	244
14440226	3406	-860	259
14440554	3307	-809	211
14440882	3339	-902	209
14441210	3187	-725	300
14441538	2987	-772	234
14441866	2786	-601	221
14442194	2859	-538	241
14442522	3183	-754	199
14442850	3472	-862	216
14443178	3672	-846	282
14443506	3773	-937	244
14443834	4012	-1045	212
14444162	4243	-1190	216
14444490	4382	-1290	209
14444818	4404	-1201	179
14445146	4388	-1144	201
14445474	4268	-860	212
14445802	4223	-779	219
14446130	4389	-917	187
14446458	4664	-908	194
14446786	4992	-1144	164
14447114	5295	-1249	127
14447442	5417	-1254	182
14447770	5492	-1319	164
14448098	5630	-1460	111
14448426	5862	-1565	98
14448754	6072	-1755	44
14449082	6319	-1948	-1
14449410	6328	-1859	43
14449738	6237	-1827	53
14450066	5955	-1568	103
14450394	5454	-1475	197
14450722	5484	-1600	103
14451050	5415	-1682	-5
14451378	5241	-1607	-47
14451706	5036	-1616	-84
14452034	4934	-1709	-71
14452362	4831	-1724	-65
14452690	4870	-1640	5
14453018	4938	-1777	57
14453346	4965	-1995	92
14453674	5143	-2122	319
14454002	5495	-1998	310
14454330	5766	-1708	259
14454658	6165	-1708	329
14454986	6541	-1784	474
14455314	6888	-1637	570
14455642	7360	-1639	579
14455970	7819	-1978	623
14456298	8328	-2542	557
14456626	8387	-2561	440
14456954	8007	-1951	457
14457282	7789	-1335	473
14457610	8110	-1176	485
14457938	8879	-1320	563
14458266	9920	-1500	654
14458594	10688	-1607	679
14458922	11096	-1574	621
14459250	11052	-1268	486
14459578	11173	-1280	361
14459906	11910	-1406	265
14460234	12903	-1496	190
14460562	13853	-1527	82
14460890	14818	-1387	-25
14461218	15766	-1235	-112
14461546	16766	-1049	-221
14461874	17771	-1146	-418
14462202	18637	-1465	-600
14462530	19138	-1302	-714
14462858	19272	-1484	-794
14463186	19341	-2570	-977
14463514	19081	-3637	-1238
14463842	18266	-3784	-1475
14464170	17100	-3386	-1600
14464498	16023	-2590	-1770
14464826	15537	-1915	-1718
14465154	15535	-1620	-1544
14465482	15686	-1535	-1322
14465810	16055	-1872	-1197
14466138	16331	-2294	-1230
14466466	16292	-2456	-1252
14466794	15764	-2446	-1242
14467122	15204	-2420	-1123
14467450	14731	-2369	-1040
14467778	14621	-2489	-1071
14468106	14462	-2961	-1098
14468434	14139	-3167	-1137
14468762	13779	-3106	-1141
14469090	13445	-3060	-1111
14469418	13197	-3022	-1083
14469746	12846	-2960	-1036
14470074	12460	-2920	-973
14470402	12137	-2820	-941
14470730	11967	-2778	-984
14471058	11617	-2794	-1037
14471386	11125	-2679	-1024
14471714	10594	-2326	-1083
14472042	9727	-1830	-970
14472370	9100	-1498	-856
14472698	8856	-1505	-891
14473026	8430	-1604	-908
14473354	7997	-1402	-869
14473682	7524	-1046	-772
14474010	7086	-845	-697
14474338	6847	-666	-714
14474666	7234	-725	-787
14474994	7570	-860	-945
14475322	7721	-976	-1039
14475650	7761	-946	-1045
14475978	7805	-729	-1106
14476306	7833	-597	-1182
14476634	7588	-524	-1227
14476962	7233	-477	-1197
14477290	6963	-396	-1087
14477618	6930	-286	-1140
14477946	6961	-112	-1196
14478274	6631	245	-1234
14478602	6120	385	-1437
14478930	5543	545	-1726
14479258	4879	702	-1848
14479586	4287	796	-1797
14479914	3621	587	-1659
14480242	2983	432	-1585
14480570	1925	851	-1414
14480898	1592	955	-1399
14481226	1419	1067	-1411
14481554	1547	1067	-1379
14481882	1527	1158	-1351
14482210	1354	1489	-1254
14482538	1081	1464	-1195
14482866	994	1354	-1205
14483194	862	1344	-1257
14483522	1087	1123	-1320
14483850	1462	956	-1175
14484178	1267	819	-964
14484506	1066	560	-696
14484834	913	440	-503
14485162	402	854	-161
14485490	-336	1258	409
14485818	-729	1186	810
14486146	-1124	1020	1060
14486474	-1303	1053	1270
14486802	-790	699	1496
14487130	-212	-194	1459
14487458	-1546	-278	930
14487786	-3928	1773	600
14488114	-4748	3387	958
14488442	-3914	2110	1279
14488770	-3206	643	817
14489098	-4360	2372	764
14489426	-4154	3659	543
14489754	-3055	2122	189
14490082	-1764	628	320
14490410	-1212	472	379
14490738	-913	527	220
14491066	-813	751	270
14491394	-638	762	379
14491722	-676	912	437
14492050	-729	1251	421
14492378	-831	1242	339
14492706	-888	1048	229
14493034	-1022	813	130
14493362	-1203	759	83
14493690	-1638	751	49
14494018	-2269	841	59
14494346	-2794	1092	118
14494674	-2818	1214	144
14495002	-2496	1253	137
14495330	-1982	994	187
14495658	-1412	729	124
14495986	-853	543	61
14496314	-513	535	123
14496642	-450	684	285
14496970	-457	554	346
14497298	-670	777	385
14497626	-741	968	402
14497954	-449	836	417
14498282	-46	538	374
14498610	173	442	358
14498938	371	306	301
14499266	560	88	202
14499594	680	-184	52
14499922	649	-148	-34
14500250	679	-204	-118
14500578	715	-203	-105
14500906	952	-329	-153
14501234	1174	-341	-307
14501562	1249	-291	-325
14501890	1375	-522	-307
14502218	1266	-630	-328
14502546	1106	-595	-406
14502874	1016	-413	-428
14503202	1231	-562	-541
14503530	1251	-497	-558
14503858	1358	-574	-515
14504186	1348	-678	-548
14504514	1104	-405	-594
14504842	1055	-316	-609
14505170	1220	-504	-735
14505498	1346	-497	-799
14505826	1502	-461	-720
14506154	1815	-876	-737
14506482	1775	-641	-592
14506810	1637	-540	-478
14507138	1538	-436	-365
14507466	1517	-352	-323
14507794	1689	-464	-389
14508122	1898	-654	-447
14508450	2108	-816	-465
14508778	2122	-1009	-456
14509106	2009	-1110	-458
14509434	1732	-1159	-497
14509762	1580	-1263	-607
14510090	1579	-1195	-663
14510418	1804	-1364	-750
14510746	2192	-1712	-797
14511074	2394	-1883	-739
14511402	2326	-1792	-620
14511730	1687	-1392	-504
14512058	1537	-1433	-530
14512386	1507	-1460	-491
14512714	1450	-1325	-375
14513042	1334	-1005	-190
14513370	1238	-785	4
14513698	1214	-797	191
14514026	1330	-810	446
14514354	1506	-752	757
14514682	1449	-571	1081
14515010	1037	-465	1327
14515338	701	-205	1400
14515666	574	120	1581
14515994	656	-111	1745
14516322	881	-185	1760
14516650	538	-40	1683
14516978	275	-253	1384
14517306	-78	-298	1219
14517634	-478	-99	1306
14517962	-969	323	1338
14518290	-1247	748	1389
14518618	-1045	803	1629
14518946	-922	669	1919
14519274	-1154	503	2127
14519602	-1247	307	2158
14519930	-874	-450	2005
14520258	-123	-1387	1742
14520586	378	-1933	1484
14520914	615	-2301	1698
14521242	444	-2042	1799
14521570	34	-1528	1792
14521898	-478	-756	1906
14522226	-1108	-25	1895
14522554	-1186	367	1888
14522882	-1557	634	1729
14523210	-1871	733	1379
14523538	-1632	245	796
14523866	-1619	-165	525
14524194	-1112	-681	406
14524522	-443	-1040	148
14524850	170	-718	-149
14525178	696	-720	-304
14525506	1004	-828	-380
14525834	920	-599	-544
14526162	630	69	-652
14526490	-431	836	-1015
14526818	-807	1031	-1220
14527146	-690	711	-1421
14527474	-227	119	-1391
14527802	122	-112	-1386
14528130	614	-543	-1448
14528458	987	-793	-1396
14528786	1072	-350	-1196
14529114	773	494	-1018
14529442	162	1312	-805
14529770	-561	1717	-895
14530098	-975	1648	-994
14530426	-949	1426	-1085
14530754	-550	1176	-1220
14531082	-100	953	-1292
14531410	265	720	-1377
14531738	305	606	-1469
14532066	75	594	-1559
14532394	-186	610	-1665
14532722	-399	695	-1728
14533050	-457	767	-1803
14533378	-377	819	-1780
14533706	-388	831	-1668
14534034	-344	919	-1519
14534362	-264	956	-1415
14534690	-165	941	-1387
14535018	24	799	-1399
14535346	44	614	-1416
14535674	-140	583	-1352
14536002	-334	621	-1227
14536330	-580	673	-1041
14536658	-625	834	-767
14536986	-450	726	-639
14537314	-215	518	-641
14537642	-151	571	-643
14537970	-125	548	-651
14538298	-155	524	-591
14538626	-235	643	-478
14538954	-379	656	-423
14539282	-462	711	-316
14539610	-379	664	-198
14539938	-281	573	-145
14540266	-201	517	-99
14540594	-243	505	-105
14540922	-260	480	-171
14541250	-230	485	-221
14541578	-219	446	-270
14541906	-256	409	-264
14542234	-203	406	-180
14542562	-52	270	-180
14542890	-65	284	-168
14543218	-101	293	-125
14543546	-150	220	-85
14543874	-161	287	-52
14544202	-153	284	-42
14544530	-178	262	-88
14544858	-203	287	-115
14545186	-200	283	-123
14545514	-193	234	-117
14545842	-132	262	-81
14546170	-63	210	-71
14546498	-41	159	-72
14546826	-69	183	-48
14547154	-76	182	-26
14547482	-43	179	-59
14547810	-25	179	-98
14548138	-34	196	-146
14548466	-66	164	-187
14548794	-130	160	-168
14549122	-156	176	-77
14549450	-189	133	-48
14549778	-177	100	-61
14550106	-176	126	-96
14550434	-240	126	-126
14550762	-333	121	-153
14551090	-435	180	-94
14551418	-485	237	-16
14551746	-386	207	20
14552074	-237	197	16
14552402	-57	183	7
14552730	33	173	-24
14553058	36	156	-39
14553386	18	138	-30
14553714	47	162	17
14554042	138	94	64
14554370	218	90	92
14554698	261	59	50
14555026	273	44	6
14555354	199	98	-41
14555682	153	96	-53
14556010	79	74	-60
14556338	-34	151	-24
14556666	-126	137	-18
14556994	-182	137	-42
14557322	-168	162	-71
14557650	-127	148	-92
14557978	-70	110	-130
14558306	-27	95	-123
14558634	-28	92	-139
14558962	-24	70	-117
14559290	-24	93	-89
14559618	-3	114	-61
14559946	6	112	-75
14560274	35	107	-91
14560602	89	102	-95
14560930	67	83	-107
14561258	41	101	-100
14561586	-12	122	-106
14561914	-42	132	-80
14562242	-52	195	-62
14562570	-31	154	-53
14562898	-17	113	-85
14563226	-15	117	-100
14563554	-43	118	-113
14563882	-88	139	-121
14564210	-115	122	-136
14564538	-144	121	-129
14564866	-122	153	-72
14565194	-78	104	-65
14565522	-68	84	-86
14565850	-60	98	-102
14566178	-96	135	-106
14566506	-139	140	-121
14566834	-173	155	-113
14567162	-180	178	-124
14567490	-183	169	-111
14567818	-140	147	-97
14568146	-110	128	-97
14568474	-71	131	-103
14568802	-61	97	-102
14569130	-57	88	-90
14569458	-62	98	-92
14569786	-61	105	-89
14570114	-87	133	-75
14570442	-56	150	-68
14570770	-40	118	-67
14571098	-63	136	-79
14571426	-71	166	-85
14571754	-60	149	-89
14572082	-48	147	-82
14572410	-33	135	-60
14572738	-6	126	-52
14573066	16	124	-49
14573394	28	112	-44
14573722	1	136	-43
14574050	16	145	-38
14574378	4	153	-35
14574706	2	143	-24
14575034	-21	154	-23
14575362	4	136	-19
14575690	11	105	-20
14576018	24	128	-3
14576346	46	115	-7
14576674	61	110	-9
14577002	58	134	-19
14577330	60	117	-36
14577658	46	92	-38
14577986	39	95	-51
14578314	-5	108	-42
14578642	-24	145	-14
14578970	23	111	-18
14579298	-5	138	-38
14579626	-35	140	-58
14579954	-53	114	-66
14580282	-79	105	-86
14580610	-103	117	-78
14580938	-107	113	-71
14581266	-107	129	-71
14581594	-64	114	-75
14581922	-48	110	-65
14582250	-57	75	-80
14582578	-42	58	-99
14582906	0	90	-141
14583234	86	-7	-158
14583562	172	-15	-165
14583890	137	-5	-157
14584218	0	11	-168
14584546	-19	34	-161
14584874	15	-61	-184
14585202	54	-73	-133
14585530	85	-125	-158
14585858	44	-149	-154
14586186	1	-224	-173
14586514	-50	-406	-183
14586842	-162	-257	-134
14587170	-268	-13	-131
14587498	-374	-34	-138
14587826	-404	129	-131
14588154	-171	124	-96
14588482	91	57	-12
14588810	346	-2	81
14589138	455	-100	93
14589466	531	-151	63
14589794	582	-206	56
14590122	603	-178	76
14590450	602	-163	100
14590778	615	-146	128
14591106	631	-117	131
14591434	709	-114	147
14591762	725	-150	164
14592090	692	-144	99
14592418	653	-137	119
14592746	616	-146	110
14593074	579	-147	107
14593402	562	-139	117
14593730	556	-157	145
14594058	554	-153	209
14594386	596	-218	167
14594714	656	-338	183
14595042	649	-409	159
14595370	585	-370	179
14595698	523	-310	134
14596026	489	-315	172
14596354	458	-321	195
14596682	473	-273	236
14597010	495	-297	238
14597338	465	-335	263
14597666	493	-361	266
14597994	461	-391	254
14598322	408	-409	309
14598650	401	-431	346
14598978	458	-498	464
14599306	566	-549	578
14599634	734	-597	705
14599962	915	-589	839
14600290	1170	-465	1011
14600618	1391	-448	1102
14600946	1626	-553	1200
14601274	1696	-628	1338
14601602	1670	-505	1463
14601930	1731	-502	1560
14602258	1701	-514	1576
14602586	1581	-460	1546
14602914	1586	-458	1517
14603242	1732	-507	1417
14603570	1755	-441	1411
14603898	1716	-271	1460
14604226	1597	-24	1503
14604554	1506	57	1507
14604882	1443	32	1451
14605210	1448	23	1395
14605538	1446	18	1469
14605866	1420	135	1390
14606194	1485	182	1254
14606522	1515	251	1131
14606850	1646	261	1034
14607178	1739	186	991
14607506	1905	232	1023
14607834	2083	802	1143
14608162	2530	983	1277
14608490	3292	860	1298
14608818	4112	627	1194
14609146	4816	264	1017
14609474	5473	64	792
14609802	6332	237	550
14610130	7206	619	373
14610458	7737	928	349
14610786	8446	957	402
14611114	9055	778	317
14611442	9624	658	127
14611770	9857	594	31
14612098	9572	946	-37
14612426	9972	537	-260
14612754	10766	64	-728
14613082	11622	345	-972
14613410	12790	625	-909
14613738	13331	426	-834
14614066	13123	66	-630
14614394	12862	-164	-600
14614722	12979	-262	-526
14615050	12577	-192	-443
14615378	12106	-343	-374
14615706	11303	-416	-222
14616034	10636	-474	-12
14616362	9787	-499	173
14616690	8891	56	116
14617018	7747	377	118
14617346	6805	354	100
14617674	6095	300	77
14618002	5591	251	100
14618330	5149	178	186
14618658	4894	93	201
14618986	4544	58	214
14619314	3908	-65	174
14619642	3337	-429	168
14619970	2851	-433	347
14620298	2361	-251	366
14620626	1790	-70	216
14620954	1471	-135	-109
14621282	1110	-77	-458
14621610	878	-266	-287
14621938	698	-401	-630
14622266	823	-782	-766
14622594	752	-885	-720
14622922	388	-319	-391
14623250	78	391	-219
14623578	62	460	-70
14623906	185	446	180
14624234	132	563	-23
14624562	2	649	-354
14624890	213	652	-410
14625218	620	487	-303
14625546	1258	209	-167
14625874	1729	-8	-160
14626202	1904	-50	-103
14626530	1755	119	-11
14626858	1459	356	20
14627186	1026	622	12
14627514	947	769	27
14627842	983	618	30
14628170	941	413	5
14628498	771	383	-70
14628826	550	241	-202
14629154	314	246	-266
14629482	508	228	-351
14629810	649	68	-395
14630138	819	44	-386
14630466	785	174	-329
14630794	672	304	-266
14631122	594	424	-278
14631450	553	474	-171
14631778	585	290	-192
14632106	619	241	-161
14632434	703	476	-53
14632762	944	235	31
14633090	1114	258	94
14633418	1306	232	151
14633746	1395	255	126
14634074	1382	95	196
14634402	1404	84	186
14634730	1525	97	195
14635058	1722	-46	157
14635386	1829	-90	196
14635714	1888	-93	156
14636042	2032	-196	166
14636370	2255	-359	134
14636698	2478	-401	142
14637026	2508	-422	210
14637354	2441	-406	227
14637682	2271	-401	216
14638010	2021	-289	163
14638338	1932	-295	123
14638666	1976	-343	67
14638994	1950	-288	68
14639322	1931	-373	91
14639650	1798	-333	97
14639978	1600	-362	66
14640306	1467	-397	4
14640634	1321	-250	6
14640962	1293	-239	-12
14641290	1275	-233	-34
14641618	1401	-357	-97
14641946	1364	-256	-114
14642274	1316	-202	-164
14642602	1314	-248	-180
14642930	1476	-329	-272
14643258	1491	-235	-288
14643586	1531	-350	-292
14643914	1393	-387	-298
14644242	1074	-324	-374
14644570	742	-257	-355
14644898	537	-257	-420
14645226	429	-395	-476
14645554	157	-377	-458
14645882	-190	-297	-439
14646210	-490	-258	-470
14646538	-696	-83	-491
14646866	-598	50	-489
14647194	60	5	-448
14647522	708	-224	-369
14647850	1180	-476	-302
14648178	1266	-673	-310
14648506	1201	-477	-361
14648834	1202	-529	-436
14649162	1385	-862	-482
14649490	1429	-1004	-431
14649818	1390	-977	-423
14650146	1164	-1005	-407
14650474	1008	-1007	-467
14650802	1011	-1005	-509
14651130	1190	-1095	-510
14651458	1452	-1219	-448
14651786	1605	-1185	-370
14652114	1694	-1308	-362
14652442	1400	-910	-215
14652770	1293	-859	-166
14653098	1309	-998	-151
14653426	1456	-1135	-123
14653754	1498	-1174	-126
14654082	1448	-1183	-124
14654410	1365	-1282	-171
14654738	1083	-1217	-150
14655066	768	-1046	-81
14655394	717	-935	-76
14655722	721	-964	-140
14656050	484	-657	-54
14656378	445	-545	22
14656706	550	-560	92
14657034	768	-480	199
14657362	1116	-518	179
14657690	1374	-433	229
14658018	1716	-193	201
