Time Stamp	Gyroscope X	Gyroscope Y	Gyroscope Z
RAW	RAW	RAW	RAW
no units	no units	no units	no units
2425512	-92	117	39
2425840	-106	109	40
2426168	-131	91	39
2426496	-120	101	32
2426824	-92	103	38
2427152	-83	105	44
2427480	-65	135	42
2427808	-53	124	34
2428136	-69	112	51
2428464	-86	105	45
2428792	-94	105	37
2429120	-92	103	39
2429448	-99	105	25
2429776	-93	113	28
2430104	-95	125	27
2430432	-70	121	15
2430760	-85	121	25
2431088	-96	128	8
2431416	-102	130	11
2431744	-105	126	19
2432072	-93	133	8
2432400	-104	136	2
2432728	-111	132	2
2433056	-101	127	5
2433384	-110	142	18
2433712	-122	142	11
2434040	-110	124	6
2434368	-135	117	12
2434696	-130	116	-4
2435024	-147	124	15
2435352	-137	145	5
2435680	-133	133	4
2436008	-134	138	2
2436336	-139	137	-8
2436664	-140	128	-3
2436992	-141	133	-2
2437320	-130	148	7
2437648	-106	145	7
2437976	-106	156	-3
2438304	-108	168	10
2438632	-115	160	-2
2438960	-135	144	2
2439288	-139	156	-5
2439616	-139	158	0
2439944	-146	152	9
2440272	-134	155	2
2440600	-121	156	-1
2440928	-77	155	3
2441256	-49	167	5
2441584	-15	177	5
2441912	56	157	2
2442240	117	185	11
2442568	174	208	3
2442896	261	199	0
2443224	283	201	-10
2443552	332	169	-7
2443880	335	192	-33
2444208	412	242	-67
2444536	500	237	-85
2444864	577	261	-103
2445192	645	257	-129
2445520	689	275	-150
2445848	724	315	-171
2446176	724	330	-190
2446504	677	341	-160
2446832	598	326	-148
2447160	486	302	-114
2447488	384	270	-69
2447816	254	234	-39
2448144	142	193	-5
2448472	39	163	-6
2448800	-77	143	-29
2449128	-234	104	-41
2449456	-378	28	-46
2449784	-528	-15	-42
2450112	-669	-64	-34
2450440	-755	-87	-7
2450768	-853	-97	18
2451096	-931	-129	33
2451424	-1013	-160	60
2451752	-1145	-219	111
2452080	-1228	-247	137
2452408	-1270	-263	173
2452736	-1241	-230	200
2453064	-1144	-195	204
2453392	-1023	-142	207
2453720	-862	-101	171
2454048	-699	-36	130
2454376	-543	17	103
2454704	-426	58	102
2455032	-332	83	96
2455360	-234	104	89
2455688	-160	119	69
2456016	-91	122	69
2456344	-100	142	48
2456672	-78	137	24
2457000	-98	114	1
2457328	-159	128	-20
2457656	-209	109	-24
2457984	-257	87	-10
2458312	-269	74	12
2458640	-267	75	52
2458968	-212	86	63
2459296	-147	86	87
2459624	-118	105	93
2459952	-49	110	123
2460280	39	110	136
2460608	71	107	126
2460936	84	108	102
2461264	87	99	104
2461592	62	77	93
2461920	23	72	98
2462248	-1	106	79
2462576	-19	109	90
2462904	-66	98	94
2463232	-69	105	86
2463560	-102	101	64
2463888	-130	96	18
2464216	-134	80	5
2464544	-146	86	-6
2464872	-178	79	2
2465200	-168	88	29
2465528	-141	95	44
2465856	-84	111	53
2466184	8	132	36
2466512	27	148	6
2466840	23	141	17
2467168	-15	126	38
2467496	-43	122	58
2467824	-93	127	57
2468152	-136	107	67
2468480	-165	90	76
2468808	-183	85	55
2469136	-169	83	49
2469464	-155	86	38
2469792	-119	111	26
2470120	-85	105	9
2470448	-64	111	0
2470776	-77	116	13
2471104	-72	119	-4
2471432	-49	122	-3
2471760	-52	149	-25
2472088	-54	125	-48
2472416	-83	139	-64
2472744	-146	109	-50
2473072	-154	120	-30
2473400	-157	119	-33
2473728	-159	121	-24
2474056	-143	120	-27
2474384	-110	124	-54
2474712	-83	131	-55
2475040	-32	137	-39
2475368	35	149	-17
2475696	87	163	-30
2476024	112	182	-27
2476352	144	178	-29
2476680	184	200	-13
2477008	226	193	-1
2477336	252	199	14
2477664	270	190	34
2477992	279	204	56
2478320	291	191	57
2478648	309	184	39
2478976	336	203	43
2479304	338	211	29
2479632	288	198	51
2479960	246	197	38
2480288	203	178	52
2480616	209	208	63
2480944	226	195	46
2481272	237	189	19
2481600	219	198	6
2481928	166	190	-17
2482256	120	167	-39
2482584	71	164	-38
2482912	42	152	-42
2483240	51	154	-2
2483568	74	174	-6
2483896	93	197	-19
2484224	140	190	-59
2484552	200	209	-78
2484880	244	217	-52
2485208	240	237	-29
2485536	241	259	25
2485864	264	271	57
2486192	254	268	49
2486520	208	221	2
2486848	148	225	-1
2487176	54	190	9
2487504	-30	156	9
2487832	-146	122	13
2488160	-288	99	21
2488488	-405	51	51
2488816	-545	59	85
2489144	-693	45	95
2489472	-887	-19	93
2489800	-1120	-116	94
2490128	-1332	-186	71
2490456	-1418	-209	80
2490784	-1406	-199	100
2491112	-1311	-161	112
2491440	-1122	-116	107
2491768	-920	-57	86
2492096	-669	-23	42
2492424	-454	69	1
2492752	-177	99	-40
2493080	94	151	-44
2493408	345	217	-71
2493736	532	295	-83
2494064	734	376	-50
2494392	933	445	-56
2494720	1106	459	-70
2495048	1270	545	-75
2495376	1274	572	-66
2495704	1051	565	-38
2496032	654	450	53
2496360	208	316	115
2496688	-68	197	142
2497016	-224	156	123
2497344	-212	89	122
2497672	-116	91	125
2498000	-16	121	162
2498328	86	81	216
2498656	270	95	301
2498984	486	160	325
2499312	797	195	400
2499640	983	170	402
2499968	958	105	445
2500296	642	-13	446
2500624	106	-160	439
2500952	-474	-345	470
2501280	-1010	-460	421
2501608	-1351	-580	402
2501936	-1459	-647	396
2502264	-1496	-675	374
2502592	-1626	-718	361
2502920	-1823	-798	391
2503248	-2098	-878	452
2503576	-2383	-918	511
2503904	-2599	-996	533
2504232	-2901	-1220	561
2504560	-3076	-1406	648
2504888	-3243	-1451	633
2505216	-3383	-1514	625
2505544	-3405	-1654	728
2505872	-3468	-1790	729
2506200	-3569	-1842	652
2506528	-3603	-1905	527
2506856	-3561	-1965	378
2507184	-3393	-1953	225
2507512	-3299	-1894	34
2507840	-3248	-2018	-132
2508168	-3196	-2120	-273
2508496	-3189	-2235	-414
2508824	-3343	-2470	-521
2509152	-3449	-2595	-564
2509480	-3328	-2417	-692
2509808	-3120	-2325	-819
2510136	-2778	-2071	-962
2510464	-2441	-1768	-1110
2510792	-2017	-1334	-1255
2511120	-1573	-1146	-1284
2511448	-1120	-1018	-1243
2511776	-537	-804	-1221
2512104	-3364	-1637	-1401
2512432	1529	-592	-1562
2512760	1037	127	-1872
2513088	1498	1012	-1930
2513416	1284	1498	-2266
2513744	976	1214	-2667
2514072	765	388	-2796
2514400	235	-216	-2618
2514728	-217	-689	-2618
2515056	-780	-1329	-2608
2515384	-1516	-1973	-2605
2515712	-2331	-2680	-2500
2516040	-3305	-3382	-2590
2516368	-4587	-4058	-2590
2516696	-6291	-5083	-2216
2517024	-8376	-6414	-1738
2517352	-10751	-7563	-1337
2517680	-13029	-8067	-677
2518008	-14917	-8328	-23
2518336	-16058	-8053	874
2518664	-16268	-7621	1742
2518992	-15884	-6998	2631
2519320	-14799	-6268	3072
2519648	-13211	-5517	3474
2519976	-11498	-4821	3747
2520304	-10274	-4253	3993
2520632	-9265	-3990	4431
2520960	-8601	-3720	4886
2521288	-8268	-3722	5309
2521616	-8411	-3920	5832
2521944	-9052	-4255	6397
2522272	-10082	-4761	6964
2522600	-11309	-5319	7490
2522928	-12664	-6021	7962
2523256	-14083	-6642	8284
2523584	-15432	-7181	8520
2523912	-16463	-7528	8702
2524240	-17125	-7684	8713
2524568	-17412	-7731	8753
2524896	-17459	-7550	8757
2525224	-17465	-7233	8670
2525552	-17183	-6973	8397
2525880	-16295	-6986	8171
2526208	-15130	-6938	7651
2526536	-14196	-6460	7298
2526864	-13108	-6159	7024
2527192	-11955	-5618	6414
2527520	-11067	-5021	5612
2527848	-10425	-4321	4985
2528176	-9935	-3836	4502
2528504	-9486	-3481	4147
2528832	-9352	-3454	3758
2529160	-9259	-3309	3392
2529488	-9214	-3159	2949
2529816	-8979	-2897	2503
2530144	-8575	-2566	2043
2530472	-8273	-2325	1673
2530800	-8084	-2325	1363
2531128	-7754	-2107	1051
2531456	-7200	-1854	764
2531784	-6381	-1634	607
2532112	-5481	-1434	373
2532440	-4869	-2243	-116
2532768	-5187	-1760	-1003
2533096	-4231	1034	-2257
2533424	-2749	968	-2264
2533752	-2211	344	-1443
2534080	-2739	376	-1221
2534408	-3496	697	-1276
2534736	-4155	235	-1836
2535064	-4346	356	-2306
2535392	-4305	87	-2275
2535720	-3867	-235	-2223
2536048	-2857	-38	-2151
2536376	-1683	525	-2241
2536704	-827	866	-2313
2537032	-325	767	-2162
2537360	-42	654	-1964
2537688	-378	547	-1905
2538016	-958	382	-1935
2538344	-1100	406	-1901
2538672	-942	379	-1826
2539000	-673	366	-1674
2539328	-587	287	-1622
2539656	-696	160	-1578
2539984	-933	57	-1535
2540312	-1213	0	-1615
2540640	-1506	-113	-1693
2540968	-1698	-253	-1981
2541296	-1858	-456	-1585
2541624	-1914	-620	-1682
2541952	-1937	-735	-1887
2542280	-1860	-757	-2142
2542608	-1715	-779	-2218
2542936	-1590	-671	-2422
2543264	-1417	-536	-2565
2543592	-1185	-242	-2791
2543920	-717	111	-3107
2544248	-296	91	-3296
2544576	-21	192	-3288
2544904	45	231	-3419
2545232	-35	119	-3631
2545560	-133	-189	-3694
2545888	-20	-259	-3741
2546216	152	-245	-3921
2546544	381	-233	-4050
2546872	607	-146	-4147
2547200	810	-76	-4319
2547528	829	-90	-4528
2547856	660	-402	-4681
2548184	202	-846	-4674
2548512	-172	-1127	-4543
2548840	-290	-1351	-4611
2549168	-243	-1403	-4753
2549496	-128	-1443	-4980
2549824	-114	-1615	-5230
2550152	-553	-1836	-5549
2550480	-1304	-2520	-6018
2550808	-2072	-2428	-6273
2551136	-2464	-2500	-6593
2551464	-2261	-2022	-7116
2551792	-1998	-2223	-7401
2552120	-943	-3031	-7153
2552448	90	-4037	-6764
2552776	1145	-5578	-6213
2553104	28	-7763	-5712
2553432	-1967	-8470	-5201
2553760	-5426	-10199	-4345
2554088	-8313	-11230	-3763
2554416	-10712	-11157	-3539
2554744	-11417	-10206	-2617
2555072	-12176	-10412	-695
2555400	-13085	-9428	560
2555728	-13777	-8161	1635
2556056	-13473	-6683	2867
2556384	-11799	-5772	3735
2556712	-9429	-5194	4186
2557040	-6821	-4809	4714
2557368	-4278	-4709	5654
2557696	-2235	-4881	6539
2558024	-1339	-5006	7481
2558352	-1361	-5028	8365
2558680	-1722	-5103	9288
2559008	-2469	-5248	10278
2559336	-3922	-5460	11146
2559664	-5644	-5704	12014
2559992	-7436	-5969	12573
2560320	-8862	-6369	13232
2560648	-9958	-6859	13931
2560976	-10545	-7249	14574
2561304	-10773	-7488	14866
2561632	-10500	-7552	15258
2561960	-10229	-7516	15428
2562288	-10159	-7386	15380
2562616	-10200	-7065	15400
2562944	-10141	-6518	15311
2563272	-9988	-5702	15084
2563600	-9499	-4627	14877
2563928	-7746	-4414	15184
2564256	-6115	-2970	15219
2564584	-4033	-3017	14821
2564912	-2162	-1944	13402
2565240	7	241	11606
2565568	1780	1498	9930
2565896	2262	1830	8218
2566224	2075	1225	7728
2566552	844	894	6371
2566880	-529	852	4941
2567208	-1491	992	3523
2567536	-2192	1258	2091
2567864	-2673	1302	896
2568192	-3207	1141	-262
2568520	-4366	629	-1583
2568848	-6182	-108	-2850
2569176	-7494	-497	-3602
2569504	-8473	-1268	-3654
2569832	-8272	-2585	-2766
2570160	-11254	-7240	998
2570488	-12508	-8493	-182
2570816	-14638	-5717	-1663
2571144	-16154	-5037	-2542
2571472	-13072	-2206	-3453
2571800	-10059	-2197	-3473
2572128	-7404	-1555	-3709
2572456	-5203	-154	-3942
2572784	-4177	350	-3894
2573112	-2867	732	-3513
2573440	-1737	499	-3089
2573768	-1345	-21	-2819
2574096	-1630	-167	-2942
2574424	-2091	-188	-3108
2574752	-2887	-376	-3163
2575080	-3483	-553	-3128
2575408	-3880	-721	-3007
2575736	-3382	-593	-2790
2576064	-2713	-382	-2751
2576392	-1922	-73	-2804
2576720	-1280	293	-2893
2577048	-662	896	-3056
2577376	-276	1547	-3201
2577704	95	1733	-3214
2578032	-49	1199	-3087
2578360	-299	758	-2994
2578688	-390	619	-3037
2579016	-130	501	-3058
2579344	523	688	-3206
2579672	1347	962	-3592
2580000	2163	880	-4021
2580328	2822	766	-4211
2580656	2798	413	-4341
2580984	2269	117	-4392
2581312	1700	-233	-4396
2581640	1347	-513	-4479
2581968	1264	-247	-4779
2582296	1251	-244	-5015
2582624	1433	-444	-5122
2582952	1378	-564	-4967
2583280	1032	-890	-4817
2583608	1113	-923	-4610
2583936	1342	-910	-4571
2584264	1600	-1205	-4480
2584592	1677	-1499	-4358
2584920	1580	-1841	-4123
2585248	1252	-2171	-3979
2585576	598	-2383	-3906
2585904	700	-2478	-4168
2586232	669	-2429	-4313
2586560	709	-2456	-4599
2586888	849	-2692	-4648
2587216	1118	-2892	-4551
2587544	1194	-3217	-4270
2587872	1275	-3421	-4093
2588200	1481	-3373	-3887
2588528	1759	-3273	-3902
2588856	1997	-3128	-3941
2589184	1683	-2794	-4116
2589512	1201	-2280	-4236
2589840	690	-1546	-4382
2590168	236	-831	-4368
2590496	7	-661	-4665
2590824	390	-36	-4695
2591152	779	559	-4706
2591480	2509	-1052	-4836
2591808	2206	191	-5077
2592136	2674	1163	-4907
2592464	3643	2559	-4334
2592792	2959	4036	-4130
2593120	2099	7195	-4389
2593448	1801	6185	-2779
2593776	1301	6535	-683
2594104	808	7355	736
2594432	464	8173	1719
2594760	124	9229	2259
2595088	610	10171	2365
2595416	1710	10629	2809
2595744	2261	10712	3280
2596072	2679	10311	3596
2596400	2500	10367	4212
2596728	2307	10632	4828
2597056	2450	11010	5236
2597384	2687	10834	5408
2597712	3218	10527	5528
2598040	3525	9842	5574
2598368	3000	9116	5691
2598696	2227	8602	5787
2599024	1355	8275	5833
2599352	408	7797	5680
2599680	2	7260	5411
2600008	1150	7291	5365
2600336	2470	6641	5306
2600664	3237	5477	5202
2600992	3281	3743	5051
2601320	2564	2035	5007
2601648	1203	606	4726
2601976	-189	-593	4360
2602304	-776	-1265	4066
2602632	-399	-1461	3699
2602960	853	-1152	3329
2603288	2139	-129	2983
2603616	2796	-58	2598
2603944	3040	-5	2192
2604272	2887	458	1712
2604600	2228	82	1580
2604928	983	-738	1634
2605256	-531	-888	1554
2605584	-1317	-629	984
2605912	-912	-754	433
2606240	-405	-1257	216
2606568	-10	-1544	254
2606896	301	-1610	326
2607224	218	-1485	497
2607552	-262	-1486	637
2607880	-745	-1677	623
2608208	-1046	-1705	724
2608536	-844	-1717	679
2608864	-524	-1410	496
2609192	-323	-1149	452
2609520	-7	-528	386
2609848	79	-108	236
2610176	117	-82	288
2610504	112	261	198
2610832	104	742	91
2611160	40	1249	-24
2611488	-576	917	-5
2611816	-1103	604	49
2612144	-1166	434	114
2612472	-622	734	-37
2612800	82	959	-252
2613128	919	1096	-309
2613456	1497	1192	-268
2613784	1178	785	-113
2614112	-95	462	-116
2614440	-1282	547	-321
2614768	-1590	304	-363
2615096	-1294	90	-146
2615424	-953	37	-208
2615752	-892	66	-363
2616080	-1061	-65	-397
2616408	-1488	-208	-483
2616736	-1869	-281	-548
2617064	-1897	-167	-600
2617392	-1638	1	-671
2617720	-1163	268	-824
2618048	-574	428	-876
2618376	-197	471	-902
2618704	-53	425	-918
2619032	24	441	-938
2619360	165	441	-901
2619688	297	377	-821
2620016	385	400	-785
2620344	438	390	-698
2620672	548	463	-635
2621000	505	467	-544
2621328	384	445	-423
2621656	246	513	-277
2621984	141	452	-122
2622312	176	423	5
2622640	318	371	86
2622968	500	439	129
2623296	639	466	110
2623624	737	443	83
2623952	762	458	-3
2624280	546	470	-87
2624608	420	520	-131
2624936	429	577	-205
2625264	476	582	-219
2625592	504	591	-229
2625920	416	559	-281
2626248	255	461	-296
2626576	175	418	-268
2626904	93	329	-253
2627232	51	288	-226
2627560	49	216	-198
2627888	75	201	-180
2628216	79	193	-142
2628544	86	186	-102
2628872	21	150	-69
2629200	-67	123	-41
2629528	-129	141	-32
2629856	-164	148	-46
2630184	-200	155	-46
2630512	-258	159	-105
2630840	-316	145	-50
2631168	-377	142	-35
2631496	-382	160	-25
2631824	-320	200	-5
2632152	-225	230	-41
2632480	-127	260	-66
2632808	-77	282	-45
2633136	-69	284	-67
2633464	-65	302	-95
2633792	-93	311	-61
2634120	-74	302	-67
2634448	-82	316	-55
2634776	-83	316	-16
2635104	-81	303	-4
2635432	-36	297	28
2635760	16	296	45
2636088	92	276	53
2636416	137	289	82
2636744	180	282	73
2637072	150	272	83
2637400	128	275	81
2637728	64	275	119
2638056	16	254	136
2638384	-41	241	146
2638712	-110	236	142
2639040	-175	239	137
2639368	-222	222	118
2639696	-283	215	111
2640024	-376	200	133
2640352	-441	185	99
2640680	-506	141	101
2641008	-572	117	98
2641336	-640	92	111
2641664	-686	56	111
2641992	-672	59	96
2642320	-612	101	61
2642648	-507	130	47
2642976	-404	168	36
2643304	-325	221	11
2643632	-272	265	-10
2643960	-248	245	-64
2644288	-205	246	-26
2644616	-221	256	-13
2644944	-225	228	-35
2645272	-206	259	-45
2645600	-198	268	-56
2645928	-196	268	-64
2646256	-229	250	-100
2646584	-262	234	-84
2646912	-277	222	-86
2647240	-298	192	-83
2647568	-270	185	-92
2647896	-245	183	-85
2648224	-212	195	-106
2648552	-183	188	-125
2648880	-156	189	-119
2649208	-121	202	-132
2649536	-100	201	-143
2649864	-88	195	-134
2650192	-91	184	-141
2650520	-97	168	-136
2650848	-112	162	-148
2651176	-102	148	-154
2651504	-116	154	-158
2651832	-115	160	-150
2652160	-87	140	-167
2652488	-74	156	-172
2652816	-50	146	-180
2653144	-24	147	-183
2653472	14	165	-191
2653800	28	148	-182
2654128	56	157	-171
2654456	57	155	-165
2654784	29	163	-158
2655112	13	146	-155
2655440	-16	137	-173
2655768	-30	123	-166
2656096	-31	118	-177
2656424	-62	114	-176
2656752	-107	109	-172
2657080	-129	95	-151
2657408	-149	97	-129
2657736	-145	107	-138
2658064	-128	103	-150
2658392	-136	91	-144
2658720	-155	97	-143
2659048	-203	86	-108
2659376	-230	81	-94
2659704	-239	76	-75
2660032	-218	83	-96
2660360	-204	101	-83
2660688	-198	97	-64
2661016	-218	93	-52
2661344	-252	64	-50
2661672	-247	70	-33
2662000	-238	67	-28
2662328	-215	80	-39
2662656	-192	92	-30
2662984	-145	80	-30
2663312	-132	98	-16
2663640	-122	89	-13
2663968	-113	91	-5
2664296	-90	77	3
2664624	-66	96	-2
2664952	-52	92	-24
2665280	-50	108	-34
2665608	-43	104	-20
2665936	-42	99	-29
2666264	-29	108	-10
2666592	-52	97	-17
2666920	-65	92	-21
2667248	-79	95	-35
2667576	-65	94	-35
2667904	-50	104	-51
2668232	-50	92	-42
2668560	-42	109	-38
2668888	-26	116	-42
2669216	-30	118	-20
2669544	-35	116	-21
2669872	-29	116	-49
2670200	-30	109	-48
2670528	-9	117	-44
2670856	-18	121	-40
2671184	-29	118	-54
2671512	-34	103	-48
2671840	-34	116	-53
2672168	-57	112	-57
2672496	-60	98	-51
2672824	-82	106	-29
2673152	-68	96	-36
2673480	-77	96	-42
2673808	-70	101	-47
2674136	-85	92	-47
2674464	-50	101	-26
2674792	-38	87	-51
2675120	-41	110	-25
2675448	-40	104	-41
2675776	-44	98	-49
2676104	-45	110	-44
2676432	-26	103	-55
2676760	-8	113	-36
2677088	-21	98	-41
2677416	-37	106	-33
2677744	-24	107	-13
2678072	-35	94	-9
2678400	-22	109	-10
2678728	-10	99	-23
2679056	11	121	-40
2679384	30	112	-43
2679712	25	116	-61
2680040	21	140	-62
2680368	-5	132	-52
2680696	-7	131	-53
2681024	-7	149	-56
2681352	-12	137	-58
2681680	-14	137	-76
2682008	-21	138	-75
2682336	-33	131	-69
2682664	-50	140	-78
2682992	-48	137	-57
2683320	-54	126	-86
2683648	-68	149	-81
2683976	-34	123	-65
2684304	-11	138	-95
2684632	-8	164	-107
2684960	-9	156	-111
2685288	-14	161	-78
2685616	-49	146	-73
2685944	-66	145	-69
2686272	-72	153	-72
2686600	-73	137	-76
2686928	-91	121	-69
2687256	-41	141	-59
2687584	-41	151	-66
2687912	-33	164	-80
2688240	-24	148	-79
2688568	-45	142	-82
2688896	-57	140	-84
2689224	-68	154	-73
2689552	-62	138	-73
2689880	-95	145	-68
2690208	-102	138	-54
2690536	-115	128	-60
2690864	-140	120	-55
2691192	-127	140	-57
2691520	-128	124	-62
2691848	-124	126	-55
2692176	-113	140	-63
2692504	-113	144	-63
2692832	-109	149	-42
2693160	-99	149	-43
2693488	-99	150	-37
2693816	-99	138	-30
2694144	-81	132	-24
2694472	-75	124	-17
2694800	-94	139	-21
2695128	-68	124	-23
2695456	-69	138	-22
2695784	-71	135	-1
2696112	-82	123	10
2696440	-82	128	20
2696768	-80	111	24
2697096	-62	111	30
2697424	-52	115	20
2697752	-56	126	13
2698080	-69	128	17
2698408	-82	114	32
2698736	-115	129	26
2699064	-102	112	26
2699392	-115	104	36
2699720	-129	99	24
2700048	-148	98	25
2700376	-131	100	42
2700704	-125	100	37
2701032	-103	128	48
2701360	-96	105	48
2701688	-103	116	41
2702016	-112	91	51
2702344	-114	85	55
2702672	-107	97	57
2703000	-111	77	74
2703328	-120	77	76
2703656	-128	87	73
2703984	-109	78	83
2704312	-93	72	95
2704640	-77	84	90
2704968	-64	79	85
2705296	-61	89	87
2705624	-65	66	95
2705952	-36	65	87
2706280	-13	82	80
2706608	7	103	72
2706936	21	101	51
2707264	-10	76	45
2707592	-18	83	49
2707920	-63	67	42
2708248	-58	63	44
2708576	-67	62	36
2708904	-67	68	22
2709232	-87	75	24
2709560	-87	68	19
2709888	-99	88	26
2710216	-79	69	17
2710544	-77	77	35
2710872	-55	64	25
2711200	-38	77	1
2711528	-38	91	19
2711856	-49	90	3
2712184	-58	85	2
2712512	-55	86	4
2712840	-43	98	4
2713168	-28	87	10
2713496	-11	80	20
2713824	-15	87	-5
2714152	-13	79	-5
2714480	7	83	2
2714808	5	87	8
2715136	34	94	5
2715464	38	82	16
2715792	51	87	10
2716120	59	101	10
2716448	33	86	7
2716776	31	95	-2
2717104	25	78	0
2717432	27	75	7
2717760	20	72	11
2718088	23	96	12
2718416	17	87	5
2718744	29	84	11
2719072	15	76	3
2719400	6	72	12
2719728	10	69	22
2720056	1	64	13
2720384	11	75	15
2720712	15	92	19
2721040	28	98	25
2721368	44	99	24
2721696	71	103	15
2722024	82	95	15
2722352	83	96	16
2722680	99	103	14
2723008	101	102	-3
2723336	99	113	-6
2723664	93	107	-21
2723992	99	123	-30
2724320	119	118	-51
2724648	133	145	-58
2724976	99	141	-87
2725304	107	153	-77
2725632	88	144	-97
2725960	67	157	-117
2726288	53	163	-124
2726616	20	149	-126
2726944	20	144	-144
2727272	20	141	-148
2727600	8	140	-151
2727928	6	119	-144
2728256	-22	117	-152
2728584	-24	135	-131
2728912	-36	122	-124
2729240	-72	129	-122
2729568	-106	146	-109
2729896	-83	127	-138
2730224	-70	139	-141
2730552	-76	134	-113
2730880	-92	148	-121
2731208	-144	135	-131
2731536	-164	138	-119
2731864	-201	137	-135
2732192	-187	145	-137
2732520	-152	141	-144
2732848	-145	153	-133
2733176	-149	150	-134
2733504	-147	144	-142
2733832	-145	163	-128
2734160	-144	172	-138
2734488	-154	174	-136
2734816	-130	180	-126
2735144	-98	177	-136
2735472	-94	165	-136
2735800	-93	170	-136
2736128	-100	153	-103
2736456	-102	145	-120
2736784	-121	130	-119
2737112	-110	130	-107
2737440	-117	142	-121
2737768	-120	135	-94
2738096	-89	145	-115
2738424	-71	146	-107
2738752	-66	145	-124
2739080	-47	158	-128
2739408	-35	158	-131
2739736	-50	151	-149
2740064	-24	150	-150
2740392	-36	135	-173
2740720	-31	134	-177
2741048	-39	133	-184
2741376	-30	134	-202
2741704	-21	104	-231
2742032	-27	61	-254
2742360	18	32	-255
2742688	8	8	-283
2743016	-3	-7	-332
2743344	-10	33	-372
2743672	-14	-1	-433
2744000	-67	-1	-489
2744328	-106	-28	-525
2744656	-84	-54	-549
2744984	-84	-133	-546
2745312	-104	-191	-576
2745640	-117	-214	-577
2745968	-136	-214	-645
2746296	-182	-212	-710
2746624	-134	-101	-775
2746952	-214	-31	-843
2747280	-492	-158	-897
2747608	-667	-201	-887
2747936	-712	-109	-925
2748264	-712	-28	-1033
2748592	-741	-114	-1035
2748920	-588	-17	-1067
2749248	-471	194	-1191
2749576	-511	250	-1380
2749904	-646	44	-1394
2750232	-782	-39	-1490
2750560	-907	89	-1571
2750888	-883	402	-1743
2751216	-873	508	-1965
2751544	-846	520	-2012
2751872	-875	466	-1992
2752200	-930	511	-2125
2752528	-1028	234	-2015
2752856	-949	290	-1965
2753184	-726	428	-2049
2753512	-594	126	-1925
2753840	-427	-132	-1755
2754168	8	106	-1707
2754496	147	310	-1702
2754824	139	-90	-1721
2755152	-148	-255	-1677
2755480	-436	-311	-1571
2755808	-668	-182	-1483
2756136	-869	-99	-1594
2756464	-1105	-473	-1440
2756792	-1162	-662	-1339
2757120	-1269	-529	-1324
2757448	-1378	-528	-1121
2757776	-1380	-686	-1055
2758104	-1306	-602	-1024
2758432	-1080	-399	-1014
2758760	-672	-257	-1007
2759088	-474	-356	-1011
2759416	-490	-439	-1019
2759744	-484	-351	-864
2760072	-480	-80	-1191
2760400	-553	-68	-1275
2760728	-664	-149	-1285
2761056	-659	-39	-1302
2761384	-423	184	-1281
2761712	-136	129	-1246
2762040	2	239	-1286
2762368	145	400	-1327
2762696	339	432	-1371
2763024	364	455	-1297
2763352	273	333	-1240
2763680	120	383	-1127
2764008	-3	408	-998
2764336	139	335	-841
2764664	429	461	-682
2764992	900	357	-401
2765320	947	117	-92
2765648	675	-156	305
2765976	315	-569	603
2766304	50	-1242	1064
2766632	-226	-1523	1458
2766960	-162	-1252	1869
2767288	139	-364	2295
2767616	839	256	2671
2767944	1652	511	3392
2768272	2117	627	3902
2768600	2196	862	4168
2768928	2073	1220	4222
2769256	2026	2051	3950
2769584	2224	2811	3331
2769912	2743	2256	3182
2770240	2854	1433	3289
2770568	2509	528	3688
2770896	2319	-458	4431
2771224	1650	-1408	5280
2771552	1227	-1310	5256
2771880	755	827	3653
2772208	214	85	1723
2772536	430	327	741
2772864	720	1248	-62
2773192	413	391	-126
2773520	-641	-210	-270
2773848	-1979	-530	-16
2774176	-2390	-950	747
2774504	-2268	-1193	1582
2774832	-1870	-1341	2274
2775160	-913	-1396	2522
2775488	-299	-1361	2405
2775816	551	-577	2112
2776144	1314	469	1527
2776472	1963	1204	934
2776800	2314	1424	516
2777128	2067	819	421
2777456	3866	-3747	892
2777784	-877	-656	-3074
2778112	-3599	734	-5507
2778440	-2476	2596	-5111
2778768	-788	-4861	-1535
2779096	130	458	-32
2779424	-739	912	-1408
2779752	-1150	1941	-2144
2780080	-2204	1491	-1843
2780408	-1017	945	-671
2780736	-2528	-967	1030
2781064	-3471	4582	-980
2781392	-1906	-7872	-2027
2781720	-4122	3073	113
2782048	-1954	1712	26
2782376	1217	1624	-948
2782704	3924	881	-78
2783032	5516	79	422
2783360	5239	377	771
2783688	3907	353	1269
2784016	1856	254	1573
2784344	145	11	2021
2784672	-1180	-272	1933
2785000	-1738	-569	1750
2785328	-1872	-611	1499
2785656	-1857	-543	1325
2785984	-1696	-538	1353
2786312	-1339	-475	1479
2786640	-634	-359	1644
2786968	270	-124	1637
2787296	1061	74	1334
2787624	1400	-20	1057
2787952	1550	-99	842
2788280	1539	-106	866
2788608	1317	-98	741
2788936	1057	31	689
2789264	783	170	563
2789592	535	161	529
2789920	188	129	521
2790248	-89	129	356
2790576	-152	187	438
2790904	-43	289	372
2791232	258	461	310
2791560	577	488	282
2791888	752	443	289
2792216	700	368	330
2792544	560	329	348
2792872	278	359	174
2793200	93	313	337
2793528	0	307	259
2793856	-44	257	139
2794184	-47	273	140
2794512	-94	225	73
2794840	-100	196	64
2795168	0	231	22
2795496	95	346	-36
2795824	233	467	-56
2796152	266	419	-76
2796480	265	415	-65
2796808	148	434	-48
2797136	40	384	-49
2797464	-152	315	-41
2797792	-275	245	-13
2798120	-339	288	-176
2798448	-272	332	-18
2798776	-337	271	-87
2799104	-382	265	-14
2799432	-422	245	-68
2799760	-355	235	-15
2800088	-230	269	-34
2800416	-94	286	-46
2800744	-11	289	-92
2801072	16	279	-105
2801400	-17	244	-113
2801728	-96	206	-203
2802056	-196	177	-86
2802384	-264	178	-101
2802712	-313	178	-122
2803040	-298	178	-132
2803368	-222	209	-159
2803696	-164	222	-181
2804024	-121	241	-193
2804352	-130	245	-201
2804680	-180	216	-190
2805008	-181	197	-196
2805336	-196	218	-196
2805664	-199	225	-198
2805992	-168	225	-135
2806320	-224	223	-154
2806648	-196	252	-171
2806976	-179	226	-171
2807304	-183	221	-157
2807632	-237	211	-150
2807960	-283	231	-184
2808288	-249	226	-126
2808616	-231	222	-137
2808944	-249	234	-138
2809272	-284	171	-211
2809600	-312	176	-134
2809928	-311	181	-149
2810256	-294	194	-207
2810584	-264	188	-140
2810912	-254	195	-152
2811240	-220	187	-189
2811568	-195	167	-170
2811896	-146	197	-165
2812224	-140	197	-188
2812552	-152	207	-188
2812880	-146	183	-183
2813208	-211	185	-192
2813536	-206	171	-179
2813864	-205	171	-181
2814192	-217	149	-181
2814520	-256	143	-170
2814848	-267	132	-186
2815176	-280	130	-172
2815504	-293	128	-176
2815832	-261	128	-147
2816160	-228	126	-160
2816488	-187	147	-162
2816816	-175	138	-167
2817144	-239	142	-170
2817472	-254	138	-148
2817800	-264	149	-142
2818128	-277	139	-138
2818456	-222	150	-114
2818784	-228	142	-90
2819112	-241	121	-90
2819440	-239	99	-96
2819768	-247	125	-81
2820096	-227	143	-69
2820424	-212	140	-68
2820752	-200	133	-41
2821080	-181	156	-18
2821408	-168	163	-45
2821736	-171	150	-29
2822064	-199	144	-23
2822392	-209	132	-22
2822720	-234	119	-11
2823048	-213	151	-12
2823376	-219	170	-12
2823704	-216	149	-11
2824032	-235	158	4
2824360	-221	162	8
2824688	-208	165	-9
2825016	-206	161	-12
2825344	-201	151	-7
2825672	-252	160	18
2826000	-274	155	16
2826328	-254	150	15
2826656	-228	163	17
2826984	-204	175	22
2827312	-178	188	19
2827640	-172	195	-4
2827968	-134	219	-2
2828296	-127	202	2
2828624	-123	180	6
2828952	-118	201	23
2829280	-168	182	17
2829608	-166	196	4
2829936	-169	187	7
2830264	-165	190	1
2830592	-185	184	-10
2830920	-179	185	-10
2831248	-201	186	-18
2831576	-243	172	-16
2831904	-226	149	-24
2832232	-235	128	-44
2832560	-208	131	-66
2832888	-183	166	-76
2833216	-135	236	-98
2833544	-151	235	-98
2833872	-172	283	-109
2834200	-193	306	-117
2834528	-244	310	-101
2834856	-233	343	-80
2835184	-230	375	-77
2835512	-248	409	-52
2835840	-245	420	-45
2836168	-281	427	-49
2836496	-304	435	-44
2836824	-360	421	-39
2837152	-442	398	-19
2837480	-521	397	-10
2837808	-580	412	-16
2838136	-607	429	17
2838464	-589	459	-11
2838792	-615	448	-30
2839120	-641	478	-40
2839448	-682	488	-37
2839776	-744	493	-34
2840104	-769	509	-48
2840432	-785	490	-29
2840760	-808	585	-20
2841088	-826	604	-24
2841416	-916	601	11
2841744	-1087	591	54
2842072	-1349	567	97
2842400	-1666	519	146
2842728	-1953	444	185
2843056	-2212	404	213
2843384	-2424	390	244
2843712	-2579	300	270
2844040	-2601	285	371
2844368	-2622	256	386
2844696	-2603	254	402
2845024	-2522	168	405
2845352	-2282	184	409
2845680	-1958	231	397
2846008	-1699	308	365
2846336	-1423	324	367
2846664	-1231	382	368
2846992	-1064	438	337
2847320	-843	441	319
2847648	-723	457	280
2847976	-648	463	246
2848304	-562	433	189
2848632	-358	478	98
2848960	-66	583	37
2849288	170	626	-67
2849616	299	633	-132
2849944	261	640	-178
2850272	198	596	-242
2850600	121	562	-308
2850928	97	532	-349
2851256	38	512	-400
2851584	-94	444	-445
2851912	-226	379	-415
2852240	-277	350	-432
2852568	-262	353	-455
2852896	-295	296	-475
2853224	-331	303	-481
2853552	-344	291	-517
2853880	-339	252	-531
2854208	-370	231	-532
2854536	-395	228	-568
2854864	-394	232	-602
2855192	-382	242	-651
2855520	-399	240	-681
2855848	-426	240	-726
2856176	-436	239	-773
2856504	-408	262	-858
2856832	-402	253	-894
2857160	-420	265	-924
2857488	-483	223	-988
2857816	-517	189	-1025
2858144	-499	205	-1075
2858472	-417	216	-1131
2858800	-357	208	-1213
2859128	-308	224	-1260
2859456	-228	262	-1302
2859784	-81	279	-1381
2860112	78	315	-1456
2860440	199	377	-1541
2860768	292	401	-1592
2861096	371	413	-1690
2861424	411	455	-1793
2861752	394	480	-1906
2862080	375	463	-1971
2862408	265	371	-2037
2862736	54	73	-2102
2863064	-12	148	-2136
2863392	-47	168	-2117
2863720	-54	159	-2145
2864048	32	196	-2164
2864376	127	191	-2214
2864704	216	232	-2243
2865032	276	253	-2310
2865360	403	272	-2368
2865688	562	276	-2387
2866016	685	285	-2382
2866344	771	259	-2382
2866672	787	210	-2396
2867000	823	172	-2454
2867328	890	229	-2556
2867656	1012	228	-2577
2867984	1117	156	-2643
2868312	1072	26	-2742
2868640	840	-321	-2885
2868968	224	-604	-3015
2869296	-110	-304	-3105
2869624	-111	-26	-3377
2869952	-99	75	-3429
2870280	-121	118	-3548
2870608	-173	169	-3739
2870936	-372	209	-3844
2871264	-502	176	-3898
2871592	-359	329	-4010
2871920	-52	441	-4182
2872248	247	475	-4298
2872576	416	496	-4472
2872904	462	529	-4640
2873232	443	744	-4882
2873560	581	930	-5059
2873888	609	879	-4986
2874216	726	963	-4788
2874544	1026	1263	-4812
2874872	1527	1448	-4906
2875200	2091	1374	-4973
2875528	2689	1283	-5103
2875856	3223	928	-5379
2876184	3465	722	-5586
2876512	3141	604	-5627
2876840	2539	291	-5483
2877168	2148	-62	-5142
2877496	1574	-102	-4718
2877824	1255	-78	-4337
2878152	1238	43	-3978
2878480	1332	206	-3515
2878808	1795	488	-2745
2879136	1674	264	-1484
2879464	683	-86	53
2879792	-679	-350	1181
2880120	-1927	-282	2011
2880448	-2742	-117	2847
2880776	-3091	-61	3574
2881104	-2899	-165	4371
2881432	-2411	-312	5181
2881760	-2079	-323	5938
2882088	-1590	-310	6545
2882416	-1215	-174	7121
2882744	-816	-116	7753
2883072	-207	-94	8357
2883400	359	-107	8887
2883728	707	-137	9349
2884056	999	-157	9754
2884384	1007	-205	10090
2884712	849	-222	10399
2885040	535	-309	10632
2885368	350	-510	10846
2885696	207	-624	11150
2886024	-46	-793	11370
2886352	-56	-957	11577
2886680	33	-912	11626
2887008	180	-824	11493
2887336	363	-729	11356
2887664	408	-510	11204
2887992	543	-312	11080
2888320	695	-190	11082
2888648	854	-157	11059
2888976	1091	-170	11009
2889304	1177	-241	10755
2889632	945	-428	10537
2889960	616	-646	10339
2890288	339	-956	10097
2890616	306	-1287	9433
2890944	299	-1521	9457
2891272	216	-1725	9177
2891600	84	-2049	8558
2891928	-43	-1929	7596
2892256	-69	-1645	6854
2892584	-138	-1425	6255
2892912	-61	-1272	5630
2893240	138	-1016	5165
2893568	399	-586	4420
2893896	349	-432	3647
2894224	399	-199	3018
2894552	385	91	2197
2894880	144	197	1664
2895208	-366	146	1017
2895536	-1027	-41	647
2895864	-1682	-159	121
2896192	-2387	-320	-312
2896520	-2977	-443	-782
2896848	-3545	-671	-1324
2897176	-3812	-624	-1995
2897504	-3955	-595	-2691
2897832	-4025	-396	-3349
2898160	-3681	805	-3632
2898488	-250	4100	-1993
2898816	-182	-337	-284
2899144	-393	-367	-276
2899472	-258	728	-1461
2899800	-237	1727	-2829
2900128	-362	2321	-3495
2900456	-758	1695	-3361
2900784	-1220	1236	-3117
2901112	-2048	725	-3060
2901440	-3144	364	-3181
2901768	-3938	-88	-2943
2902096	-4352	-248	-2699
2902424	-4544	-130	-2611
2902752	-4507	277	-2794
2903080	-3845	895	-2947
2903408	-3105	843	-2853
2903736	-2627	1056	-2777
2904064	-2450	1071	-2788
2904392	-2312	1178	-2777
2904720	-2060	1327	-2869
2905048	-1866	1464	-2975
2905376	-1702	1584	-3084
2905704	-1601	1614	-3115
2906032	-1514	1577	-3092
2906360	-1474	1561	-3053
2906688	-1411	1543	-2890
2907016	-1356	1526	-2802
2907344	-1290	1433	-2759
2907672	-1091	1462	-2696
2908000	-960	1501	-2681
2908328	-948	1356	-2642
2908656	-783	1303	-2702
2908984	-653	1179	-2711
2909312	-624	1042	-2703
2909640	-560	975	-2685
2909968	-416	1058	-2638
2910296	-267	1072	-2627
2910624	-127	1031	-2634
2910952	25	1056	-2611
2911280	88	1038	-2578
2911608	104	1010	-2515
2911936	167	1020	-2463
2912264	218	938	-2418
2912592	264	947	-2361
2912920	326	875	-2307
2913248	342	877	-2298
2913576	331	868	-2305
2913904	294	841	-2294
2914232	163	820	-2323
2914560	130	806	-2352
2914888	211	804	-2400
2915216	318	827	-2466
2915544	336	805	-2567
2915872	391	852	-2636
2916200	414	903	-2752
2916528	437	856	-2833
2916856	404	806	-2922
2917184	352	756	-2992
2917512	324	756	-3062
2917840	283	750	-3172
2918168	259	707	-3241
2918496	196	704	-3305
2918824	160	737	-3308
2919152	157	766	-3361
2919480	160	779	-3394
2919808	104	796	-3421
2920136	43	843	-3431
2920464	62	853	-3460
2920792	153	896	-3511
2921120	321	1001	-3562
2921448	582	1108	-3674
2921776	1026	1328	-3860
2922104	1452	1350	-3976
2922432	1796	1292	-4082
2922760	1909	1194	-4223
2923088	1734	989	-4195
2923416	1551	912	-4234
2923744	1448	763	-4303
2924072	1459	739	-4328
2924400	1412	636	-4379
2924728	1212	534	-4423
2925056	1016	449	-4360
2925384	905	476	-4468
2925712	927	494	-4633
2926040	1056	563	-4799
2926368	1114	554	-4972
2926696	1209	448	-5135
2927024	779	-540	-5658
2927352	-43	-84	-5573
2927680	-295	190	-6067
2928008	-58	1014	-6495
2928336	233	1293	-6601
2928664	714	1711	-6865
2928992	1421	1940	-7090
2929320	2277	1934	-7014
2929648	2946	1963	-6705
2929976	3491	1517	-6281
2930304	3754	478	-5729
2930632	3119	-563	-5361
2930960	2108	-1127	-5363
2931288	1278	-1252	-5157
2931616	738	-1534	-4930
2931944	695	-1824	-4630
2932272	687	-1891	-3690
2932600	207	-1869	-2457
2932928	-847	-1321	-1502
2933256	-634	-370	-961
2933584	-104	152	-185
2933912	384	102	1208
2934240	609	84	2270
2934568	724	194	3469
2934896	358	296	4566
2935224	-255	290	5486
2935552	-711	283	6331
2935880	-521	406	6826
2936208	-20	581	7335
2936536	752	602	7891
2936864	1163	583	8487
2937192	1384	526	9043
2937520	1415	445	9527
2937848	1424	304	10004
2938176	1538	72	10365
2938504	1666	-153	10683
2938832	1682	-319	11015
2939160	1473	-468	11129
2939488	1214	-685	11234
2939816	807	-851	11413
2940144	457	-1079	11746
2940472	54	-1193	11861
2940800	-157	-1263	11766
2941128	-234	-1296	11731
2941456	-400	-1304	11655
2941784	-375	-1214	11618
2942112	-148	-1035	11502
2942440	189	-865	11363
2942768	381	-643	11258
2943096	535	-486	11130
2943424	789	-304	10836
2943752	992	-167	10568
2944080	1314	-146	10279
2944408	1396	-187	9891
2944736	1359	-328	9487
2945064	1185	-627	9140
2945392	739	-902	8710
2945720	391	-1275	8149
2946048	493	-1225	7420
2946376	177	-1334	6370
2946704	36	-1285	6199
2947032	80	-1245	5762
2947360	179	-1138	5298
2947688	171	-1076	4798
2948016	121	-939	4265
2948344	-30	-838	3682
2948672	-1	-681	3198
2949000	21	-561	2702
2949328	-17	-356	2150
2949656	-119	-193	1596
2949984	-188	-39	1280
2950312	-453	-194	759
2950640	-712	-278	526
2950968	-1012	-363	82
2951296	-1211	-352	-299
2951624	-1319	-350	-745
2951952	-1396	-212	-1167
2952280	-1299	-58	-1658
2952608	-1227	126	-2140
2952936	-1226	400	-2618
2953264	-1340	587	-3143
2953592	-1489	836	-3671
2953920	-1730	1022	-4171
2954248	-2150	1051	-4650
2954576	-2301	2497	-4640
2954904	1743	5450	-972
2955232	-980	-2823	999
2955560	-1505	-1149	1328
2955888	-2754	38	-139
2956216	-3333	795	-2556
2956544	-3636	1314	-2936
2956872	-4195	781	-2982
2957200	-4461	397	-2998
2957528	-4199	717	-3132
2957856	-4290	838	-3349
2958184	-4653	386	-3261
2958512	-4531	875	-3082
2958840	-3648	1929	-3416
2959168	-2193	2299	-3564
2959496	-966	2373	-3458
2959824	-347	2318	-3269
2960152	-70	2271	-3102
2960480	-196	2032	-3025
2960808	-841	1766	-3071
2961136	-1517	1484	-3100
2961464	-2044	1256	-3034
2961792	-2279	976	-3019
2962120	-1896	900	-2800
2962448	-1150	985	-2628
2962776	-227	1339	-2585
2963104	473	1658	-2543
2963432	775	1787	-2426
2963760	567	1643	-2471
2964088	120	1460	-2549
2964416	-308	1226	-2649
2964744	-636	1105	-2658
2965072	-726	995	-2588
2965400	-736	909	-2549
2965728	-780	856	-2460
2966056	-906	737	-2411
2966384	-1085	646	-2368
2966712	-1094	549	-2358
2967040	-1132	451	-2373
2967368	-1222	349	-2333
2967696	-1301	249	-2303
2968024	-1348	163	-2315
2968352	-1272	190	-2330
2968680	-1073	251	-2339
2969008	-824	330	-2391
2969336	-488	462	-2375
2969664	-165	575	-2442
2969992	139	692	-2484
2970320	415	754	-2526
2970648	635	795	-2536
2970976	776	824	-2570
2971304	803	828	-2524
2971632	744	793	-2523
2971960	586	738	-2502
2972288	444	730	-2470
2972616	408	742	-2449
2972944	370	750	-2506
2973272	409	729	-2524
2973600	387	737	-2529
2973928	359	776	-2570
2974256	424	825	-2627
2974584	452	833	-2652
2974912	505	809	-2605
2975240	483	849	-2635
2975568	625	894	-2684
2975896	795	940	-2640
2976224	809	959	-2695
2976552	748	907	-2658
2976880	748	1030	-2696
2977208	626	954	-2681
2977536	640	891	-2689
2977864	657	822	-2746
2978192	595	683	-2741
2978520	429	485	-2698
2978848	222	356	-2738
2979176	146	296	-2756
2979504	269	279	-2807
2979832	395	268	-2828
2980160	454	183	-2843
2980488	388	115	-2824
2980816	334	98	-2832
2981144	285	96	-2875
2981472	340	163	-2913
2981800	439	214	-2952
2982128	495	227	-2989
2982456	534	170	-2963
2982784	483	96	-2977
2983112	466	154	-3063
2983440	496	168	-3199
2983768	568	164	-3409
2984096	582	17	-3586
2984424	345	-549	-3805
2984752	-512	-802	-3794
2985080	-1026	-509	-3979
2985408	-1114	-2	-4254
2985736	-1005	404	-4420
2986064	-700	853	-4694
2986392	370	1664	-4943
2986720	1065	2189	-4921
2987048	1947	2862	-5146
2987376	2868	3071	-5112
2987704	3400	2856	-4892
2988032	3516	2561	-4593
2988360	3514	2324	-4436
2988688	3421	1788	-4426
2989016	3311	1368	-4398
2989344	3139	1292	-4496
2989672	2946	1386	-4603
2990000	2648	1416	-4850
2990328	2478	1401	-4819
2990656	2573	1400	-4428
2990984	2300	1382	-3918
2991312	1821	1160	-3405
2991640	1504	1028	-2907
2991968	1436	1101	-2618
2992296	1640	1651	-2481
2992624	2240	3534	-2421
2992952	4203	3406	-1616
2993280	4947	2479	-267
2993608	4843	1717	1029
2993936	3860	1432	2031
2994264	2509	1363	2858
2994592	1529	1283	3559
2994920	906	1241	4097
2995248	613	1204	4499
2995576	600	1222	4881
2995904	711	1144	5239
2996232	876	1039	5591
2996560	1031	797	5977
2996888	1096	456	6351
2997216	1018	93	6723
2997544	936	-450	6933
2997872	631	-826	7260
2998200	172	-1181	7422
2998528	-451	-1529	7539
2998856	-1149	-1948	7613
2999184	-1627	-2431	7631
2999512	-2171	-2856	7735
2999840	-2734	-3208	7552
3000168	-2858	-3275	7361
3000496	-2523	-3140	7126
3000824	-2164	-2909	6827
3001152	-1773	-2519	6662
3001480	-1569	-2289	6330
3001808	-1455	-2068	6328
3002136	-1433	-2094	6428
3002464	-1287	-2006	6364
3002792	-1239	-1814	6157
3003120	-1206	-1777	5929
3003448	-1310	-1777	5833
3003776	-1041	-1662	5562
3004104	-867	-1491	5314
3004432	-698	-1397	4935
3004760	-554	-1305	4614
3005088	-473	-1190	4277
3005416	-419	-1128	3783
3005744	-253	-816	3274
3006072	-134	-690	2818
3006400	-182	-556	2387
3006728	-177	-452	2041
3007056	-230	-362	1563
3007384	-293	-195	1151
3007712	-465	-253	998
3008040	-525	-403	1043
3008368	-401	-548	1001
3008696	-255	-1121	1084
3009024	72	478	752
3009352	-467	-495	266
3009680	-363	16	-96
3010008	-163	116	-268
3010336	-88	53	-286
3010664	-147	25	-417
3010992	21	245	-453
3011320	240	294	-368
3011648	464	497	-267
3011976	782	848	-212
3012304	952	1120	-116
3012632	981	1189	-83
3012960	741	1125	-142
3013288	436	1018	-151
3013616	291	1099	-243
3013944	194	1254	-395
3014272	73	1182	-450
3014600	-178	968	-417
3014928	-502	693	-330
3015256	-739	535	-298
3015584	-874	442	-276
3015912	-969	354	-236
3016240	-994	367	-241
3016568	-1000	328	-259
3016896	-957	333	-272
3017224	-886	402	-311
3017552	-744	478	-297
3017880	-519	551	-319
3018208	-240	625	-318
3018536	-17	664	-317
3018864	47	670	-442
3019192	54	664	-326
3019520	-2	640	-302
3019848	-70	582	-271
3020176	-165	568	-204
3020504	-333	505	-209
3020832	-515	487	-227
3021160	-662	441	-226
3021488	-750	422	-242
3021816	-803	439	-268
3022144	-724	422	-243
3022472	-610	444	-245
3022800	-512	450	-228
3023128	-391	456	-220
3023456	-325	417	-229
3023784	-315	427	-190
3024112	-373	385	-177
3024440	-434	343	-165
3024768	-478	329	-176
3025096	-542	336	-154
3025424	-580	337	-163
3025752	-613	326	-208
3026080	-596	332	-194
3026408	-564	315	-175
3026736	-508	314	-163
3027064	-516	295	-153
3027392	-499	264	-141
3027720	-476	248	-133
3028048	-406	244	-125
3028376	-387	235	-131
3028704	-360	219	-115
3029032	-346	225	-100
3029360	-354	225	-97
3029688	-352	217	-161
3030016	-297	223	-87
3030344	-276	226	-94
3030672	-297	202	-92
3031000	-290	188	-88
3031328	-246	201	-71
3031656	-218	208	-75
3031984	-164	219	-61
3032312	-164	215	-67
3032640	-150	214	-49
3032968	-142	219	-66
3033296	-123	196	-51
3033624	-108	205	-53
3033952	-67	213	-58
3034280	-50	218	-56
3034608	-43	219	-79
3034936	-63	213	-80
3035264	-90	207	-87
3035592	-80	192	-88
3035920	-61	194	-93
3036248	-55	207	-130
3036576	-50	193	-142
3036904	-90	185	-139
3037232	-104	165	-131
3037560	-111	159	-140
3037888	-112	161	-136
3038216	-66	178	-139
3038544	-20	183	-172
3038872	11	173	-163
3039200	-19	174	-161
3039528	-19	167	-158
3039856	-6	159	-149
3040184	13	140	-132
3040512	59	127	-152
3040840	72	113	-174
3041168	78	119	-185
3041496	24	90	-194
3041824	-5	123	-209
3042152	-38	129	-219
3042480	-36	119	-219
3042808	-20	133	-235
3043136	-3	126	-233
3043464	85	145	-242
3043792	120	176	-251
3044120	145	170	-276
3044448	125	182	-297
3044776	79	156	-284
3045104	55	122	-275
3045432	-108	93	-259
3045760	-357	40	-200
3046088	-615	13	-178
3046416	-742	-41	-172
3046744	-794	-26	-126
3047072	-769	8	-138
3047400	-739	17	-181
3047728	-739	11	-169
3048056	-688	25	-169
3048384	-653	50	-165
3048712	-581	79	-145
3049040	-492	120	-127
3049368	-482	110	-106
3049696	-584	79	-116
3050024	-744	28	-94
3050352	-880	-14	-100
3050680	-963	-50	-105
3051008	-920	-34	-97
3051336	-783	5	-88
3051664	-625	37	-59
3051992	-570	64	-48
3052320	-569	12	-33
3052648	-549	9	-43
3052976	-458	31	-53
3053304	-399	33	-47
3053632	-346	19	-73
3053960	-427	-2	-96
3054288	-582	-38	-95
3054616	-694	-6	-121
3054944	-744	-31	-139
3055272	-867	-82	-127
3055600	-1017	-100	-142
3055928	-1179	-151	-184
3056256	-1325	-166	-224
3056584	-1342	-137	-270
3056912	-1279	-119	-311
3057240	-1270	-84	-358
3057568	-1390	-109	-373
3057896	-1534	-176	-396
3058224	-1604	-210	-408
3058552	-1692	-225	-434
3058880	-1646	-230	-458
3059208	-1609	-224	-448
3059536	-1627	-234	-492
3059864	-1706	-248	-555
3060192	-1893	-336	-586
3060520	-1978	-393	-611
3060848	-2077	-406	-686
3061176	-2032	-353	-798
3061504	-1918	-274	-880
3061832	-1816	-217	-985
3062160	-1880	-255	-1066
3062488	-2090	-359	-1088
3062816	-2346	-458	-1118
3063144	-2577	-589	-1134
3063472	-2658	-652	-1156
3063800	-2700	-671	-1248
3064128	-2683	-572	-1289
3064456	-3045	-801	-1388
3064784	-3231	-1129	-1365
3065112	-3401	-1300	-1469
3065440	-3501	-1440	-1614
3065768	-3542	-1681	-1736
3066096	-3597	-1917	-1809
3066424	-3687	-2188	-1889
3066752	-3952	-2561	-1972
3067080	-4231	-2848	-1910
3067408	-4402	-3076	-1898
3067736	-4411	-3058	-1898
3068064	-4233	-3012	-1971
3068392	-3951	-2822	-1968
3068720	-3790	-2808	-1980
3069048	-3619	-2715	-1948
3069376	-3476	-2643	-1896
3069704	-3333	-2617	-1812
3070032	-3145	-2658	-1713
3070360	-2983	-2729	-1667
3070688	-2766	-2777	-1635
3071016	-2509	-2988	-1722
3071344	-2294	-3273	-1800
3071672	-2338	-3529	-1827
3072000	-2568	-3801	-1767
3072328	-3042	-4315	-1557
3072656	-3667	-4913	-1191
3072984	-4251	-5375	-858
3073312	-4863	-5721	-1047
3073640	-5172	-5640	-1368
3073968	-5059	-5462	-1529
3074296	-5143	-5603	-1543
3074624	-5496	-6111	-1442
3074952	-6118	-6785	-1111
3075280	-6620	-6976	-778
3075608	-7616	-7764	-238
3075936	-9157	-9474	618
3076264	-10947	-10713	1655
3076592	-12718	-11368	2657
3076920	-14374	-11022	3474
3077248	-15318	-10525	3824
3077576	-15155	-9952	3924
3077904	-13881	-9367	3791
3078232	-12215	-8750	3618
3078560	-11018	-8163	3474
3078888	-10134	-7580	3490
3079216	-9689	-7110	3525
3079544	-9699	-6848	3572
3079872	-9783	-6656	3805
3080200	-9861	-6653	3987
3080528	-10060	-6600	4076
3080856	-10230	-6630	4200
3081184	-10373	-6825	4450
3081512	-10696	-6993	4549
3081840	-10942	-7160	4603
3082168	-11057	-7426	4634
3082496	-11095	-7685	4592
3082824	-10908	-7847	4438
3083152	-10725	-7991	4328
3083480	-10517	-7927	4240
3083808	-10475	-7894	4083
3084136	-10191	-7723	3977
3084464	-10136	-7760	3905
3084792	-10065	-7871	3963
3085120	-10373	-8061	4036
3085448	-11008	-8287	4071
3085776	-11889	-8719	4208
3086104	-12907	-9131	4256
3086432	-13741	-9247	4159
3086760	-14120	-9163	3947
3087088	-13817	-8921	3713
3087416	-13011	-8521	3423
3087744	-12168	-7905	3091
3088072	-11310	-7371	2808
3088400	-10622	-7010	2647
3088728	-10246	-6764	2525
3089056	-10028	-6530	2401
3089384	-10088	-6244	2292
3089712	-9958	-5847	2165
3090040	-9705	-5334	2101
3090368	-9276	-4745	1820
3090696	-8613	-4215	1597
3091024	-8117	-3545	1214
3091352	-7766	-2962	755
3091680	-7294	-2431	516
3092008	-6867	-2072	395
3092336	-6420	-1777	572
3092664	-5652	-1467	923
3092992	-4997	-1126	1354
3093320	-4271	-607	1596
3093648	-3518	-64	1628
3093976	-2697	461	1496
3094304	-1879	873	1477
3094632	-1156	1092	1612
3094960	-524	1239	1842
3095288	-134	1266	1950
3095616	31	1139	2143
3095944	-284	626	2403
3096272	-1208	-162	2726
3096600	-2696	-638	2884
3096928	-4146	-727	2901
3097256	-5233	-980	2912
3097584	-5695	-1161	3024
3097912	-5749	-1044	3025
3098240	-5824	-984	2895
3098568	-5740	-931	2721
3098896	-5530	-821	2365
3099224	-5191	-628	1871
3099552	-4692	-381	1452
3099880	-4385	-282	1199
3100208	-4182	-252	1106
3100536	-3962	-136	984
3100864	-3456	235	849
3101192	-2963	362	761
3101520	-2511	479	651
3101848	-2180	553	534
3102176	-2026	564	402
3102504	-2125	394	338
3102832	-2223	362	295
3103160	-2362	271	252
3103488	-2474	184	288
3103816	-2438	58	345
3104144	-2478	-93	379
3104472	-2595	-206	389
3104800	-2627	-339	253
3105128	-2683	-403	420
3105456	-2671	-446	534
3105784	-2547	-410	510
3106112	-2480	-335	431
3106440	-2461	-429	318
3106768	-2468	-538	277
3107096	-2468	-643	253
3107424	-2451	-657	144
3107752	-2438	-723	66
3108080	-2446	-840	-35
3108408	-2486	-947	-76
3108736	-2571	-1053	-122
3109064	-2776	-1177	-133
3109392	-3076	-1331	-140
3109720	-3415	-1474	-181
3110048	-3707	-1673	-253
3110376	-3965	-1920	-278
3110704	-4172	-2149	-271
3111032	-4265	-2174	-249
3111360	-4412	-2298	-187
3111688	-4575	-2383	-126
3112016	-4718	-2381	-112
3112344	-4876	-2327	-99
3112672	-5147	-2467	-59
3113000	-5389	-2401	-45
3113328	-5529	-2234	-79
3113656	-5457	-2228	-71
3113984	-5424	-2288	-46
3114312	-5549	-2374	-79
3114640	-5776	-2467	-61
3114968	-6055	-2579	-9
3115296	-6324	-2742	68
3115624	-6527	-2668	60
3115952	-6296	-2456	-20
3116280	-5816	-2311	-104
3116608	-5191	-2102	-230
3116936	-4441	-1849	-389
3117264	-3506	-1519	-510
3117592	-2546	-1098	-589
3117920	-1498	31	-730
3118248	-341	744	-861
3118576	473	960	-825
3118904	1020	1247	-739
3119232	1757	1931	-721
3119560	2230	2045	-1000
3119888	2991	1802	-1313
3120216	3850	1564	-1429
3120544	4072	1128	-1320
3120872	3810	873	-1303
3121200	3445	719	-1200
3121528	3034	552	-1015
3121856	2704	456	-867
3122184	2390	377	-767
3122512	2122	341	-674
3122840	1872	361	-566
3123168	1632	383	-514
3123496	1632	475	-444
3123824	1729	594	-411
3124152	1839	646	-387
3124480	1899	690	-370
3124808	1808	775	-381
3125136	1731	964	-391
3125464	1709	1073	-389
3125792	1776	1116	-423
3126120	1809	1066	-440
3126448	1667	1009	-459
3126776	1548	955	-440
3127104	1434	882	-406
3127432	1241	756	-411
3127760	942	520	-354
3128088	596	285	-286
3128416	274	65	-211
3128744	12	-116	-160
3129072	-233	-240	-136
3129400	-470	-316	-171
3129728	-615	-312	-119
3130056	-699	-237	-103
3130384	-624	-78	-158
3130712	-459	83	-224
3131040	-208	203	-190
3131368	0	248	-183
3131696	90	243	-159
3132024	99	245	-143
3132352	92	217	-124
3132680	98	190	-107
3133008	151	176	-111
3133336	134	142	-95
3133664	52	116	-88
3133992	-33	90	-75
3134320	-102	88	-59
3134648	-112	85	-26
3134976	-88	131	-31
3135304	-70	147	-15
3135632	-87	148	-25
3135960	-102	134	-15
3136288	-161	162	-12
3136616	-181	168	-16
3136944	-220	167	-24
3137272	-212	179	-1
3137600	-159	187	3
3137928	-131	215	7
3138256	-92	218	-8
3138584	-90	221	-13
3138912	-35	216	-10
3139240	-50	222	-23
3139568	-24	230	-21
3139896	-1	242	-25
3140224	-64	249	-21
3140552	-136	226	-1
3140880	-155	224	11
3141208	-173	195	5
3141536	-208	203	33
3141864	-285	198	27
3142192	-321	190	44
3142520	-285	203	71
3142848	-180	207	72
3143176	-112	248	59
3143504	-101	258	66
3143832	-93	271	46
3144160	-69	280	26
3144488	-40	280	41
3144816	-73	267	43
3145144	-104	274	60
3145472	-135	256	38
3145800	-125	251	72
3146128	-78	272	84
3146456	-52	265	60
3146784	-30	275	98
3147112	-17	270	91
3147440	-31	257	54
3147768	-6	245	80
3148096	25	254	75
3148424	50	262	62
3148752	58	249	53
3149080	28	218	52
3149408	-36	208	48
3149736	-42	205	60
3150064	-62	196	29
3150392	-104	183	13
3150720	-155	156	18
3151048	-205	142	19
3151376	-232	128	4
3151704	-283	116	-22
3152032	-326	88	-6
3152360	-412	77	-18
3152688	-489	75	-25
3153016	-549	67	-31
3153344	-601	49	-12
3153672	-687	17	-17
3154000	-712	43	-9
3154328	-712	43	0
3154656	-686	51	-10
3154984	-676	54	-12
3155312	-679	38	-46
3155640	-645	39	11
3155968	-621	56	28
3156296	-619	49	42
3156624	-600	38	59
3156952	-580	60	67
3157280	-535	67	63
3157608	-514	70	60
3157936	-492	88	65
3158264	-503	103	76
3158592	-547	99	66
3158920	-614	98	55
3159248	-694	79	57
3159576	-764	82	86
3159904	-790	90	78
3160232	-739	112	65
3160560	-683	138	50
3160888	-623	129	29
3161216	-658	91	31
3161544	-644	57	62
3161872	-697	45	87
3162200	-728	95	66
3162528	-743	140	49
3162856	-779	162	65
3163184	-842	195	57
3163512	-899	221	57
3163840	-927	254	78
3164168	-917	318	77
3164496	-774	523	68
3164824	-621	586	48
3165152	-496	587	75
3165480	-521	585	134
3165808	-682	555	206
3166136	-905	484	251
3166464	-961	457	273
3166792	-818	456	294
3167120	-715	439	354
3167448	-680	401	390
3167776	-719	383	382
3168104	-782	410	393
3168432	-892	407	393
3168760	-900	407	393
3169088	-819	403	351
3169416	-788	411	339
3169744	-779	403	294
3170072	-681	483	235
3170400	-477	587	131
3170728	-198	660	40
3171056	81	696	-45
3171384	157	717	-83
3171712	29	657	-120
3172040	-52	617	-156
3172368	-130	578	-197
3172696	-255	507	-249
3173024	-366	458	-246
3173352	-485	360	-261
3173680	-527	326	-285
3174008	-495	283	-279
3174336	-457	286	-308
3174664	-395	261	-320
3174992	-332	260	-334
3175320	-265	269	-363
3175648	-226	273	-381
3175976	-213	281	-376
3176304	-160	278	-400
3176632	-177	252	-423
3176960	-190	265	-427
3177288	-210	245	-455
3177616	-204	247	-495
3177944	-175	246	-522
3178272	-217	228	-567
3178600	-185	252	-599
3178928	-149	277	-640
3179256	-85	293	-687
3179584	-90	297	-728
3179912	-33	318	-782
3180240	13	341	-838
3180568	43	347	-872
3180896	-27	344	-869
3181224	-118	329	-885
3181552	-195	297	-901
3181880	-227	288	-916
3182208	-220	273	-931
3182536	-197	281	-964
3182864	-105	310	-1001
3183192	30	368	-1027
3183520	105	364	-1066
3183848	133	357	-1113
3184176	178	372	-1143
3184504	241	386	-1244
3184832	315	379	-1268
3185160	389	382	-1354
3185488	515	453	-1425
3185816	592	431	-1571
3186144	600	492	-1659
3186472	552	444	-1759
3186800	429	440	-1838
3187128	351	405	-1902
3187456	279	383	-1960
3187784	332	375	-2049
3188112	408	377	-2142
3188440	446	337	-2224
3188768	372	250	-2339
3189096	343	235	-2326
3189424	279	196	-2363
3189752	322	159	-2392
3190080	450	164	-2412
3190408	579	175	-2440
3190736	698	152	-2497
3191064	832	130	-2564
3191392	968	107	-2610
3191720	1029	43	-2590
3192048	993	-53	-2575
3192376	851	-165	-2668
3192704	565	-487	-2843
3193032	88	-661	-3026
3193360	-18	-330	-3168
3193688	211	16	-3393
3194016	382	53	-3478
3194344	245	-81	-3542
3194672	-77	-186	-3721
3195000	-411	-287	-3926
3195328	-495	-362	-4102
3195656	-283	-399	-4303
3195984	-5	-478	-4500
3196312	35	-638	-4673
3196640	-63	-617	-4814
3196968	-95	-549	-4956
3197296	-116	-453	-5069
3197624	-123	-277	-5127
3197952	-59	-23	-5244
3198280	197	283	-5378
3198608	661	407	-5506
3198936	1138	625	-5498
3199264	1766	775	-5379
3199592	2112	617	-5219
3199920	2283	380	-4951
3200248	2105	-109	-4987
3200576	1621	-681	-4875
3200904	1260	-1343	-4789
3201232	1159	-1831	-4834
3201560	898	-2144	-4937
3201888	833	-2470	-4597
3202216	259	-2450	-3982
3202544	-634	-2086	-3282
3202872	-1565	-1328	-2503
3203200	-1717	-158	-1827
3203528	-757	79	-1005
3203856	84	393	40
3204184	488	307	1136
3204512	362	57	2172
3204840	-187	-125	3227
3205168	-909	-180	4348
3205496	-1537	-89	5189
3205824	-1404	-212	6055
3206152	-1089	-346	6654
3206480	-753	-357	7358
3206808	-414	-368	8019
3207136	-187	-454	8660
3207464	-4	-477	9282
3207792	165	-475	9674
3208120	470	-507	9951
3208448	1070	-480	10203
3208776	1726	-441	10423
3209104	2290	-467	10632
3209432	2348	-478	10918
3209760	2194	-430	11052
3210088	1921	-295	11163
3210416	1449	-181	11451
3210744	1054	-165	11543
3211072	1069	-185	11692
3211400	1117	-127	11845
3211728	1102	-6	11910
3212056	1151	147	11950
3212384	1412	293	12034
3212712	1658	370	12106
3213040	1763	332	12036
3213368	1804	296	12000
3213696	1835	90	11813
3214024	1859	-79	11479
3214352	1698	-329	10975
3214680	1498	-576	10647
3215008	1428	-834	10445
3215336	1199	-931	9824
3215664	826	-977	8791
3215992	437	-930	7775
3216320	277	-559	6801
3216648	176	-452	5853
3216976	351	-264	5081
3217304	312	44	4114
3217632	186	259	3316
3217960	-306	343	2149
3218288	-817	363	1438
3218616	-1429	167	743
3218944	-2095	-44	34
3219272	-2864	-216	-702
3219600	-3674	-437	-1377
3219928	-4322	-522	-1999
3220256	-4866	-542	-2581
3220584	-5043	-374	-3142
3220912	-4933	51	-3680
3221240	-4608	1291	-3949
3221568	-1122	3307	-1780
3221896	-2545	-1567	374
3222224	-2461	-121	225
3222552	-2495	739	-1133
3222880	-1891	1624	-2961
3223208	-1283	2085	-3523
3223536	-797	2123	-3604
3223864	-1039	1524	-3495
3224192	-1703	870	-3495
3224520	-2515	459	-3421
3224848	-2961	366	-3163
3225176	-3106	601	-3067
3225504	-2694	1109	-3015
3225832	-2221	1570	-3021
3226160	-1828	1742	-2853
3226488	-1765	1550	-2565
3226816	-2177	1233	-2410
3227144	-2835	911	-2405
3227472	-3472	585	-2367
3227800	-4032	328	-2351
3228128	-4394	420	-2456
3228456	-4244	454	-2608
3228784	-3512	696	-2697
3229112	-2206	1382	-2764
3229440	-703	1962	-2961
3229768	438	2172	-3017
3230096	1109	2282	-2893
3230424	1296	2186	-2680
3230752	1277	2044	-2488
3231080	1193	1905	-2484
3231408	1051	1786	-2530
3231736	1001	1676	-2495
3232064	1050	1605	-2494
3232392	1200	1602	-2518
3232720	1235	1487	-2470
3233048	1082	1409	-2433
3233376	941	1337	-2413
3233704	815	1238	-2333
3234032	809	1231	-2309
3234360	881	1235	-2320
3234688	874	1196	-2335
3235016	775	1104	-2326
3235344	588	985	-2302
3235672	458	894	-2283
3236000	526	872	-2311
3236328	641	884	-2338
3236656	682	903	-2372
3236984	686	862	-2378
3237312	644	862	-2387
3237640	602	803	-2427
3237968	533	751	-2423
3238296	418	713	-2429
3238624	377	671	-2426
3238952	283	623	-2458
3239280	134	593	-2435
3239608	-6	537	-2465
3239936	-68	476	-2453
3240264	-84	464	-2472
3240592	-15	498	-2482
3240920	48	498	-2535
3241248	125	459	-2580
3241576	107	475	-2624
3241904	98	446	-2670
3242232	132	482	-2722
3242560	116	492	-2781
3242888	55	484	-2808
3243216	14	524	-2870
3243544	32	510	-2948
3243872	168	488	-2995
3244200	176	506	-3062
3244528	194	460	-3089
3244856	315	458	-3078
3245184	483	528	-3050
3245512	801	641	-3113
3245840	1136	885	-3244
3246168	1410	987	-3323
3246496	1573	1000	-3318
3246824	1635	999	-3392
3247152	1612	887	-3403
3247480	1581	831	-3423
3247808	1516	724	-3521
3248136	1466	561	-3660
3248464	1393	387	-3782
3248792	1294	249	-3940
3249120	1051	-195	-4164
3249448	-60	-925	-4536
3249776	-582	-611	-4357
3250104	-698	-141	-4864
3250432	-674	-211	-5038
3250760	-700	-314	-5156
3251088	-838	-220	-5455
3251416	-948	-91	-5724
3251744	-859	-28	-5757
3252072	-522	74	-5856
3252400	-90	74	-5983
3252728	213	201	-5981
3253056	705	396	-5902
3253384	1202	633	-5785
3253712	1575	731	-5732
3254040	2040	655	-5410
3254368	2335	387	-5174
3254696	2430	-528	-5068
3255024	2334	-1103	-5051
3255352	2026	-1374	-5053
3255680	1414	-1520	-4875
3256008	500	-1654	-4430
3256336	-542	-1910	-3582
3256664	-1623	-2016	-2760
3256992	-2684	-1846	-2021
3257320	-2895	-1023	-1598
3257648	-1711	-271	-1085
3257976	-112	163	-225
3258304	1075	-131	814
3258632	1997	-322	1900
3258960	2482	-429	3021
3259288	2380	-578	4001
3259616	1914	-782	4881
3259944	1194	-999	5716
3260272	478	-1112	6420
3260600	197	-1066	7100
3260928	-114	-1056	7670
3261256	-213	-1133	8255
3261584	-122	-1190	8861
3261912	-35	-1247	9331
3262240	171	-1299	9739
3262568	470	-1350	10065
3262896	737	-1435	10361
3263224	1056	-1406	10556
3263552	1186	-1365	10762
3263880	1416	-1389	10923
3264208	1462	-1306	11028
3264536	1469	-1246	11133
3264864	1366	-1242	11182
3265192	1184	-1209	11140
3265520	1271	-1094	11192
3265848	1572	-858	11407
3266176	1692	-517	11460
3266504	1816	-235	11383
3266832	1884	-12	11245
3267160	2147	217	11147
3267488	2281	396	10983
3267816	2575	539	10807
3268144	2763	715	10537
3268472	2929	821	10277
3268800	3089	891	9896
3269128	3194	990	9173
3269456	3250	1040	9026
3269784	3251	1076	8243
3270112	3204	1444	7543
3270440	3017	1549	7055
3270768	2855	1580	6660
3271096	2525	1601	6085
3271424	2220	1511	5442
3271752	1800	1647	4803
3272080	1107	1418	4173
3272408	401	1121	3585
3272736	-397	933	2849
3273064	-1199	469	2358
3273392	-1977	162	1791
3273720	-2747	-120	1190
3274048	-3374	-350	642
3274376	-3792	-445	76
3274704	-4037	-488	-431
3275032	-4050	-356	-968
3275360	-4022	-109	-1445
3275688	-3787	312	-2064
3276016	-3513	628	-2639
3276344	-3360	967	-3236
3276672	-3240	1311	-3821
3277000	-3038	2526	-3935
3277328	-234	2503	-655
3277656	-1434	-1178	774
3277984	-2003	40	-52
3278312	-2541	1176	-1960
3278640	-2396	1071	-3233
3278968	-1918	813	-3126
3279296	-2068	524	-3226
3279624	-3493	-243	-3243
3279952	-4879	-725	-3207
3280280	-5702	-756	-3078
3280608	-5813	-327	-2961
3280936	-4675	764	-3039
3281264	-2748	1720	-3215
3281592	-817	2315	-3105
3281920	465	2637	-2941
3282248	778	2712	-2800
3282576	532	2457	-2928
3282904	142	2150	-2935
3283232	-531	1719	-2934
3283560	-1174	1319	-3023
3283888	-1513	1023	-3035
3284216	-1399	858	-3030
3284544	-1065	858	-2885
3284872	-631	1011	-2785
3285200	-132	1337	-2762
3285528	141	1465	-2665
3285856	252	1433	-2667
3286184	-1	1249	-2703
3286512	-343	1051	-2671
3286840	-769	795	-2507
3287168	-1003	580	-2371
3287496	-1153	512	-2410
3287824	-977	545	-2473
3288152	-694	625	-2514
3288480	-574	648	-2531
3288808	-678	580	-2434
3289136	-815	457	-2254
3289464	-967	328	-2145
3289792	-899	302	-2144
3290120	-677	353	-2170
3290448	-484	409	-2122
3290776	-468	396	-2087
3291104	-504	367	-2021
3291432	-614	316	-1965
3291760	-613	305	-1939
3292088	-466	344	-1964
3292416	-189	400	-2016
3292744	50	471	-2082
3293072	173	540	-2149
3293400	159	567	-2138
3293728	163	606	-2079
3294056	131	583	-2060
3294384	111	597	-2095
3294712	121	568	-2151
3295040	159	545	-2247
3295368	191	515	-2326
3295696	246	545	-2382
3296024	303	547	-2443
3296352	479	627	-2390
3296680	602	679	-2321
3297008	728	708	-2353
3297336	752	695	-2409
3297664	683	647	-2465
3297992	610	576	-2510
3298320	614	571	-2596
3298648	703	587	-2681
3298976	765	603	-2688
3299304	711	557	-2597
3299632	501	460	-2590
3299960	279	450	-2610
3300288	227	414	-2631
3300616	325	429	-2722
3300944	493	410	-2733
3301272	639	403	-2735
3301600	836	404	-2781
3301928	998	396	-2841
3302256	1203	417	-2888
3302584	1360	392	-2886
3302912	1484	368	-2849
3303240	1484	341	-2832
3303568	1425	262	-2811
3303896	1320	212	-2857
3304224	1266	122	-2890
3304552	1102	-88	-2921
3304880	630	-724	-3161
3305208	-201	-589	-3072
3305536	-265	32	-3095
3305864	123	392	-3350
3306192	415	177	-3396
3306520	343	-103	-3372
3306848	-91	-268	-3480
3307176	-450	-280	-3526
3307504	-331	-254	-3521
3307832	57	-201	-3704
3308160	341	-169	-3858
3308488	396	-73	-3921
3308816	314	57	-3969
3309144	299	268	-4038
3309472	484	463	-4117
3309800	783	674	-4266
3310128	1125	839	-4452
3310456	1331	926	-4416
3310784	1462	1006	-4344
3311112	1521	1143	-4381
3311440	1650	1305	-4399
3311768	1848	1386	-4507
3312096	2175	1572	-4675
3312424	2631	1706	-4866
3312752	3123	1466	-4921
3313080	3346	941	-4791
3313408	2832	635	-4652
3313736	2011	461	-4556
3314064	1574	292	-4308
3314392	1078	57	-3979
3314720	698	-334	-3419
3315048	159	-738	-2796
3315376	-329	-1141	-2435
3315704	-834	-1203	-2123
3316032	-1122	-1367	-1752
3316360	-1154	-392	-1422
3316688	-351	211	-916
3317016	452	401	-122
3317344	1136	549	865
3317672	1402	383	1839
3318000	1484	196	2747
3318328	1450	34	3718
3318656	1294	-55	4556
3318984	1366	-33	5227
3319312	1547	73	5886
3319640	1673	164	6414
3319968	1574	346	7030
3320296	1449	426	7461
3320624	1464	337	7818
3320952	1691	200	8184
3321280	1878	-86	8514
3321608	2062	-447	8711
3321936	2268	-681	8913
3322264	2342	-815	9028
3322592	2239	-1071	8966
3322920	2101	-1228	8951
3323248	1762	-1265	8909
3323576	1327	-1269	8845
3323904	939	-1402	8746
3324232	847	-1432	8661
3324560	968	-1250	8449
3324888	939	-1187	8098
3325216	1062	-1109	7679
3325544	1046	-1190	7149
3325872	909	-1084	6704
3326200	747	-804	5885
3326528	577	-664	4981
3326856	323	-555	4115
3327184	30	-440	3244
3327512	-311	-339	2414
3327840	-538	-138	1667
3328168	-594	19	1048
3328496	-387	63	571
3328824	-238	949	154
3329152	-1045	758	-647
3329480	-1134	1544	-1229
3329808	-1001	1542	-1404
3330136	-733	889	-1028
3330464	-444	625	-304
3330792	-22	619	152
3331120	249	563	354
3331448	406	693	238
3331776	364	808	2
3332104	186	679	-122
3332432	-53	298	153
3332760	-377	94	333
3333088	-692	159	196
3333416	-712	332	107
3333744	-470	510	73
3334072	-139	648	-53
3334400	17	669	-173
3334728	-57	623	-239
3335056	-311	642	-277
3335384	-546	643	-274
3335712	-618	660	-341
3336040	-580	651	-366
3336368	-537	669	-418
3336696	-498	656	-504
3337024	-554	607	-543
3337352	-679	544	-558
3337680	-839	459	-632
3338008	-846	448	-695
3338336	-809	463	-627
3338664	-827	459	-524
3338992	-916	444	-443
3339320	-927	429	-370
3339648	-849	440	-326
3339976	-707	443	-318
3340304	-587	486	-382
3340632	-382	455	-368
3340960	-253	462	-374
3341288	-182	497	-366
3341616	-144	506	-313
3341944	-160	482	-278
3342272	-242	449	-247
3342600	-277	432	-210
3342928	-290	426	-204
3343256	-267	406	-206
3343584	-250	373	-217
3343912	-236	373	-208
3344240	-256	365	-236
3344568	-298	354	-249
3344896	-277	375	-173
3345224	-244	374	-124
3345552	-220	373	-107
3345880	-178	394	-89
3346208	-122	386	-80
3346536	-90	371	-84
3346864	-114	357	-76
3347192	-183	330	-35
3347520	-204	314	-27
3347848	-195	298	-20
3348176	-196	276	-33
3348504	-183	254	-23
3348832	-160	268	-38
3349160	-143	263	-35
3349488	-110	245	-46
3349816	-62	261	-55
3350144	1	252	-85
3350472	39	250	-120
3350800	25	253	-113
3351128	1	225	-91
3351456	-33	215	-76
3351784	-74	197	-56
3352112	-104	174	-83
3352440	-143	146	-93
3352768	-176	150	-111
3353096	-184	129	-100
3353424	-199	129	-103
3353752	-208	140	-107
3354080	-224	121	-98
3354408	-224	104	-86
3354736	-194	121	-74
3355064	-126	126	-82
3355392	-63	141	-88
3355720	-28	143	-95
3356048	-43	141	-82
3356376	-87	138	-67
3356704	-102	140	-74
3357032	-108	133	-86
3357360	-146	114	-80
3357688	-153	102	-74
3358016	-174	106	-42
3358344	-200	79	-44
3358672	-200	63	-42
3359000	-212	58	-26
3359328	-190	36	-32
3359656	-181	20	-48
3359984	-161	36	-50
3360312	-83	73	-24
3360640	-24	88	-46
3360968	-1	108	-41
3361296	-28	99	-36
3361624	-65	99	-26
3361952	-72	115	-15
3362280	-81	98	-32
3362608	-81	105	-24
3362936	-83	108	-15
3363264	-83	112	-13
3363592	-67	112	-4
3363920	-25	99	13
3364248	-16	108	-1
3364576	-1	104	3
3364904	24	129	10
3365232	34	130	-5
3365560	30	133	-8
3365888	30	147	5
3366216	-5	127	-13
3366544	-9	141	-8
3366872	-28	138	-19
3367200	-44	124	-22
3367528	-77	114	-13
3367856	-115	118	-28
3368184	-130	102	-19
3368512	-137	107	-19
3368840	-109	98	-34
3369168	-84	130	-34
3369496	-80	121	-33
3369824	-72	125	-48
3370152	-68	118	-47
3370480	-73	131	-53
3370808	-71	104	-56
3371136	-51	114	-64
3371464	-67	108	-66
3371792	-77	120	-54
3372120	-74	121	-58
3372448	-46	123	-72
3372776	-30	134	-69
3373104	-36	122	-76
3373432	-29	118	-73
3373760	-24	134	-98
3374088	24	143	-83
3374416	26	132	-95
3374744	20	115	-109
3375072	35	131	-95
3375400	35	101	-92
3375728	18	97	-104
3376056	16	83	-106
3376384	-53	72	-116
3376712	-133	31	-118
3377040	-158	48	-109
3377368	-201	17	-136
3377696	-178	-4	-130
3378024	-87	-13	-123
3378352	12	-37	-137
3378680	95	-28	-136
3379008	197	-7	-153
3379336	255	-69	-199
3379664	310	-107	-186
3379992	335	-159	-175
3380320	334	-214	-183
3380648	319	-226	-244
3380976	243	-249	-265
3381304	165	-252	-322
3381632	32	-263	-398
3381960	-145	-310	-457
3382288	-308	-322	-480
3382616	-383	-289	-498
3382944	-617	-411	-512
3383272	-687	-393	-518
3383600	-692	-408	-502
3383928	-770	-580	-423
3384256	-707	-484	-411
3384584	-596	-300	-544
3384912	-683	-254	-693
3385240	-876	-389	-743
3385568	-851	-82	-905
3385896	-995	80	-1017
3386224	-1245	-90	-1036
3386552	-1205	-10	-1045
3386880	-1177	-8	-1068
3387208	-1118	-6	-1064
3387536	-928	70	-1063
3387864	-437	529	-1164
3388192	-124	581	-1347
3388520	-129	421	-1442
3388848	-124	478	-1528
3389176	-272	526	-1617
3389504	-809	-30	-1547
3389832	-1004	-47	-1423
3390160	-966	208	-1494
3390488	-857	267	-1618
3390816	-713	157	-1608
3391144	-512	316	-1600
3391472	-420	187	-1556
3391800	-383	57	-1613
3392128	-504	-72	-1583
3392456	-539	-27	-1565
3392784	-452	131	-1674
3393112	-571	108	-1761
3393440	-717	-240	-1656
3393768	-1025	-668	-1202
3394096	-1016	-251	-1406
3394424	-827	-29	-1456
3394752	-555	-1	-1533
3395080	-287	88	-1630
3395408	-33	464	-1748
3395736	176	711	-1863
3396064	233	470	-1872
3396392	-14	189	-1777
3396720	-323	177	-1644
3397048	-464	182	-1507
3397376	-541	110	-1471
3397704	-426	142	-1472
3398032	-86	185	-1486
3398360	404	198	-1402
3398688	514	122	-1298
3399016	715	89	-1203
3399344	598	77	-1052
3399672	370	-276	-544
3400000	-150	-585	-258
3400328	-410	-905	199
3400656	-488	-1378	577
3400984	-452	-1181	901
3401312	-412	-619	1250
3401640	97	-85	1550
3401968	798	236	2046
3402296	1383	188	2907
3402624	1504	487	3424
3402952	1657	1401	3528
3403280	2080	2397	3399
3403608	2999	2985	3070
3403936	4053	2720	2987
3404264	4523	2100	3016
3404592	4460	1232	3097
3404920	3772	260	4015
3405248	2877	-610	4778
3405576	2028	-951	4873
3405904	1741	1085	3623
3406232	1597	697	1847
3406560	1760	733	906
3406888	1632	960	98
3407216	893	288	174
3407544	-170	-247	162
3407872	-1132	-310	257
3408200	-1830	-716	598
3408528	-1973	-1224	1023
3408856	-1691	-1438	1617
3409184	-1303	-1490	1825
3409512	-1252	-1570	1937
3409840	-1191	-1481	1798
3410168	-889	-796	1485
3410496	-412	-110	998
3410824	177	335	717
3411152	717	486	512
3411480	3375	-3176	635
3411808	-332	-182	-2631
3412136	-2179	1825	-5423
3412464	-2084	3122	-6012
3412792	-1519	844	-4152
3413120	25	-2189	-483
3413448	-188	-90	296
3413776	-525	1065	-1730
3414104	-1245	1293	-2037
3414432	-1133	-437	-736
3414760	-1714	-1802	4973
3415088	-656	5664	-6420
3415416	-1190	-12025	-5296
3415744	-8212	4428	-1820
3416072	-5593	733	-983
3416400	-1991	1623	-2105
3416728	2434	1147	-216
3417056	5527	1167	675
3417384	6736	1375	871
3417712	6474	1147	952
3418040	4597	656	1705
3418368	1917	413	2160
3418696	-632	-113	2194
3419024	-2149	-502	1866
3419352	-2520	-784	1548
3419680	-2481	-826	1375
3420008	-2405	-687	1440
3420336	-2144	-505	1501
3420664	-1437	-221	1658
3420992	-520	12	1610
3421320	403	269	1338
3421648	1039	357	926
3421976	1399	489	389
3422304	1729	542	236
3422632	1919	534	238
3422960	2024	413	284
3423288	1944	440	330
3423616	1583	514	397
3423944	906	458	476
3424272	163	367	554
3424600	-331	284	562
3424928	-488	282	471
3425256	-331	430	428
3425584	-87	470	371
3425912	100	487	412
3426240	196	467	288
3426568	163	459	395
3426896	110	450	400
3427224	54	489	272
3427552	1	491	250
3427880	-78	439	231
3428208	-115	378	278
3428536	-221	351	273
3428864	-241	318	221
3429192	-120	336	227
3429520	55	293	221
3429848	236	281	211
3430176	383	266	166
3430504	385	238	125
3430832	271	238	129
3431160	130	190	221
3431488	-169	152	193
3431816	-392	70	200
3432144	-609	-22	213
3432472	-819	-33	210
3432800	-895	-27	179
3433128	-848	24	121
3433456	-809	47	55
3433784	-732	85	17
3434112	-693	86	-32
3434440	-547	63	-76
3434768	-460	85	-61
3435096	-323	137	-85
3435424	-245	179	-102
3435752	-118	254	-145
3436080	-45	289	-148
3436408	3	337	-152
3436736	-34	337	-168
3437064	-62	329	-145
3437392	-92	312	-123
3437720	-126	312	-110
3438048	-114	320	-113
3438376	-148	310	-80
3438704	-131	306	-92
3439032	-161	287	-110
3439360	-140	271	-105
3439688	-72	274	-119
3440016	-60	260	-114
3440344	-24	258	-93
3440672	-40	225	-110
3441000	-46	216	-118
3441328	-41	193	-145
3441656	-31	195	-146
3441984	-27	181	-142
3442312	-53	157	-119
3442640	-67	166	-139
3442968	-91	155	-144
3443296	-85	156	-140
3443624	-103	143	-142
3443952	-166	135	-146
3444280	-213	124	-145
3444608	-223	118	-131
3444936	-178	121	-121
3445264	-132	140	-130
3445592	-98	135	-139
3445920	-99	154	-162
3446248	-129	170	-209
3446576	-138	140	-145
3446904	-145	159	-132
3447232	-153	167	-145
3447560	-133	158	-153
3447888	-142	174	-157
3448216	-172	161	-150
3448544	-204	168	-148
3448872	-219	160	-156
3449200	-209	188	-160
3449528	-171	202	-152
3449856	-148	197	-144
3450184	-112	232	-145
3450512	-91	210	-121
3450840	-98	218	-125
3451168	-80	222	-123
3451496	-88	232	-158
3451824	-99	209	-105
3452152	-112	196	-85
3452480	-92	214	-79
3452808	-88	253	-84
3453136	-126	208	-71
3453464	-145	177	-132
3453792	-149	179	-41
3454120	-177	179	-44
3454448	-165	184	-43
3454776	-134	184	-31
3455104	-123	192	-47
3455432	-99	181	-28
3455760	-100	175	-41
3456088	-104	168	-41
3456416	-108	173	-27
3456744	-119	178	-74
3457072	-70	202	-11
3457400	-48	206	-15
3457728	-47	193	-30
3458056	-92	199	-12
3458384	-115	169	-2
3458712	-149	158	-56
3459040	-136	171	-12
3459368	-139	160	-28
3459696	-155	154	-33
3460024	-165	144	-26
3460352	-141	140	-42
3460680	-137	155	-53
3461008	-135	145	-49
3461336	-138	148	-56
3461664	-157	144	-66
3461992	-170	135	-76
3462320	-176	134	-56
3462648	-164	131	-70
3462976	-123	143	-62
3463304	-95	138	-81
3463632	-103	152	-66
3463960	-95	145	-68
3464288	-112	130	-56
3464616	-117	128	-51
3464944	-130	117	-31
3465272	-107	108	-47
3465600	-122	124	-28
3465928	-115	117	-44
3466256	-115	106	-42
3466584	-86	125	-29
3466912	-97	115	-29
3467240	-68	122	-34
3467568	-80	128	-32
3467896	-62	126	-17
3468224	-80	125	-30
3468552	-56	120	-30
3468880	-47	124	-27
3469208	-43	132	-37
3469536	-55	149	-52
3469864	-65	129	-36
3470192	-102	118	-44
3470520	-98	105	-31
3470848	-119	103	-28
3471176	-116	91	-44
3471504	-137	113	-47
3471832	-153	95	-45
3472160	-152	94	-38
3472488	-131	95	-17
3472816	-123	103	-27
3473144	-106	102	-28
3473472	-107	105	-27
3473800	-136	97	-24
3474128	-129	98	-21
3474456	-123	114	-23
3474784	-96	114	-27
3475112	-93	103	-28
3475440	-69	127	-21
3475768	-55	138	-17
3476096	-74	124	-34
3476424	-89	129	-10
3476752	-69	134	-17
3477080	-62	119	-19
3477408	-76	128	-25
3477736	-69	128	-23
3478064	-73	131	-18
3478392	-57	132	-23
3478720	-58	138	-17
3479048	-72	132	-18
3479376	-73	131	-32
3479704	-107	137	-21
3480032	-107	132	-22
3480360	-111	116	-29
3480688	-130	119	-32
3481016	-122	123	-41
3481344	-106	136	-43
3481672	-91	135	-59
3482000	-90	137	-44
3482328	-100	137	-36
3482656	-104	126	-56
3482984	-106	127	-46
3483312	-120	119	-40
3483640	-106	137	-44
3483968	-81	141	-40
3484296	-78	143	-49
3484624	-78	132	-37
3484952	-86	120	-51
3485280	-87	115	-29
3485608	-73	128	-25
3485936	-99	116	-22
3486264	-112	124	-43
3486592	-102	126	-34
3486920	-80	128	-51
3487248	-81	136	-26
3487576	-96	130	-32
3487904	-116	135	-44
3488232	-110	132	-31
3488560	-98	138	-57
3488888	-93	134	-41
3489216	-105	135	-45
3489544	-85	135	-48
3489872	-84	143	-48
3490200	-68	148	-64
3490528	-73	130	-50
3490856	-67	138	-54
3491184	-88	139	-44
3491512	-90	129	-54
3491840	-104	126	-45
3492168	-76	126	-30
3492496	-78	116	-29
3492824	-74	129	-36
3493152	-79	137	-36
3493480	-61	138	-50
3493808	-56	142	-52
3494136	-66	147	-33
3494464	-93	119	-41
3494792	-94	108	-49
3495120	-88	110	-42
3495448	-68	122	-51
3495776	-76	121	-52
3496104	-80	124	-44
3496432	-68	112	-59
3496760	-80	122	-43
3497088	-70	120	-62
3497416	-74	113	-50
3497744	-61	123	-50
3498072	-71	124	-60
3498400	-80	103	-67
3498728	-61	102	-36
3499056	-58	112	-43
3499384	-59	106	-50
3499712	-77	110	-35
3500040	-61	120	-36
3500368	-70	107	-27
3500696	-33	104	-35
3501024	-41	127	-34
3501352	-33	116	-25
3501680	-17	118	-26
3502008	-14	110	-20
3502336	-25	106	-30
3502664	-52	118	-20
3502992	-59	106	-23
3503320	-82	111	-44
3503648	-79	112	-24
3503976	-78	101	-39
3504304	-93	104	-42
3504632	-108	91	-46
3504960	-92	93	-35
3505288	-107	97	-52
3505616	-83	102	-36
3505944	-71	105	-45
3506272	-63	108	-52
3506600	-60	96	-30
3506928	-58	99	-36
3507256	-73	105	-38
3507584	-53	119	-38
3507912	-57	93	-41
3508240	-48	111	-27
3508568	-26	130	-34
3508896	-49	136	-40
3509224	-32	119	-43
3509552	-44	124	-43
3509880	-93	118	-46
3510208	-89	104	-44
3510536	-88	121	-35
3510864	-77	117	-46
3511192	-65	126	-46
3511520	-58	144	-45
3511848	-42	126	-52
3512176	-43	128	-52
3512504	-29	137	-46
3512832	-54	145	-52
3513160	-71	140	-39
3513488	-63	135	-41
3513816	-61	137	-36
3514144	-73	116	-48
3514472	-68	137	-44
3514800	-66	148	-49
3515128	-62	153	-47
3515456	-66	131	-52
3515784	-70	126	-54
3516112	-94	127	-41
3516440	-111	114	-41
3516768	-117	124	-48
3517096	-110	132	-45
3517424	-119	133	-31
3517752	-115	138	-55
3518080	-109	138	-66
3518408	-75	137	-73
3518736	-72	153	-63
3519064	-74	156	-63
3519392	-84	153	-66
3519720	-89	129	-62
3520048	-92	129	-62
3520376	-93	131	-71
3520704	-96	138	-61
3521032	-100	139	-64
3521360	-97	142	-78
3521688	-66	135	-65
3522016	-57	138	-43
3522344	-57	143	-47
3522672	-73	141	-35
3523000	-49	136	-49
3523328	-40	143	-39
3523656	-38	146	-50
3523984	-57	143	-50
3524312	-76	144	-53
3524640	-67	146	-54
3524968	-71	136	-47
3525296	-98	139	-36
3525624	-107	136	-48
3525952	-100	137	-56
3526280	-128	140	-51
3526608	-116	116	-48
3526936	-121	127	-49
3527264	-96	128	-39
3527592	-101	131	-51
3527920	-97	123	-45
3528248	-96	149	-45
3528576	-96	134	-41
3528904	-119	122	-48
3529232	-99	135	-36
3529560	-88	128	-53
3529888	-72	139	-51
3530216	-75	147	-49
3530544	-77	139	-55
3530872	-72	136	-50
3531200	-76	143	-37
3531528	-92	132	-38
3531856	-106	141	-48
3532184	-80	135	-46
3532512	-67	144	-35
3532840	-58	139	-34
3533168	-53	152	-38
3533496	-62	148	-37
3533824	-49	152	-40
3534152	-53	146	-41
3534480	-56	142	-28
3534808	-56	134	-33
3535136	-59	141	-32
3535464	-50	156	-25
3535792	-73	149	-44
3536120	-87	123	-26
3536448	-89	134	-34
3536776	-91	126	-40
3537104	-78	133	-28
3537432	-85	132	-37
3537760	-75	143	-38
3538088	-91	143	-45
3538416	-76	126	-46
3538744	-93	135	-41
3539072	-86	139	-38
3539400	-89	140	-39
3539728	-77	130	-44
3540056	-100	136	-33
3540384	-55	128	-51
3540712	-57	140	-39
3541040	-58	139	-50
3541368	-63	136	-39
3541696	-72	134	-35
3542024	-65	133	-39
3542352	-66	141	-35
3542680	-62	138	-39
3543008	-53	143	-38
3543336	-57	150	-34
3543664	-37	147	-42
3543992	-54	146	-46
3544320	-62	139	-32
3544648	-69	160	-37
3544976	-71	138	-39
3545304	-67	133	-32
3545632	-71	135	-37
3545960	-78	153	-28
3546288	-52	142	-47
3546616	-71	143	-38
3546944	-58	142	-25
3547272	-82	133	-40
3547600	-83	136	-43
3547928	-84	124	-23
3548256	-77	132	-19
3548584	-90	131	-21
3548912	-95	138	-15
3549240	-63	137	-13
3549568	-72	119	-44
3549896	-55	130	-18
3550224	-54	115	-12
3550552	-77	117	-4
3550880	-72	120	-9
3551208	-74	119	-15
3551536	-57	126	-13
3551864	-64	125	-14
3552192	-67	118	-28
3552520	-90	128	-3
3552848	-81	125	-12
3553176	-73	119	-14
3553504	-54	124	-24
3553832	-55	119	-12
3554160	-61	113	-11
3554488	-49	114	-2
3554816	-54	102	-7
3555144	-55	114	10
3555472	-54	116	5
3555800	-37	110	3
3556128	-37	116	11
3556456	-45	99	18
3556784	-39	117	9
3557112	-49	123	6
3557440	-6	124	0
3557768	-23	139	-11
3558096	-16	143	-15
3558424	-42	133	-18
3558752	-42	123	-30
3559080	-64	143	-36
3559408	-95	134	-28
3559736	-101	129	-46
3560064	-104	127	-43
3560392	-94	143	-45
3560720	-104	136	-69
3561048	-83	129	-54
3561376	-88	147	-74
3561704	-112	130	-68
3562032	-106	132	-64
3562360	-100	137	-67
3562688	-108	133	-74
3563016	-112	130	-79
3563344	-108	141	-70
3563672	-109	136	-76
3564000	-97	137	-70
3564328	-106	134	-68
3564656	-120	144	-71
3564984	-126	150	-65
3565312	-101	147	-66
3565640	-122	144	-74
3565968	-141	140	-83
3566296	-142	143	-78
3566624	-129	141	-68
3566952	-127	136	-69
3567280	-140	129	-73
3567608	-138	141	-77
3567936	-151	128	-76
3568264	-162	137	-65
3568592	-145	132	-58
3568920	-143	135	-69
3569248	-128	132	-65
3569576	-116	132	-58
3569904	-103	137	-51
3570232	-79	131	-31
3570560	-81	144	-28
3570888	-96	139	-34
3571216	-75	116	-26
3571544	-80	134	-20
3571872	-79	122	-5
3572200	-75	143	-6
3572528	-76	130	-8
3572856	-101	123	-2
3573184	-76	130	-4
3573512	-84	127	11
3573840	-88	130	1
3574168	-78	122	14
3574496	-76	138	6
3574824	-82	122	-4
3575152	-97	129	7
3575480	-92	132	11
3575808	-76	137	-4
3576136	-78	143	-8
3576464	-77	132	8
3576792	-92	134	-4
3577120	-90	126	4
3577448	-95	131	-4
3577776	-108	141	5
3578104	-100	122	6
3578432	-105	130	0
3578760	-95	131	9
3579088	-107	121	12
3579416	-102	132	13
3579744	-89	114	15
3580072	-67	132	11
3580400	-52	128	11
3580728	-59	134	22
3581056	-33	136	5
3581384	-47	130	-13
3581712	-29	136	-4
3582040	-29	147	3
3582368	-16	128	14
3582696	-18	137	5
3583024	-40	143	5
3583352	-37	118	0
3583680	-43	128	11
3584008	-52	116	32
3584336	-53	127	31
3584664	-60	121	23
3584992	-58	115	19
3585320	-71	124	22
3585648	-57	120	20
3585976	-31	124	22
3586304	-55	133	20
3586632	-54	111	38
3586960	-61	97	32
3587288	-74	121	14
3587616	-66	115	16
3587944	-54	97	24
3588272	-72	113	30
3588600	-82	108	26
3588928	-91	112	32
3589256	-108	103	16
3589584	-122	122	26
3589912	-106	126	3
3590240	-85	125	6
3590568	-109	116	8
3590896	-129	114	11
3591224	-122	107	8
3591552	-126	123	10
3591880	-118	122	7
3592208	-86	124	-2
3592536	-89	132	-4
3592864	-57	136	-12
3593192	-69	152	5
3593520	-80	149	5
3593848	-109	139	3
3594176	-112	151	-2
3594504	-108	163	-12
3594832	-100	166	-10
3595160	-96	157	-6
3595488	-106	166	-4
3595816	-105	173	-3
3596144	-86	179	-15
3596472	-70	170	-19
3596800	-80	181	-17
3597128	-74	195	-11
3597456	-97	185	-18
3597784	-92	184	-22
3598112	-70	175	-3
3598440	-54	189	-5
3598768	-36	152	-35
3599096	-58	154	-48
3599424	-47	136	-51
3599752	-47	148	-58
3600080	-13	132	-71
3600408	-5	133	-90
3600736	8	138	-95
3601064	-33	130	-95
3601392	-107	121	-116
3601720	-158	129	-90
3602048	-204	130	-86
3602376	-238	150	-84
3602704	-316	142	-38
3603032	-382	147	8
3603360	-457	181	-12
3603688	-550	187	1
3604016	-698	127	41
3604344	-805	131	43
3604672	-946	110	54
3605000	-1026	113	40
3605328	-1055	230	50
3605656	-993	407	59
3605984	-1057	411	91
3606312	-1159	412	126
3606640	-1259	390	127
3606968	-1276	409	126
3607296	-1124	575	134
3607624	-952	625	117
3607952	-785	763	115
3608280	-712	773	161
3608608	-795	668	179
3608936	-690	716	190
3609264	-666	607	168
3609592	-682	504	147
3609920	-749	450	112
3610248	-835	370	104
3610576	-924	317	89
3610904	-1098	191	75
3611232	-1297	111	64
3611560	-1567	56	24
3611888	-1804	-68	-18
3612216	-1852	-125	-58
3612544	-1883	-206	-129
3612872	-1864	-219	-204
3613200	-1866	-255	-299
3613528	-1883	-322	-275
3613856	-1841	-377	-317
3614184	-1751	-382	-382
3614512	-1656	-427	-397
3614840	-1439	-407	-425
3615168	-1248	-384	-486
3615496	-1091	-372	-557
3615824	-968	-363	-591
3616152	-896	-391	-630
3616480	-807	-419	-654
3616808	-709	-395	-674
3617136	-677	-435	-752
3617464	-631	-496	-802
3617792	-563	-483	-864
3618120	-479	-471	-959
3618448	-379	-458	-1066
3618776	-293	-388	-1144
3619104	-250	-404	-1197
3619432	-184	-398	-1249
3619760	-222	-420	-1326
3620088	-276	-461	-1357
3620416	-245	-479	-1426
3620744	-128	-490	-1490
3621072	3	-426	-1592
3621400	196	-382	-1670
3621728	377	-304	-1728
3622056	569	-261	-1868
3622384	1090	-13	-2127
3622712	1334	90	-2262
3623040	1468	135	-2378
3623368	1605	232	-2476
3623696	1648	277	-2638
3624024	1640	316	-2806
3624352	1618	319	-3041
3624680	1553	313	-3268
3625008	1450	232	-3388
3625336	1326	195	-3521
3625664	1181	62	-3660
3625992	1044	-60	-3747
3626320	947	-248	-3835
3626648	947	-386	-3778
3626976	933	-475	-3672
3627304	820	-692	-3616
3627632	684	-1031	-3550
3627960	406	-1269	-3481
3628288	406	-1388	-3531
3628616	356	-1469	-3585
3628944	314	-1612	-3663
3629272	255	-1650	-3758
3629600	-19	-1797	-3923
3629928	-428	-1957	-4078
3630256	-641	-1986	-4136
3630584	-577	-1755	-4450
3630912	-557	-1603	-4480
3631240	-471	-1474	-4495
3631568	-510	-1624	-4672
3631896	-476	-1640	-4780
3632224	-285	-1743	-4832
3632552	51	-1750	-4894
3632880	591	-1722	-4688
3633208	1390	-2267	-4364
3633536	2347	-2790	-3946
3633864	3002	-3545	-3430
3634192	3305	-5062	-3080
3634520	2690	-5901	-2739
3634848	832	-6221	-2517
3635176	-1039	-6866	-3050
3635504	-2619	-6290	-3307
3635832	-4388	-5227	-3135
3636160	-6191	-4042	-3324
3636488	-6526	-3916	-3261
3636816	-5788	-3507	-2376
3637144	-5585	-3215	-1369
3637472	-5886	-2948	-365
3637800	-6229	-2544	440
3638128	-6198	-2236	1043
3638456	-5848	-2013	1466
3638784	-5145	-1830	1985
3639112	-4419	-1682	2562
3639440	-3780	-1554	3255
3639768	-3447	-1436	4070
3640096	-3352	-1244	4635
3640424	-3514	-984	5303
3640752	-3561	-709	5966
3641080	-3638	-424	6686
3641408	-3396	-99	7322
3641736	-3246	158	8057
3642064	-3214	317	8824
3642392	-3308	400	9483
3642720	-3251	536	10169
3643048	-3104	667	10785
3643376	-2839	770	11238
3643704	-2568	976	11649
3644032	-2177	1163	11927
3644360	-1879	1287	12168
3644688	-1771	1316	12442
3645016	-1663	1323	12697
3645344	-1600	1207	12913
3645672	-1298	871	13044
3646000	-1168	439	13045
3646328	-1188	-27	13285
3646656	-1370	-504	13417
3646984	-1596	-1187	13511
3647312	-1838	-1771	13647
3647640	-2140	-2398	13507
3647968	-2418	-3121	13057
3648296	-2828	-3605	13421
3648624	-3321	-3989	13142
3648952	-3468	-4303	12412
3649280	-3161	-4347	11630
3649608	-2687	-4253	10427
3649936	-2236	-4009	9202
3650264	-2068	-3646	7888
3650592	-1780	-2617	6433
3650920	-1131	-1653	5074
3651248	-413	-774	3774
3651576	231	123	2580
3651904	1030	940	1530
3652232	1167	1548	448
3652560	770	1887	-592
3652888	-168	2014	-1632
3653216	-1318	1995	-2657
3653544	-2597	1767	-3563
3653872	-3800	1275	-4344
3654200	-2958	1957	-3743
3654528	-4996	-2717	-1519
3654856	-6173	-3054	-309
3655184	-8077	-2349	-1259
3655512	-9419	-604	-3211
3655840	-7644	315	-4640
3656168	-5927	612	-4293
3656496	-5353	644	-4574
3656824	-5560	819	-4869
3657152	-5719	512	-4828
3657480	-5082	403	-4432
3657808	-3690	1027	-3743
3658136	-2783	1602	-3767
3658464	-1951	1835	-4134
3658792	-1596	1473	-4047
3659120	-1802	1271	-3777
3659448	-1962	1413	-3807
3659776	-1645	1416	-3918
3660104	-1073	1448	-3942
3660432	-253	1559	-3806
3660760	288	1586	-3626
3661088	420	1421	-3393
3661416	291	1357	-3074
3661744	100	1304	-2895
3662072	237	1251	-2702
3662400	563	1235	-2637
3662728	787	1193	-2557
3663056	1092	1103	-2412
3663384	1229	1100	-2330
3663712	1342	1076	-2246
3664040	1244	1032	-2309
3664368	1032	979	-2294
3664696	962	974	-2260
3665024	998	918	-2282
3665352	1091	865	-2315
3665680	1304	831	-2342
3666008	1274	784	-2382
3666336	1224	700	-2493
3666664	1050	611	-2638
3666992	895	529	-2692
3667320	863	508	-2763
3667648	821	509	-2810
3667976	840	591	-2880
3668304	956	609	-2879
3668632	1086	737	-3034
3668960	1200	795	-3108
3669288	1164	827	-3259
3669616	947	826	-3420
3669944	642	844	-3544
3670272	296	778	-3657
3670600	37	754	-3720
3670928	-119	704	-3789
3671256	-215	655	-3897
3671584	-207	627	-4032
3671912	-89	720	-4185
3672240	228	1066	-4413
3672568	563	1295	-4601
3672896	794	1260	-4753
3673224	1025	1315	-4958
3673552	1005	1231	-5162
3673880	591	1041	-5348
3674208	28	807	-5636
3674536	-638	227	-5991
3674864	-1249	38	-6217
3675192	-1201	712	-6513
3675520	-641	1435	-7398
3675848	169	1840	-7781
3676176	894	1791	-7918
3676504	1576	1634	-8151
3676832	1779	1098	-8448
3677160	1712	225	-8268
3677488	1157	-1251	-7515
3677816	-629	-3111	-6170
3678144	-3206	-6453	-4930
3678472	-5154	-9497	-3788
3678800	-6736	-10729	-2546
3679128	-5938	-6196	-2664
3679456	-2309	-675	-2020
3679784	684	12	-925
3680112	984	-2922	1203
3680440	1118	-3787	2837
3680768	845	-3322	4027
3681096	222	-3172	5020
3681424	-353	-3675	6171
3681752	-1272	-3960	7505
3682080	-1575	-4213	8632
3682408	-2020	-4468	9743
3682736	-2109	-4500	10617
3683064	-1981	-4398	11347
3683392	-2047	-4235	11975
3683720	-2282	-4052	12568
3684048	-2746	-3981	12985
3684376	-3277	-3881	13283
3684704	-3656	-3581	13614
3685032	-4322	-3491	13695
3685360	-4585	-3683	13708
3685688	-4410	-3702	13606
3686016	-3825	-3257	13402
3686344	-3673	-2815	13635
3686672	-4153	-4143	13834
3687000	-4563	-3980	13831
3687328	-4985	-4798	13280
3687656	-3876	-4388	13090
3687984	-3266	-3913	12014
3688312	-3190	-2857	10169
3688640	-3173	-1451	7996
3688968	-2732	-127	5905
3689296	-2354	428	3929
3689624	-2099	636	2835
3689952	-2239	836	1484
3690280	-2766	841	-14
3690608	-3857	694	-1312
3690936	-5713	132	-2672
3691264	-7866	-868	-4024
3691592	-8384	-1073	-4373
3691920	-7558	-1334	-3995
3692248	-5974	-1995	-1378
3692576	-6301	-5060	76
3692904	-5523	-1108	-1110
3693232	-6674	1763	-2833
3693560	-5617	2997	-4362
3693888	-4571	927	-3784
3694216	-3981	964	-3666
3694544	-3862	1098	-3766
3694872	-3767	737	-3650
3695200	-3268	682	-3175
3695528	-1639	755	-2731
3695856	-52	1410	-2474
3696184	701	1715	-2556
3696512	710	1650	-2951
3696840	255	1187	-2874
3697168	-220	824	-2933
3697496	-584	843	-2941
3697824	-481	875	-2917
3698152	278	1077	-2867
3698480	1076	1311	-2858
3698808	1430	1341	-2843
3699136	1087	1104	-2836
3699464	339	857	-2852
3699792	-375	629	-2783
3700120	-867	385	-2646
3700448	-1089	208	-2625
3700776	-1196	117	-2778
3701104	-1301	43	-2943
3701432	-1372	-45	-3036
3701760	-1342	-59	-3132
3702088	-1105	11	-3285
3702416	-967	61	-3376
3702744	-728	97	-3495
3703072	-580	124	-3576
3703400	-533	32	-3605
3703728	-544	-38	-3601
3704056	-692	-125	-3619
3704384	-846	-213	-3637
3704712	-816	-183	-3625
3705040	-669	-83	-3718
3705368	-490	-62	-3835
3705696	-289	-51	-3926
3706024	-363	-153	-3986
3706352	-694	-307	-4028
3706680	-958	-431	-4075
3707008	-989	-479	-4193
3707336	-770	-459	-4260
3707664	-494	-514	-4295
3707992	-367	-531	-4260
3708320	-404	-589	-4396
3708648	-400	-631	-4561
3708976	-367	-804	-4668
3709304	-456	-1067	-4620
3709632	-468	-1164	-4698
3709960	-368	-1297	-4751
3710288	-291	-1556	-4788
3710616	-286	-1778	-4884
3710944	-903	-2290	-5053
3711272	-1497	-2481	-5099
3711600	-1722	-2110	-5407
3711928	-1611	-1631	-5785
3712256	-1377	-1313	-5890
3712584	-963	-978	-6153
3712912	-468	-720	-6502
3713240	-326	-769	-6782
3713568	224	-820	-6732
3713896	778	-782	-6705
3714224	1564	-968	-6371
3714552	1558	-2928	-5991
3714880	764	-4472	-5301
3715208	-1084	-5623	-5364
3715536	-2938	-5589	-5614
3715864	-5221	-4174	-6046
3716192	-6840	-3709	-6105
3716520	-7406	-3304	-6078
3716848	-7243	-2808	-5474
3717176	-6413	-2290	-4814
3717504	-5447	-2002	-4233
3717832	-4715	-1713	-3313
3718160	-4405	-1789	-2961
3718488	-3754	-2279	-2317
3718816	-3228	-2800	-1316
3719144	-2831	-3249	-96
3719472	-2667	-3558	862
3719800	-2800	-3490	1995
3720128	-2874	-3220	3295
3720456	-3343	-2886	4045
3720784	-3639	-2567	4793
3721112	-4118	-2094	5524
3721440	-4214	-1867	6167
3721768	-3581	-1886	7066
3722096	-3280	-2124	8037
3722424	-2792	-2065	8788
3722752	-2468	-1907	9487
3723080	-1789	-1933	10373
3723408	-1239	-1789	11113
3723736	-826	-1759	11597
3724064	-485	-1515	12017
3724392	-332	-1183	12222
3724720	-269	-954	12541
3725048	-35	-752	12797
3725376	128	-432	12953
3725704	-17	-13	13090
3726032	-101	170	13108
3726360	13	151	13106
3726688	42	-32	12965
3727016	247	-276	13427
3727344	563	-757	13403
3727672	625	-1376	13464
3728000	488	-2198	13429
3728328	96	-3178	13484
3728656	-141	-4242	13320
3728984	-336	-4914	12938
3729312	-401	-5589	12544
3729640	-673	-6136	12604
3729968	-1669	-6217	12073
3730296	-2351	-6029	11572
3730624	-2247	-5281	10853
3730952	-2010	-4486	9983
3731280	-1515	-3629	8592
3731608	-511	-2499	7268
3731936	225	-1538	5540
3732264	271	-729	3598
3732592	47	-6	1902
3732920	-576	683	238
3733248	-1457	1065	-1347
3733576	-2302	1362	-2681
3733904	-3163	1782	-3956
3734232	1253	6560	-4309
3734560	-736	-1812	-655
3734888	-311	-1271	703
3735216	-3662	-1621	-684
3735544	-4943	813	-2705
3735872	-793	5028	-3195
3736200	-1974	2443	-2468
3736528	-3439	2957	-2998
3736856	-4373	2536	-3730
3737184	-4807	2038	-3899
3737512	-2717	1365	-3281
3737840	-423	1932	-2872
3738168	-36	1951	-2999
3738496	152	1732	-3289
3738824	25	1206	-2848
3739152	-113	1342	-2473
3739480	45	1307	-2459
3739808	731	1446	-2447
3740136	1034	1429	-2347
3740464	886	1057	-2088
3740792	408	923	-1952
3741120	-108	805	-1882
3741448	-317	754	-1814
3741776	-189	746	-1805
3742104	-93	642	-1708
3742432	-126	546	-1759
3742760	-263	519	-1779
3743088	-366	496	-1785
3743416	-530	493	-1762
3743744	-696	413	-1715
3744072	-799	361	-1699
3744400	-919	282	-1739
3744728	-1054	216	-1701
3745056	-1213	191	-1651
3745384	-1319	156	-1605
3745712	-1391	139	-1560
3746040	-1392	179	-1532
3746368	-1359	184	-1514
3746696	-1315	206	-1496
3747024	-1368	88	-1409
3747352	-1524	-37	-1269
3747680	-1514	20	-1185
3748008	-1335	58	-1186
3748336	-915	128	-1168
3748664	-521	215	-1191
3748992	-171	307	-1251
3749320	121	410	-1302
3749648	347	429	-1322
3749976	484	468	-1386
3750304	508	504	-1401
3750632	337	552	-1452
3750960	111	571	-1575
3751288	-61	572	-1674
3751616	-144	550	-1774
3751944	-217	408	-1892
3752272	-476	15	-2127
3752600	-1217	-158	-2383
3752928	-1763	164	-2549
3753256	-1826	617	-2821
3753584	-1554	795	-2974
3753912	-1355	641	-2951
3754240	-1606	488	-2745
3754568	-2027	368	-2561
3754896	-2472	253	-2445
3755224	-2805	95	-2559
3755552	-2790	-235	-2674
3755880	-2670	-709	-2632
3756208	-2738	-1257	-2516
3756536	-3196	-2126	-2203
3756864	-4180	-3106	-1945
3757192	-5643	-4215	-1337
3757520	-7210	-5166	-388
3757848	-8954	-6161	607
3758176	-10840	-7134	1259
3758504	-12579	-7813	1578
3758832	-13464	-8044	2000
3759160	-13493	-8145	2289
3759488	-12971	-8319	2191
3759816	-12419	-8241	2042
3760144	-12426	-7981	1984
3760472	-12645	-7711	1934
3760800	-12577	-7214	1807
3761128	-12137	-6299	1580
3761456	-11263	-5598	1329
3761784	-9897	-4926	1138
3762112	-8230	-3506	1038
3762440	-6594	-2529	839
3762768	-4630	-947	627
3763096	-1840	-10	661
3763424	647	890	957
3763752	1977	2203	767
3764080	2736	3216	233
3764408	3741	3443	243
3764736	4788	3257	983
3765064	4856	2656	1493
3765392	4111	1753	1729
3765720	2478	775	1930
3766048	605	329	1962
3766376	-885	303	1738
3766704	-1149	340	1406
3767032	-994	408	929
3767360	-1004	152	380
3767688	-1103	46	194
3768016	-1354	111	304
3768344	-1661	207	408
3768672	-1495	294	599
3769000	-1032	460	594
3769328	-402	580	491
3769656	117	697	441
3769984	271	676	436
3770312	88	557	481
3770640	-158	418	569
3770968	-516	218	587
3771296	-854	123	347
3771624	-832	104	563
3771952	-776	142	380
3772280	-710	227	238
3772608	-595	386	191
3772936	-534	446	98
3773264	-461	462	91
3773592	-379	455	109
3773920	-327	446	166
3774248	-317	442	169
3774576	-239	473	146
3774904	-113	477	148
3775232	-109	390	116
3775560	-159	395	77
3775888	-362	351	1
3776216	-564	301	-26
3776544	-741	256	6
3776872	-847	225	-23
3777200	-945	212	-97
3777528	-1092	168	-142
3777856	-1299	159	-201
3778184	-1382	140	-85
3778512	-1463	151	-324
3778840	-1665	43	-302
3779168	-1734	-24	-97
3779496	-1754	-84	-29
3779824	-1719	-51	-30
3780152	-1608	35	-42
3780480	-1438	109	-86
3780808	-1331	141	-125
3781136	-1361	-27	-154
3781464	-1524	-127	-114
3781792	-1735	-210	-154
3782120	-1879	-273	-228
3782448	-1884	-248	-253
3782776	-1812	-169	-310
3783104	-1785	-262	-255
3783432	-1678	-325	-220
3783760	-1637	-343	-260
3784088	-1572	-418	-264
3784416	-1489	-401	-275
3784744	-1408	-362	-359
3785072	-1229	-288	-521
3785400	-955	-213	-716
3785728	-660	-75	-979
3786056	-345	38	-1281
3786384	-158	23	-1573
3786712	-277	-195	-1690
3787040	-598	-499	-1701
3787368	-1033	-872	-1651
3787696	-1833	-1489	-1325
3788024	-2970	-2184	-891
3788352	-4080	-3042	-782
3788680	-5154	-4047	-372
3789008	-6368	-5380	274
3789336	-7454	-6219	697
3789664	-8387	-6595	812
3789992	-9512	-7377	1149
3790320	-9441	-7561	945
3790648	-9197	-7808	1455
3790976	-9468	-9007	2587
3791304	-9836	-9658	3803
3791632	-9807	-9135	4472
3791960	-9083	-8209	4690
3792288	-7672	-7236	4339
3792616	-6072	-6435	4086
3792944	-5054	-6317	4245
3793272	-4745	-5987	4511
3793600	-5030	-5643	4694
3793928	-5187	-5064	4426
3794256	-4349	-3807	4156
3794584	-2903	-2462	3511
3794912	-620	-849	2709
3795240	1057	1056	1528
3795568	2326	2876	-236
3795896	4087	4883	-1217
3796224	4520	2570	-908
3796552	4655	1025	-116
3796880	3529	374	633
3797208	1064	408	473
3797536	-1319	521	342
3797864	-2113	225	106
3798192	-2605	-462	227
3798520	-2939	-626	186
3798848	-2932	-631	46
3799176	-2610	-599	65
3799504	-2167	-276	-143
3799832	-1764	379	-277
3800160	-1029	1091	-306
3800488	-362	1052	-168
3800816	266	1169	-184
3801144	627	1149	-312
3801472	780	958	-373
3801800	652	726	-386
3802128	372	667	-383
3802456	150	615	-444
3802784	-25	552	-474
3803112	-142	412	-405
3803440	-253	233	-337
3803768	-368	79	-311
3804096	-544	9	-364
3804424	-602	2	-456
3804752	-491	-26	-455
3805080	-259	55	-460
3805408	-118	131	-505
3805736	99	567	-541
3806064	271	756	-583
3806392	139	625	-574
3806720	-11	567	-563
3807048	-135	465	-555
3807376	-137	373	-544
3807704	-41	346	-522
3808032	89	444	-531
3808360	162	451	-551
3808688	196	423	-530
3809016	217	337	-478
3809344	252	315	-433
3809672	325	277	-383
3810000	420	331	-309
3810328	472	305	-284
3810656	495	284	-222
3810984	491	279	-217
3811312	483	282	-190
3811640	474	279	-192
3811968	479	307	-206
3812296	456	371	-204
3812624	428	345	-179
3812952	405	303	-153
3813280	352	260	-143
3813608	310	269	-137
3813936	316	309	-143
3814264	322	351	-156
3814592	256	312	-128
3814920	131	247	-118
3815248	29	193	-72
3815576	-17	160	-42
3815904	8	150	-32
3816232	70	189	-102
3816560	135	211	-138
3816888	163	181	-159
3817216	151	149	-157
3817544	157	132	-155
3817872	194	124	-160
3818200	232	135	-170
3818528	338	117	-176
3818856	333	111	-193
3819184	315	93	-205
3819512	289	204	-217
3819840	265	207	-202
3820168	209	186	-165
3820496	190	181	-163
3820824	173	172	-169
3821152	221	178	-151
3821480	198	190	-136
3821808	182	187	-130
3822136	146	187	-125
3822464	115	181	-126
3822792	139	164	-127
3823120	193	185	-130
3823448	223	212	-149
3823776	224	220	-163
3824104	171	218	-145
3824432	67	179	-141
3824760	-13	140	-132
3825088	-96	121	-145
3825416	-107	141	-149
3825744	-99	179	-163
3826072	-60	206	-179
3826400	-14	205	-177
3826728	-57	150	-175
3827056	-81	173	-158
3827384	-102	159	-150
3827712	-97	168	-171
3828040	-98	154	-173
3828368	-95	144	-179
3828696	-88	161	-186
3829024	-89	164	-191
3829352	-108	161	-183
3829680	-149	152	-179
3830008	-187	140	-168
3830336	-180	137	-157
3830664	-168	133	-168
3830992	-116	131	-168
3831320	-44	163	-169
3831648	24	180	-188
3831976	31	200	-193
3832304	-17	198	-187
3832632	-111	169	-176
3832960	-189	137	-164
3833288	-237	110	-147
3833616	-252	101	-129
3833944	-259	116	-137
3834272	-221	135	-143
3834600	-195	147	-153
3834928	-201	128	-138
3835256	-248	111	-142
3835584	-241	112	-128
3835912	-208	127	-120
3836240	-137	146	-121
3836568	-131	161	-116
3836896	-135	158	-120
3837224	-187	131	-106
3837552	-207	131	-83
3837880	-222	123	-63
3838208	-224	114	-65
3838536	-191	101	-61
3838864	-189	100	-48
3839192	-208	102	-43
3839520	-215	90	-35
3839848	-192	98	-27
3840176	-170	93	-22
3840504	-141	95	-28
3840832	-134	89	-50
3841160	-131	75	-58
3841488	-110	62	-71
3841816	-110	62	-75
3842144	-112	116	-98
3842472	-165	107	-93
3842800	-244	92	-87
3843128	-310	84	-71
3843456	-310	74	-76
3843784	-222	97	-72
3844112	-160	85	-77
3844440	-129	111	-70
3844768	-125	119	-68
3845096	-106	130	-78
3845424	-80	127	-92
3845752	-81	141	-93
3846080	-60	143	-79
3846408	-63	146	-93
3846736	-49	160	-90
3847064	-59	145	-93
3847392	-51	128	-90
3847720	-68	129	-106
3848048	-74	140	-106
3848376	-88	137	-97
3848704	-129	133	-94
3849032	-147	138	-92
3849360	-128	132	-87
3849688	-121	152	-106
3850016	-111	152	-78
3850344	-53	146	-76
3850672	7	119	-42
3851000	-26	110	-52
3851328	-36	99	-62
3851656	-66	104	-67
3851984	-59	94	-63
3852312	-80	101	-46
3852640	-91	98	-48
3852968	-82	113	-44
3853296	-40	126	-59
3853624	-16	122	-60
3853952	-7	143	-65
3854280	-25	148	-65
3854608	-17	146	-63
3854936	-33	129	-63
3855264	-48	135	-68
3855592	-73	142	-75
3855920	-77	147	-76
3856248	-83	133	-61
3856576	-59	115	-52
3856904	-63	129	-58
3857232	-62	120	-68
3857560	-45	129	-47
3857888	-46	131	-51
3858216	-40	134	-74
3858544	-57	133	-68
3858872	-62	141	-66
3859200	-64	130	-74
3859528	-69	111	-62
3859856	-82	132	-61
3860184	-84	138	-65
3860512	-84	135	-73
3860840	-90	129	-58
3861168	-58	134	-73
3861496	-40	147	-69
3861824	-22	157	-78
3862152	-22	147	-61
3862480	-24	145	-62
3862808	-55	156	-63
3863136	-48	144	-64
3863464	-42	145	-58
3863792	-50	144	-64
3864120	-55	141	-70
3864448	-69	137	-65
3864776	-75	137	-71
3865104	-71	127	-56
3865432	-58	128	-73
3865760	-39	141	-66
3866088	-25	146	-65
3866416	-35	150	-75
3866744	-47	142	-75
3867072	-63	142	-83
3867400	-79	120	-77
3867728	-94	136	-67
3868056	-78	125	-63
3868384	-55	131	-61
3868712	-49	131	-52
3869040	-34	124	-61
3869368	-32	122	-66
3869696	-20	148	-57
3870024	-50	135	-64
3870352	-68	136	-44
3870680	-108	115	-37
3871008	-128	123	-39
3871336	-121	105	-31
3871664	-135	92	-31
3871992	-130	106	-49
3872320	-77	108	-67
3872648	-60	99	-64
3872976	-44	115	-64
3873304	-23	128	-78
3873632	-36	142	-77
3873960	-73	127	-82
3874288	-120	103	-81
3874616	-166	93	-100
3874944	-161	97	-112
3875272	-142	104	-98
3875600	-157	77	-98
3875928	-145	100	-113
3876256	-115	134	-106
3876584	-92	135	-118
3876912	-78	141	-133
3877240	-108	115	-125
3877568	-132	122	-118
3877896	-154	119	-122
3878224	-160	133	-133
3878552	-117	131	-128
3878880	-98	149	-126
3879208	-97	117	-120
3879536	-77	139	-132
3879864	-41	87	-106
3880192	-76	90	-126
3880520	-94	91	-117
3880848	-106	116	-119
3881176	-135	107	-105
3881504	-148	121	-119
3881832	-98	120	-116
3882160	-87	93	-121
3882488	-92	75	-116
3882816	-112	94	-108
3883144	-98	105	-97
3883472	-56	102	-91
3883800	7	112	-73
3884128	-47	100	-53
3884456	-49	104	-34
3884784	-34	104	-38
3885112	-15	111	-47
3885440	-6	124	-31
3885768	-6	137	-40
3886096	-17	140	-32
3886424	-52	127	-42
3886752	-54	131	-56
3887080	-35	139	-80
3887408	-15	166	-110
3887736	-27	171	-141
3888064	-71	148	-156
3888392	-73	169	-187
3888720	-80	146	-194
3889048	-82	136	-229
3889376	-90	139	-255
3889704	-123	138	-278
3890032	-149	123	-314
3890360	-170	109	-334
3890688	-180	80	-345
3891016	-199	41	-360
3891344	-225	-6	-354
3891672	-316	-41	-361
3892000	-404	-47	-422
3892328	-494	-61	-460
3892656	-529	-59	-494
3892984	-476	54	-570
3893312	-421	83	-626
3893640	-566	-19	-624
3893968	-710	-46	-638
3894296	-800	-38	-676
3894624	-845	-39	-723
3894952	-761	-38	-750
3895280	-653	68	-814
3895608	-698	94	-885
3895936	-763	72	-904
3896264	-765	151	-968
3896592	-939	1	-1013
3896920	-885	36	-1056
3897248	-807	212	-1226
3897576	-841	379	-1451
3897904	-849	281	-1667
3898232	-713	450	-1764
3898560	-776	293	-1859
3898888	-708	277	-1905
3899216	-655	471	-1859
3899544	-716	527	-1794
3899872	-875	395	-1926
3900200	-928	228	-1933
3900528	-745	110	-1864
3900856	-529	242	-1832
3901184	-430	110	-1855
3901512	-318	-155	-1862
3901840	-138	-216	-1749
3902168	-103	-59	-1757
3902496	-97	-411	-1658
3902824	-375	-570	-1659
3903152	-778	-410	-1464
3903480	-725	-180	-1360
3903808	-533	-83	-1366
3904136	-448	-317	-1334
3904464	-369	-190	-1229
3904792	-226	-259	-946
3905120	-215	-324	-1141
3905448	-138	-208	-1183
3905776	-153	-151	-1161
3906104	-196	-218	-1217
3906432	-211	-32	-1156
3906760	-102	53	-1210
3907088	-57	77	-1274
3907416	-102	84	-1320
3907744	-215	76	-1229
3908072	-350	-3	-1225
3908400	-423	85	-1226
3908728	-340	188	-1259
3909056	-184	169	-1258
3909384	-155	115	-1285
3909712	-150	50	-1229
3910040	-296	-5	-1146
3910368	-475	-46	-1097
3910696	-538	-8	-1123
3911024	-456	112	-1117
3911352	-286	161	-1149
3911680	-181	253	-1260
3912008	-48	356	-1346
3912336	68	418	-1353
3912664	49	310	-1339
3912992	-82	248	-1246
3913320	-232	249	-1151
3913648	-314	272	-1099
3913976	-114	396	-1017
3914304	215	555	-954
3914632	854	448	-963
3914960	849	419	-722
3915288	863	287	-620
3915616	920	141	-515
3915944	633	-77	-102
3916272	-242	-518	345
3916600	-866	-802	787
3916928	-724	-1081	1191
3917256	-310	-1520	1699
3917584	-113	-1763	1979
3917912	-125	-1242	2309
3918240	27	-695	2884
3918568	709	-224	3714
3918896	1517	274	4504
3919224	2331	899	5184
3919552	2911	1614	5364
3919880	3548	2746	5235
3920208	4492	3635	4479
3920536	5200	3232	3915
3920864	5861	2709	3998
3921192	5746	2077	4743
3921520	4802	1071	5319
3921848	3921	-313	6517
3922176	3485	-29	6248
3922504	2991	1920	3801
3922832	2379	1040	2165
3923160	2287	656	1459
3923488	1872	864	647
3923816	1019	650	326
3924144	140	97	-42
3924472	-700	-19	124
3924800	-1198	-105	415
3925128	-983	-239	796
3925456	-578	-352	1311
3925784	-341	-390	1687
3926112	-485	-217	1648
3926440	-394	-52	1570
3926768	-73	-12	1601
3927096	322	943	1451
3927424	446	1027	1024
3927752	203	567	667
3928080	-563	125	156
3928408	-1728	-380	-521
3928736	-5826	-294	-1691
3929064	-5754	-1273	-5346
3929392	-6344	-1594	-6786
3929720	-2010	5053	-5552
3930048	-1142	-1706	-1374
3930376	-1698	2158	-688
3930704	-1286	3620	-3195
3931032	-1766	2436	-3029
3931360	-1582	905	-1913
3931688	653	-592	128
3932016	-5310	392	4614
3932344	-4725	-9193	-5484
3932672	-8730	1588	-956
3933000	-8277	-1140	1887
3933328	-3891	1288	-1083
3933656	-513	710	-996
3933984	1757	601	1800
3934312	3653	189	1228
3934640	4346	-487	1394
3934968	2633	-87	1841
3935296	457	44	2072
3935624	-586	139	1921
3935952	-574	142	1689
3936280	103	85	1368
3936608	598	-238	1027
3936936	430	-438	909
3937264	16	-490	833
3937592	-151	-400	1022
3937920	-178	-452	1084
3938248	-11	-375	981
3938576	285	-184	683
3938904	496	-60	512
3939232	438	-165	503
3939560	311	-218	575
3939888	311	-188	579
3940216	462	-50	465
3940544	630	89	322
3940872	788	124	215
3941200	776	176	153
3941528	668	100	76
3941856	554	63	76
3942184	341	18	-108
3942512	175	0	36
3942840	9	104	37
3943168	-110	203	18
3943496	-134	243	-33
3943824	-34	267	-6
3944152	65	307	-9
3944480	158	636	-265
3944808	243	666	-9
3945136	50	677	-146
3945464	-55	637	0
3945792	-9	605	55
3946120	222	689	12
3946448	446	736	-22
3946776	545	642	58
3947104	493	532	56
3947432	414	476	166
3947760	278	414	112
3948088	213	364	242
3948416	89	269	234
3948744	-74	261	19
3949072	-52	191	214
3949400	-49	218	163
3949728	-1	191	104
3950056	128	226	55
3950384	255	231	6
3950712	251	225	-17
3951040	238	224	-19
3951368	255	267	-57
3951696	209	310	-47
3952024	131	273	-72
3952352	31	259	-91
3952680	-58	224	-92
3953008	-120	216	-97
3953336	-224	151	-66
3953664	-310	113	-52
3953992	-391	109	-27
3954320	-392	145	-46
3954648	-294	197	-75
3954976	-206	261	-86
3955304	-124	268	-106
3955632	-62	255	-107
3955960	-39	278	-101
3956288	89	395	-100
3956616	210	434	-106
3956944	185	403	-97
3957272	102	362	-80
3957600	52	336	-58
3957928	-10	327	-267
3958256	27	332	-63
3958584	39	336	-29
3958912	-2	319	-46
3959240	-71	285	-37
3959568	-164	261	-236
3959896	-140	282	-34
3960224	-143	283	-27
3960552	-153	278	-61
3960880	-199	253	-64
3961208	-215	250	-51
3961536	-206	272	-72
3961864	-134	307	-121
3962192	-84	316	-115
3962520	-83	294	-103
3962848	-162	228	-113
3963176	-254	195	-105
3963504	-310	179	-98
3963832	-290	179	-113
3964160	-217	184	-106
3964488	-163	185	-121
3964816	-130	198	-131
3965144	-130	203	-123
3965472	-140	224	-133
3965800	-137	251	-153
3966128	-143	261	-165
3966456	-209	238	-160
3966784	-271	224	-153
3967112	-336	211	-137
3967440	-342	198	-129
3967768	-348	208	-114
3968096	-344	219	-118
3968424	-310	242	-116
3968752	-285	255	-110
3969080	-263	281	-99
3969408	-210	305	-92
3969736	-167	314	-97
3970064	-165	317	-83
3970392	-175	325	-75
3970720	-221	311	-35
3971048	-244	312	-19
3971376	-271	317	-19
3971704	-284	324	-13
3972032	-268	356	-7
3972360	-262	356	-11
3972688	-250	355	-5
3973016	-287	340	10
3973344	-300	372	21
3973672	-320	366	11
3974000	-319	406	19
3974328	-286	409	34
3974656	-286	406	39
3974984	-287	410	28
3975312	-309	412	29
3975640	-346	404	33
3975968	-302	418	52
3976296	-272	438	39
3976624	-274	450	38
3976952	-279	445	47
3977280	-338	455	59
3977608	-365	439	68
3977936	-410	460	79
3978264	-453	462	64
3978592	-472	471	76
3978920	-476	481	62
3979248	-516	448	60
3979576	-573	438	65
3979904	-621	467	81
3980232	-645	462	79
3980560	-675	479	87
3980888	-665	493	78
3981216	-649	502	84
3981544	-628	483	94
3981872	-646	460	98
3982200	-658	458	96
3982528	-630	501	120
3982856	-595	515	102
3983184	-544	532	78
3983512	-532	496	81
3983840	-591	504	103
3984168	-664	483	107
3984496	-707	505	108
3984824	-760	481	89
3985152	-802	488	90
3985480	-852	466	96
3985808	-903	459	95
3986136	-886	459	66
3986464	-840	490	59
3986792	-785	522	35
3987120	-731	531	17
3987448	-653	557	5
3987776	-596	572	1
3988104	-581	570	-10
3988432	-588	567	3
3988760	-621	551	9
3989088	-668	575	6
3989416	-681	595	-3
3989744	-639	575	-12
3990072	-607	587	-21
3990400	-626	569	-15
3990728	-621	582	-18
3991056	-571	608	-5
3991384	-521	596	-7
3991712	-484	595	8
3992040	-532	581	6
3992368	-575	572	-14
3992696	-575	592	-13
3993024	-511	613	-14
3993352	-419	627	-29
3993680	-334	645	-12
3994008	-308	651	-25
3994336	-350	623	-51
3994664	-356	634	-34
3994992	-338	612	-34
3995320	-335	567	-23
3995648	-329	600	0
3995976	-274	616	14
3996304	-172	620	-1
3996632	-95	592	3
3996960	-109	571	19
3997288	-203	524	1
3997616	-266	475	38
3997944	-281	422	60
3998272	-244	425	59
3998600	-233	447	7
3998928	-303	427	-21
3999256	-349	411	-41
3999584	-375	401	-57
3999912	-359	406	-89
4000240	-345	380	-93
4000568	-358	351	-83
4000896	-389	304	-89
4001224	-411	299	-81
4001552	-438	263	-80
4001880	-468	246	-98
4002208	-500	237	-89
4002536	-526	225	-73
4002864	-565	231	-74
4003192	-580	218	-87
4003520	-537	228	-106
4003848	-521	211	-127
4004176	-558	178	-117
4004504	-594	142	-116
4004832	-606	149	-108
4005160	-593	156	-100
4005488	-575	166	-117
4005816	-601	155	-130
4006144	-655	146	-116
4006472	-659	133	-102
4006800	-615	120	-75
4007128	-531	172	-71
4007456	-444	178	-72
4007784	-424	168	-64
4008112	-456	170	-52
4008440	-424	197	-48
4008768	-340	192	-45
4009096	-281	208	-52
4009424	-214	184	-50
4009752	-224	158	-49
4010080	-238	161	-40
4010408	-215	211	-37
4010736	-149	244	-31
4011064	-121	243	-57
4011392	-123	252	-49
4011720	-160	249	-42
4012048	-211	242	-40
4012376	-219	257	-17
4012704	-209	231	-24
4013032	-179	247	-26
4013360	-153	254	-20
4013688	-125	246	-24
4014016	-118	254	-12
4014344	-102	260	-1
4014672	-99	271	-21
4015000	-92	281	-20
4015328	-77	301	-24
4015656	-51	299	-37
4015984	-100	271	-33
4016312	-129	283	-47
4016640	-142	281	-62
4016968	-130	299	-52
4017296	-90	305	-63
4017624	-34	327	-80
4017952	-27	313	-78
4018280	-64	280	-62
4018608	-102	264	-45
4018936	-104	255	-36
4019264	-75	261	-42
4019592	-17	254	-35
4019920	-2	236	-60
4020248	-17	204	-48
4020576	-38	207	-28
4020904	-86	201	-38
4021232	-71	210	-41
4021560	-51	197	-34
4021888	-69	213	-26
4022216	-66	220	0
4022544	-121	159	30
4022872	-161	126	39
4023200	-202	104	52
4023528	-243	85	69
4023856	-303	44	70
4024184	-378	12	108
4024512	-445	-23	108
4024840	-494	-41	109
4025168	-546	-74	138
4025496	-550	-60	154
4025824	-526	-53	157
4026152	-560	-87	170
4026480	-591	-102	176
4026808	-554	-89	168
4027136	-593	-147	179
4027464	-602	-132	204
4027792	-558	-79	195
4028120	-416	-12	170
4028448	-301	21	141
4028776	-273	31	120
4029104	-278	80	97
4029432	-168	212	89
4029760	-11	284	33
4030088	85	259	-1
4030416	241	360	-33
4030744	411	411	-77
4031072	646	486	-123
4031400	910	619	-149
4031728	1205	726	-233
4032056	1383	759	-311
4032384	1415	740	-302
4032712	1236	659	-292
4033040	1060	584	-239
4033368	994	515	-197
4033696	974	461	-148
4034024	915	411	-119
4034352	741	363	-42
4034680	475	294	32
4035008	281	225	71
4035336	209	191	135
4035664	183	118	134
4035992	88	49	126
4036320	-54	-3	108
4036648	-117	-5	76
4036976	-106	25	59
4037304	-63	101	21
4037632	-80	96	1
4037960	-93	132	-29
4038288	-66	143	-64
4038616	-96	103	-71
4038944	-165	99	-53
4039272	-189	105	-28
4039600	-138	111	-13
4039928	-25	158	-23
4040256	153	224	-54
4040584	260	274	-80
4040912	327	279	-98
4041240	372	283	-98
4041568	404	299	-96
4041896	426	328	-95
4042224	364	338	-120
4042552	342	359	-180
4042880	330	418	-242
4043208	288	412	-282
4043536	199	355	-267
4043864	64	276	-252
4044192	-59	192	-210
4044520	-156	146	-168
4044848	-267	149	-184
4045176	-292	196	-172
4045504	-296	196	-170
4045832	-262	183	-159
4046160	-168	221	-153
4046488	-128	199	-156
4046816	-115	209	-134
4047144	-116	208	-137
4047472	-63	213	-123
4047800	-38	222	-123
4048128	-60	219	-125
4048456	-82	203	-139
4048784	-77	196	-139
4049112	-17	190	-157
4049440	-7	182	-153
4049768	-16	163	-165
4050096	-84	141	-140
4050424	-113	122	-128
4050752	-132	122	-104
4051080	-78	133	-101
4051408	-36	139	-88
4051736	-40	156	-99
4052064	-57	146	-108
4052392	-68	160	-116
4052720	-68	149	-123
4053048	-95	144	-119
4053376	-94	155	-115
4053704	-99	147	-113
4054032	-107	126	-107
4054360	-117	113	-110
4054688	-60	149	-80
4055016	26	160	-91
4055344	46	135	-89
4055672	29	143	-80
4056000	41	135	-84
4056328	35	126	-70
4056656	11	121	-91
4056984	-25	104	-90
4057312	-44	87	-102
4057640	-79	91	-103
4057968	-111	86	-111
4058296	-104	94	-105
4058624	-55	139	-122
4058952	-13	115	-118
4059280	-53	101	-110
4059608	-89	82	-91
4059936	-103	82	-75
4060264	-47	67	-77
4060592	-5	71	-83
4060920	6	35	-99
4061248	-59	11	-97
4061576	-134	-27	-72
4061904	-90	-6	-57
4062232	-7	12	-64
4062560	28	-3	-76
4062888	37	-5	-71
4063216	35	12	-66
4063544	82	21	-55
4063872	114	1	-57
4064200	61	-22	-44
4064528	88	-29	-31
4064856	81	-26	-11
4065184	60	-46	12
4065512	23	-76	18
4065840	-44	-111	27
4066168	-87	-130	44
4066496	-115	-132	50
4066824	-114	-124	45
4067152	-77	-116	31
4067480	-21	-124	16
4067808	15	-160	18
4068136	-41	-174	13
4068464	-80	-179	21
4068792	-59	-140	23
4069120	-35	-152	20
4069448	-59	-170	11
4069776	-143	-191	14
4070104	-175	-187	19
4070432	-180	-199	10
4070760	-178	-212	26
4071088	-209	-237	29
4071416	-245	-266	20
4071744	-276	-252	16
4072072	-262	-251	16
4072400	-246	-269	17
4072728	-252	-287	-17
4073056	-267	-288	-9
4073384	-213	-272	-15
4073712	-184	-272	-27
4074040	-207	-278	-32
4074368	-124	-235	-40
4074696	-14	-229	-35
4075024	81	-200	-72
4075352	87	-210	-58
4075680	37	-242	-66
4076008	33	-248	-47
4076336	108	-212	-39
4076664	213	-177	-46
4076992	278	-169	-61
4077320	259	-181	-70
4077648	203	-204	-73
4077976	201	-196	-70
4078304	234	-213	-40
4078632	298	-183	-45
4078960	317	-194	-48
4079288	295	-195	-38
4079616	248	-211	-35
4079944	262	-208	-26
4080272	269	-216	-9
4080600	294	-220	3
4080928	322	-236	-17
4081256	303	-251	-1
4081584	277	-272	3
4081912	255	-285	14
4082240	299	-267	0
4082568	351	-255	-5
4082896	336	-266	8
4083224	305	-271	1
4083552	237	-298	12
4083880	244	-288	9
4084208	256	-285	12
4084536	246	-306	11
4084864	247	-298	19
4085192	260	-316	23
4085520	302	-313	13
4085848	346	-297	7
4086176	407	-310	31
4086504	448	-300	27
4086832	435	-316	43
4087160	433	-308	28
4087488	421	-347	47
4087816	401	-369	67
4088144	387	-367	58
4088472	362	-371	52
4088800	366	-366	51
4089128	379	-371	46
4089456	336	-380	44
4089784	324	-385	14
4090112	281	-411	10
4090440	302	-413	33
4090768	306	-402	33
4091096	351	-408	34
4091424	367	-422	32
4091752	351	-424	40
4092080	339	-406	21
4092408	360	-407	22
4092736	380	-409	22
4093064	369	-428	13
4093392	344	-408	27
4093720	307	-416	3
4094048	303	-404	-25
4094376	304	-422	4
4094704	301	-405	6
4095032	301	-388	-1
4095360	350	-372	-5
4095688	369	-370	5
4096016	395	-353	-12
4096344	394	-351	-18
4096672	371	-365	-10
4097000	388	-333	-25
4097328	369	-347	-22
4097656	361	-349	-41
4097984	355	-309	-46
4098312	334	-344	-42
4098640	313	-366	-42
4098968	274	-376	-60
4099296	279	-356	-64
4099624	322	-336	-74
4099952	348	-339	-108
4100280	391	-317	-105
4100608	422	-292	-111
4100936	430	-286	-128
4101264	459	-286	-133
4101592	461	-273	-138
4101920	468	-263	-150
4102248	475	-264	-148
4102576	454	-248	-138
4102904	429	-248	-129
4103232	411	-246	-142
4103560	393	-264	-128
4103888	379	-249	-124
4104216	379	-262	-118
4104544	381	-248	-125
4104872	368	-264	-110
4105200	367	-236	-105
4105528	374	-226	-97
4105856	390	-213	-105
4106184	408	-208	-96
4106512	441	-184	-88
4106840	472	-198	-76
4107168	486	-174	-74
4107496	500	-162	-70
4107824	458	-180	-46
4108152	473	-178	-43
4108480	481	-174	-27
4108808	461	-178	-35
4109136	467	-167	-33
4109464	455	-183	-31
4109792	413	-172	-19
4110120	386	-211	-14
4110448	381	-195	-14
4110776	345	-203	-5
4111104	352	-216	-12
4111432	294	-225	-19
4111760	242	-227	-11
4112088	186	-249	5
4112416	192	-255	3
4112744	212	-237	0
4113072	287	-234	-28
4113400	377	-229	-25
4113728	435	-227	-23
4114056	451	-198	-28
4114384	487	-189	-42
4114712	520	-178	-48
4115040	552	-196	-38
4115368	557	-190	-46
4115696	542	-194	-42
4116024	512	-190	-45
4116352	471	-197	-43
4116680	414	-218	-47
4117008	361	-245	-47
4117336	320	-267	-42
4117664	306	-259	-38
4117992	302	-271	-40
4118320	318	-286	-45
4118648	315	-294	-39
4118976	368	-303	-60
4119304	401	-317	-64
4119632	427	-325	-75
4119960	476	-331	-67
4120288	445	-351	-61
4120616	440	-350	-64
4120944	425	-367	-55
4121272	385	-375	-56
4121600	333	-388	-62
4121928	284	-412	-64
4122256	224	-415	-38
4122584	204	-423	-26
4122912	195	-401	-15
4123240	242	-357	-12
4123568	258	-331	-15
4123896	305	-316	-44
4124224	315	-306	-47
4124552	300	-298	-54
4124880	303	-331	-74
4125208	310	-326	-58
4125536	305	-343	-57
4125864	287	-351	-63
4126192	301	-361	-60
4126520	286	-339	-68
4126848	248	-314	-81
4127176	250	-328	-97
4127504	272	-296	-113
4127832	271	-290	-125
4128160	257	-298	-115
4128488	304	-289	-137
4128816	313	-261	-124
4129144	320	-250	-136
4129472	316	-240	-139
4129800	270	-264	-129
4130128	193	-283	-158
4130456	169	-268	-136
4130784	174	-276	-139
4131112	172	-236	-174
4131440	226	-228	-166
4131768	247	-240	-137
4132096	247	-216	-165
4132424	235	-126	-175
4132752	208	-165	-153
4133080	236	-143	-130
4133408	239	-103	-141
4133736	231	-134	-128
4134064	252	-91	-132
4134392	243	-83	-123
4134720	181	-116	-94
4135048	155	-125	-78
4135376	140	-169	-55
4135704	123	-158	-59
4136032	97	-193	-62
4136360	81	-249	-50
4136688	79	-244	-67
4137016	88	-241	-85
4137344	96	-238	-88
4137672	97	-264	-69
4138000	95	-271	-52
4138328	79	-263	-53
4138656	84	-249	-73
4138984	120	-255	-91
4139312	176	-245	-68
4139640	141	-302	-61
4139968	93	-313	-66
4140296	32	-318	-49
4140624	-10	-331	-41
4140952	-63	-328	-57
4141280	-56	-356	-60
4141608	-25	-353	-52
4141936	27	-315	-64
4142264	75	-285	-62
4142592	114	-272	-77
4142920	190	-253	-74
4143248	219	-255	-60
4143576	146	-257	-52
4143904	218	-243	-25
4144232	251	-264	-26
4144560	184	-235	-54
4144888	143	-256	-39
4145216	54	-288	-16
4145544	-38	-293	-35
4145872	-50	-300	-33
4146200	-41	-271	-48
4146528	-95	-268	-101
4146856	-156	-324	-30
4147184	-177	-292	-51
4147512	-210	-298	-62
4147840	-184	-252	-112
4148168	-101	-216	-127
4148496	19	-160	-104
4148824	141	-123	-98
4149152	191	-50	-149
4149480	285	27	-170
4149808	365	25	-179
4150136	336	-7	-162
4150464	351	-43	-129
4150792	302	-87	-105
4151120	220	-91	-145
4151448	156	-115	-160
4151776	61	-111	-178
4152104	40	-78	-183
4152432	91	-119	-136
4152760	59	-156	-123
4153088	1	-149	-153
4153416	-47	-113	-194
4153744	12	-91	-192
4154072	100	-82	-187
4154400	157	-68	-212
4154728	241	22	-272
4155056	253	-8	-339
4155384	162	-51	-407
4155712	56	-122	-449
4156040	-74	-218	-472
4156368	-214	-302	-468
4156696	-335	-338	-474
4157024	-388	-322	-475
4157352	-409	-232	-493
4157680	-510	-190	-539
4158008	-611	-138	-571
4158336	-376	-27	-571
4158664	98	76	-508
4158992	571	165	-462
4159320	948	257	-394
4159648	1125	285	-347
4159976	1092	247	-303
4160304	908	148	-280
4160632	734	32	-261
4160960	598	-57	-179
4161288	473	-156	-183
4161616	383	-251	-180
4161944	224	-372	-155
4162272	49	-469	-96
4162600	-106	-530	-44
4162928	-160	-572	40
4163256	-56	-514	142
4163584	162	-433	210
4163912	394	-341	225
4164240	539	-279	229
4164568	652	-261	235
4164896	667	-277	229
4165224	596	-278	212
4165552	428	-373	180
4165880	368	-391	233
4166208	384	-416	188
4166536	309	-437	179
4166864	252	-506	193
4167192	230	-527	240
4167520	216	-520	257
4167848	213	-502	259
4168176	293	-444	270
4168504	379	-385	261
4168832	434	-376	250
4169160	462	-363	237
4169488	444	-372	226
4169816	336	-449	210
4170144	8	-510	201
4170472	-156	-604	207
4170800	-264	-615	225
4171128	-225	-599	260
4171456	-128	-544	262
4171784	-10	-496	243
4172112	84	-452	237
4172440	72	-451	207
4172768	16	-454	140
4173096	-37	-447	123
4173424	-40	-434	96
4173752	-40	-365	74
4174080	-48	-350	66
4174408	-12	-282	62
4174736	20	-215	67
4175064	53	-143	31
4175392	51	-106	6
4175720	73	-52	22
4176048	26	-42	18
4176376	-58	-46	14
4176704	-88	8	34
4177032	-98	69	49
4177360	-93	113	59
4177688	-140	116	66
4178016	-137	135	71
4178344	-130	177	61
4178672	-113	212	35
4179000	-63	253	1
4179328	-25	316	-5
4179656	-27	381	-50
4179984	-13	393	-81
4180312	-13	370	-84
4180640	-85	350	-95
4180968	-160	314	-116
4181296	-229	285	-87
4181624	-235	307	-98
4181952	-176	314	-117
4182280	-115	318	-148
4182608	-55	309	-174
4182936	-56	296	-202
4183264	-139	236	-212
4183592	-208	253	-200
4183920	-270	311	-203
4184248	-294	304	-217
4184576	-271	280	-205
4184904	-278	219	-205
4185232	-280	188	-212
4185560	-322	195	-243
4185888	-395	245	-262
4186216	-482	335	-300
4186544	-540	375	-281
4186872	-483	358	-257
4187200	-336	381	-234
4187528	-198	371	-241
4187856	-128	371	-255
4188184	-132	374	-285
4188512	-221	300	-286
4188840	-224	294	-257
4189168	-138	277	-246
4189496	-106	268	-230
4189824	-89	219	-215
4190152	-101	223	-194
4190480	-54	218	-181
4190808	-25	227	-178
4191136	-24	229	-187
4191464	-56	211	-183
4191792	-145	181	-196
4192120	-219	176	-206
4192448	-252	193	-226
4192776	-257	213	-204
4193104	-225	247	-213
4193432	-202	273	-195
4193760	-137	307	-199
4194088	-109	308	-174
4194416	-71	319	-174
4194744	-45	335	-166
4195072	-8	327	-145
4195400	-27	319	-152
4195728	-59	299	-170
4196056	-131	229	-133
4196384	-160	200	-122
4196712	-195	148	-137
4197040	-257	111	-138
4197368	-257	99	-145
4197696	-218	110	-150
4198024	-189	117	-160
4198352	-130	159	-161
4198680	-74	181	-167
4199008	-90	179	-176
4199336	-115	174	-157
4199664	-149	165	-142
4199992	-129	211	-120
4200320	-115	235	-110
4200648	-71	245	-102
4200976	-63	269	-90
4201304	-99	270	-86
4201632	-167	281	-113
4201960	-233	286	-118
4202288	-276	285	-96
4202616	-245	291	-90
4202944	-244	289	-94
4203272	-251	289	-75
4203600	-288	282	-41
4203928	-317	255	-50
4204256	-339	282	-31
4204584	-369	248	-32
4204912	-424	167	-30
4205240	-472	87	19
4205568	-529	50	55
4205896	-502	2	82
4206224	-461	-7	111
4206552	-448	5	78
4206880	-497	-33	102
4207208	-540	-16	120
4207536	-560	2	119
4207864	-561	33	121
4208192	-557	100	107
4208520	-542	95	117
4208848	-495	150	132
4209176	-387	267	133
4209504	-326	284	107
4209832	-271	293	115
4210160	-256	340	106
4210488	-276	317	109
4210816	-299	346	116
4211144	-307	356	127
4211472	-325	327	165
4211800	-303	310	171
4212128	-350	297	151
4212456	-384	263	126
4212784	-403	274	122
4213112	-364	362	119
4213440	-224	416	74
4213768	-94	444	54
4214096	-16	449	40
4214424	-44	447	28
4214752	-80	417	24
4215080	-104	408	-1
4215408	-160	352	-11
4215736	-159	355	1
4216064	-182	368	-9
4216392	-172	369	11
4216720	-157	394	23
4217048	-141	380	34
4217376	-138	375	41
4217704	-112	390	28
4218032	-120	334	56
4218360	-83	347	86
4218688	-73	353	132
4219016	-87	313	180
4219344	-19	360	226
4219672	73	433	259
4220000	148	468	256
4220328	195	496	249
4220656	185	459	231
4220984	159	482	193
4221312	75	483	155
4221640	-21	486	125
4221968	-47	580	85
4222296	-67	629	73
4222624	-125	597	66
4222952	-50	634	68
4223280	43	738	65
4223608	70	809	85
4223936	99	774	167
4224264	70	692	250
4224592	-6	644	319
4224920	-201	660	260
4225248	-362	780	167
4225576	-510	832	39
4225904	-588	902	-42
4226232	-629	924	-84
4226560	-638	856	-42
4226888	-510	887	3
4227216	-292	883	65
4227544	-132	909	37
4227872	-109	919	-61
4228200	-167	861	-139
4228528	-218	856	-161
4228856	-241	812	-128
4229184	-213	800	-71
4229512	-118	801	-40
4229840	-112	822	-1
4230168	-259	793	-9
4230496	-361	793	-16
4230824	-383	823	-24
4231152	-374	892	-33
4231480	-260	977	-82
4231808	-137	1066	-92
4232136	-121	1124	-77
