Time Stamp	Gyroscope X	Gyroscope Y	Gyroscope Z
RAW	RAW	RAW	RAW
no units	no units	no units	no units
3937519	-129	140	-44
3937847	-116	150	-48
3938175	-122	183	-31
3938503	-132	170	-29
3938831	-127	197	-40
3939159	-162	186	-35
3939487	-169	190	-8
3939815	-185	168	-1
3940143	-178	165	11
3940471	-160	191	13
3940799	-148	173	8
3941127	-130	121	-7
3941455	-70	183	3
3941783	-55	150	8
3942111	-36	148	29
3942439	-35	153	40
3942767	-51	139	37
3943095	-37	118	32
3943423	-67	136	42
3943751	-87	169	51
3944079	-83	199	46
3944407	28	156	41
3944735	156	58	38
3945063	255	-13	53
3945391	65	106	92
3945719	-257	187	159
3946047	-385	56	189
3946375	-363	59	178
3946703	-349	196	161
3947031	-134	128	99
3947359	13	99	105
3947687	55	190	122
3948015	44	152	131
3948343	52	186	133
3948671	80	185	120
3948999	129	65	127
3949327	111	150	152
3949655	14	255	168
3949983	-16	138	151
3950311	67	48	136
3950639	133	34	147
3950967	230	55	127
3951295	328	72	123
3951623	379	135	111
3951951	348	195	101
3952279	215	104	97
3952607	248	227	109
3952935	191	110	122
3953263	199	168	103
3953591	80	128	96
3953919	115	184	69
3954247	114	173	33
3954575	146	173	-3
3954903	110	108	-48
3955231	33	68	-61
3955559	131	111	-50
3955887	59	93	-76
3956215	80	183	-123
3956543	150	174	-158
3956871	129	244	-174
3957199	2	223	-190
3957527	-221	200	-152
3957855	-434	167	-120
3958183	-534	175	-104
3958511	-643	120	-115
3958839	-572	163	-130
3959167	-491	142	-161
3959495	-327	190	-184
3959823	-259	204	-204
3960151	-150	125	-159
3960479	-13	152	-117
3960807	-61	136	-85
3961135	-141	209	-77
3961463	-193	142	-57
3961791	-177	165	-28
3962119	-62	180	-21
3962447	22	125	-5
3962775	2	185	28
3963103	-28	171	37
3963431	-30	193	30
3963759	-38	95	50
3964087	-37	141	57
3964415	-129	94	82
3964743	-178	167	94
3965071	-265	210	82
3965399	-261	157	81
3965727	-258	132	58
3966055	-127	156	71
3966383	-50	78	54
3966711	-4	229	60
3967039	-62	75	54
3967367	-2	157	48
3967695	-90	139	55
3968023	-188	201	50
3968351	-183	238	83
3968679	-125	128	75
3969007	-112	90	53
3969335	-31	109	43
3969663	7	104	13
3969991	38	124	7
3970319	21	195	24
3970647	-16	194	53
3970975	-58	164	74
3971303	-149	171	72
3971631	-137	164	83
3971959	-131	137	81
3972287	-68	160	75
3972615	-62	160	54
3972943	33	181	48
3973271	102	98	37
3973599	219	135	29
3973927	236	143	35
3974255	179	64	37
3974583	230	83	20
3974911	329	64	5
3975239	383	-12	-21
3975567	436	86	5
3975895	401	101	16
3976223	368	58	-23
3976551	350	60	-33
3976879	409	45	-8
3977207	397	55	-24
3977535	314	119	-24
3977863	313	72	-52
3978191	281	54	-46
3978519	209	33	-30
3978847	40	4	11
3979175	-96	82	58
3979503	-232	73	59
3979831	-291	91	55
3980159	-245	25	31
3980487	-111	77	21
3980815	-66	32	-10
3981143	0	39	-20
3981471	54	66	-11
3981799	46	31	-21
3982127	79	150	-16
3982455	48	122	-43
3982783	4	64	-48
3983111	1	121	-34
3983439	-85	144	-30
3983767	-151	166	-33
3984095	-158	158	-45
3984423	-146	113	-42
3984751	-152	113	-45
3985079	-160	147	-28
3985407	-140	186	-28
3985735	-183	194	-40
3986063	-173	202	-45
3986391	-160	161	-56
3986719	-200	153	-69
3987047	-163	136	-72
3987375	-190	152	-63
3987703	-209	166	-56
3988031	-237	169	-57
3988359	-247	169	-56
3988687	-239	129	-72
3989015	-210	125	-86
3989343	-170	123	-74
3989671	-181	130	-73
3989999	-157	147	-65
3990327	-126	155	-74
3990655	-91	129	-88
3990983	-24	112	-104
3991311	-23	142	-105
3991639	-122	100	-110
3991967	-182	100	-86
3992295	-178	134	-79
3992623	-196	237	-43
3992951	-144	124	-49
3993279	-104	69	-17
3993607	-133	65	-1
3993935	-93	68	2
3994263	-85	71	9
3994591	-29	71	16
3994919	-28	-6	6
3995247	11	155	32
3995575	-133	22	34
3995903	-187	32	31
3996231	-214	51	39
3996559	-304	34	22
3996887	-317	113	47
3997215	-214	67	43
3997543	-124	41	13
3997871	30	-14	18
3998199	73	-31	1
3998527	89	100	6
3998855	54	15	-6
3999183	20	-16	-2
3999511	-6	63	4
3999839	-10	87	8
4000167	-56	64	9
4000495	-50	59	-1
4000823	-23	40	-13
4001151	-8	43	-24
4001479	42	36	-28
4001807	76	43	-37
4002135	80	64	-35
4002463	96	47	-57
4002791	-20	84	-48
4003119	-80	159	-62
4003447	-165	112	-65
4003775	-132	147	-76
4004103	-119	187	-73
4004431	-80	135	-113
4004759	-96	106	-111
4005087	-78	192	-118
4005415	-135	221	-117
4005743	-192	256	-116
4006071	-212	285	-111
4006399	-181	253	-108
4006727	-214	278	-124
4007055	-256	290	-152
4007383	-327	201	-146
4007711	-304	260	-133
4008039	-321	280	-130
4008367	-277	231	-162
4008695	-192	246	-174
4009023	-126	247	-148
4009351	-141	253	-125
4009679	-247	327	-109
4010007	-224	323	-83
4010335	-196	273	-86
4010663	-127	333	-90
4010991	-27	272	-85
4011319	94	289	-53
4011647	202	343	-64
4011975	222	259	-74
4012303	227	263	-77
4012631	119	304	-56
4012959	41	355	-49
4013287	-29	284	-32
4013615	8	304	-29
4013943	-72	248	-42
4014271	-148	315	-52
4014599	-207	364	-84
4014927	-167	304	-80
4015255	-81	332	-68
4015583	-24	338	-58
4015911	5	246	-91
4016239	44	235	-125
4016567	59	201	-130
4016895	58	158	-125
4017223	27	200	-121
4017551	-90	267	-95
4017879	-138	223	-86
4018207	-113	221	-80
4018535	-17	194	-119
4018863	71	155	-168
4019191	105	213	-196
4019519	119	261	-160
4019847	110	231	-125
4020175	20	224	-100
4020503	-70	202	-81
4020831	-113	140	-86
4021159	-162	89	-100
4021487	-191	157	-89
4021815	-197	245	-67
4022143	-255	245	-72
4022471	-271	277	-48
4022799	-244	244	-34
4023127	-211	180	-56
4023455	-140	268	-70
4023783	-85	247	-79
4024111	5	207	-101
4024439	150	267	-67
4024767	62	324	-21
4025095	-78	354	54
4025423	-308	284	105
4025751	-491	307	116
4026079	-544	171	115
4026407	-480	170	102
4026735	-443	175	103
4027063	-531	184	121
4027391	-596	164	152
4027719	-793	214	43
4028047	-942	141	150
4028375	-977	183	127
4028703	-969	99	93
4029031	-781	54	63
4029359	-624	123	46
4029687	-496	140	28
4030015	-400	101	18
4030343	-337	122	10
4030671	-367	70	-22
4030999	-291	-3	-33
4031327	-207	16	-19
4031655	-151	31	0
4031983	-163	-4	-3
4032311	-222	65	19
4032639	-247	26	35
4032967	-236	-55	32
4033295	-164	-100	84
4033623	-112	-82	126
4033951	-135	-75	141
4034279	-193	-123	134
4034607	-235	-177	117
4034935	-256	-171	124
4035263	-251	-210	117
4035591	-378	-246	123
4035919	-401	-216	126
4036247	-422	-228	134
4036575	-347	-256	162
4036903	-343	-205	225
4037231	-390	-132	235
4037559	-315	-113	260
4037887	-96	-208	310
4038215	-96	-174	304
4038543	-187	-132	246
4038871	-73	-153	243
4039199	51	-193	218
4039527	196	-146	310
4039855	163	-125	268
4040183	10	-92	261
4040511	31	-132	234
4040839	32	-56	248
4041167	45	-181	191
4041495	45	-120	169
4041823	4	-106	137
4042151	-11	53	116
4042479	64	47	103
4042807	140	145	96
4043135	165	217	-71
4043463	205	77	60
4043791	287	75	75
4044119	265	33	42
4044447	174	-20	-31
4044775	150	-63	-40
4045103	116	43	-35
4045431	-4	129	-17
4045759	-71	185	-7
4046087	-218	139	-9
4046415	-241	229	-22
4046743	-299	234	-31
4047071	-224	229	-58
4047399	-160	165	-82
4047727	-140	151	-118
4048055	-159	184	-138
4048383	-209	156	-161
4048711	-201	179	-134
4049039	-190	181	-95
4049367	-130	216	-88
4049695	-101	212	-101
4050023	-99	181	-99
4050351	-107	168	-80
4050679	-149	184	-59
4051007	-130	178	-16
4051335	-104	167	20
4051663	-136	165	9
4051991	-119	113	8
4052319	-85	87	13
4052647	6	106	22
4052975	13	108	40
4053303	58	82	54
4053631	134	58	57
4053959	129	63	39
4054287	0	119	23
4054615	-21	110	23
4054943	-37	142	27
4055271	58	132	60
4055599	88	90	55
4055927	71	117	45
4056255	18	132	9
4056583	18	107	-4
4056911	48	127	-5
4057239	17	193	-20
4057567	4	211	-20
4057895	58	185	-29
4058223	99	146	-30
4058551	137	150	-45
4058879	163	177	-58
4059207	137	165	-80
4059535	95	253	-80
4059863	125	273	-100
4060191	160	259	-103
4060519	129	265	-99
4060847	4	261	-110
4061175	-86	285	-95
4061503	-136	256	-76
4061831	-214	272	-87
4062159	-275	318	-80
4062487	-223	342	-89
4062815	-149	318	-101
4063143	-86	285	-134
4063471	8	296	-122
4063799	78	283	-144
4064127	45	278	-172
4064455	-10	318	-141
4064783	-1	379	-137
4065111	-46	357	-97
4065439	-35	331	-75
4065767	-24	319	-73
4066095	-27	292	-86
4066423	1	274	-81
4066751	65	207	-89
4067079	147	272	-88
4067407	244	262	-67
4067735	271	140	-59
4068063	230	136	-58
4068391	148	171	-35
4068719	130	130	-36
4069047	103	152	-35
4069375	72	208	-20
4069703	21	117	-24
4070031	-58	118	-16
4070359	-104	125	-14
4070687	-111	112	-13
4071015	-59	207	-18
4071343	14	193	-32
4071671	118	113	-47
4071999	136	110	-53
4072327	98	149	-58
4072655	90	169	-65
4072983	70	182	-54
4073311	47	181	-35
4073639	20	192	-30
4073967	4	126	-36
4074295	-35	158	-37
4074623	-81	214	-15
4074951	-125	260	-4
4075279	-212	238	-4
4075607	-264	213	3
4075935	-245	173	8
4076263	-173	141	7
4076591	-130	153	-28
4076919	-87	145	-12
4077247	-32	173	-14
4077575	-47	233	6
4077903	-91	210	-6
4078231	-84	209	16
4078559	-81	192	2
4078887	-88	148	-13
4079215	-91	135	-21
4079543	-56	205	0
4079871	-43	234	-1
4080199	-22	224	-7
4080527	-19	176	-20
4080855	-7	198	-48
4081183	-96	190	-62
4081511	-171	183	-35
4081839	-261	255	-34
4082167	-250	227	-66
4082495	-201	252	-84
4082823	-242	233	-93
4083151	-231	293	-86
4083479	-240	221	-83
4083807	-167	189	-73
4084135	-130	155	-75
4084463	-100	207	-95
4084791	-100	194	-107
4085119	-63	181	-102
4085447	-39	217	-75
4085775	-44	166	-71
4086103	-5	182	-69
4086431	-1	190	-65
4086759	68	210	-57
4087087	130	212	-36
4087415	188	182	-28
4087743	195	151	-21
4088071	170	181	-30
4088399	141	179	-25
4088727	118	171	-20
4089055	32	189	-11
4089383	-65	193	1
4089711	-177	199	26
4090039	-223	164	35
4090367	-226	140	31
4090695	-200	139	32
4091023	-166	96	25
4091351	-116	149	2
4091679	-168	84	-1
4092007	-173	200	14
4092335	-171	204	22
4092663	-102	250	0
4092991	-45	97	-26
4093319	57	106	-27
4093647	117	173	-24
4093975	164	103	-52
4094303	201	121	-52
4094631	231	141	-36
4094959	227	161	-17
4095287	142	145	-39
4095615	105	116	-10
4095943	23	59	4
4096271	-55	161	4
4096599	-148	134	-32
4096927	-89	150	-19
4097255	14	200	-37
4097583	12	218	-8
4097911	58	178	-8
4098239	-31	112	-16
4098567	17	191	-7
4098895	53	157	-3
4099223	120	148	20
4099551	143	213	24
4099879	197	221	40
4100207	240	128	25
4100535	238	104	33
4100863	214	114	31
4101191	196	129	45
4101519	174	158	61
4101847	108	202	75
4102175	47	163	72
4102503	49	144	81
4102831	15	132	78
4103159	-68	118	75
4103487	-110	113	75
4103815	-131	147	89
4104143	-161	190	93
4104471	-198	178	83
4104799	-267	188	82
4105127	-304	213	78
4105455	-360	178	72
4105783	-363	165	62
4106111	-326	190	52
4106439	-288	192	36
4106767	-273	191	5
4107095	-305	147	-6
4107423	-316	174	-14
4107751	-372	226	-4
4108079	-439	182	-29
4108407	-426	204	-39
4108735	-380	241	-52
4109063	-262	227	-78
4109391	-103	237	-105
4109719	21	211	-136
4110047	158	203	-128
4110375	244	206	-136
4110703	298	234	-119
4111031	277	249	-134
4111359	230	288	-99
4111687	159	354	-79
4112015	129	343	-61
4112343	127	309	-28
4112671	119	287	-33
4112999	123	288	-33
4113327	129	252	-49
4113655	124	227	-58
4113983	68	270	-48
4114311	-6	278	-26
4114639	15	226	-25
4114967	-31	227	-33
4115295	-110	248	-20
4115623	-155	189	-13
4115951	-322	285	33
4116279	-307	269	35
4116607	-228	256	41
4116935	-180	228	45
4117263	-143	186	15
4117591	-88	180	5
4117919	-73	187	5
4118247	-95	227	0
4118575	-106	229	12
4118903	-134	256	35
4119231	-143	274	33
4119559	-156	277	11
4119887	-121	248	-9
4120215	-39	271	-5
4120543	32	265	-56
4120871	96	291	-59
4121199	136	260	-53
4121527	137	223	-44
4121855	94	274	-46
4122183	60	257	3
4122511	28	198	-38
4122839	54	256	2
4123167	-12	260	80
4123495	-1	292	27
4123823	78	298	8
4124151	183	133	18
4124479	324	120	136
4124807	399	132	36
4125135	504	195	8
4125463	605	250	-18
4125791	624	262	2
4126119	561	259	47
4126447	392	263	63
4126775	217	279	75
4127103	148	220	93
4127431	267	113	88
4127759	325	95	63
4128087	387	143	43
4128415	369	182	48
4128743	375	202	76
4129071	286	211	74
4129399	253	70	78
4129727	274	88	160
4130055	224	124	94
4130383	157	62	110
4130711	85	72	131
4131039	97	35	158
4131367	109	22	184
4131695	122	83	175
4132023	122	63	146
4132351	224	55	142
4132679	370	9	116
4133007	614	-145	16
4133335	589	-101	92
4133663	388	30	27
4133991	292	73	2
4134319	255	-5	-2
4134647	220	9	-19
4134975	177	42	-105
4135303	220	95	-163
4135631	265	213	-141
4135959	254	204	-75
4136287	150	140	-117
4136615	0	100	-120
4136943	-53	100	-116
4137271	-75	21	-71
4137599	-19	-29	54
4137927	-29	8	15
4138255	-3	48	30
4138583	114	118	41
4138911	71	76	43
4139239	13	40	69
4139567	-24	30	128
4139895	-108	155	136
4140223	-165	168	134
4140551	-214	135	119
4140879	-118	77	119
4141207	-47	29	122
4141535	62	65	131
4141863	68	95	117
4142191	88	140	121
4142519	114	115	139
4142847	117	78	127
4143175	87	123	120
4143503	103	122	125
4143831	105	90	122
4144159	82	97	120
4144487	113	106	119
4144815	107	135	99
4145143	197	155	97
4145471	187	96	96
4145799	86	75	87
4146127	141	128	96
4146455	89	144	105
4146783	76	192	105
4147111	22	112	120
4147439	43	166	114
4147767	73	126	104
4148095	-18	83	97
4148423	39	109	92
4148751	72	93	84
4149079	48	56	80
4149407	59	62	69
4149735	-22	94	56
4150063	-6	125	53
4150391	-63	104	55
4150719	-130	136	48
4151047	-161	143	50
4151375	-150	98	50
4151703	-140	90	42
4152031	-158	56	37
4152359	-139	113	30
4152687	-99	101	34
4153015	-102	85	16
4153343	-98	90	5
4153671	-44	86	10
4153999	-105	82	14
4154327	-99	71	-5
4154655	-96	124	6
4154983	-99	59	-11
4155311	-75	63	-1
4155639	-60	98	-18
4155967	-75	76	-24
4156295	-27	66	-25
4156623	-24	61	-34
4156951	-34	74	-34
4157279	-34	81	-46
4157607	-19	66	-52
4157935	-28	93	-50
4158263	-7	103	-58
4158591	32	62	-54
4158919	51	70	-46
4159247	54	119	-43
4159575	23	69	-40
4159903	3	33	-47
4160231	-12	101	-45
4160559	-4	56	-58
4160887	23	92	-57
4161215	-6	117	-63
4161543	-6	143	-76
4161871	-50	153	-94
4162199	-51	146	-102
4162527	-69	198	-121
4162855	-131	183	-121
4163183	-146	194	-146
4163511	-126	215	-139
4163839	-53	195	-127
4164167	-58	197	-134
4164495	-161	193	-143
4164823	-244	209	-127
4165151	-311	236	-139
4165479	-338	267	-135
4165807	-278	260	-130
4166135	-251	277	-104
4166463	-223	253	-53
4166791	-346	190	-10
4167119	-445	221	8
4167447	-441	222	20
4167775	-389	188	8
4168103	-272	167	26
4168431	-224	163	4
4168759	-224	173	6
4169087	-264	216	32
4169415	-284	167	53
4169743	-300	74	56
4170071	-367	57	48
4170399	-347	61	20
4170727	-267	79	19
4171055	-218	157	13
4171383	-209	229	12
4171711	-194	161	16
4172039	-166	150	9
4172367	-195	181	3
4172695	-214	164	15
4173023	-195	127	25
4173351	-220	169	25
4173679	-216	214	16
4174007	-160	178	22
4174335	-174	169	6
4174663	-238	176	28
4174991	-279	154	19
4175319	-308	190	6
4175647	-284	159	-19
4175975	-246	118	-40
4176303	-183	156	-43
4176631	-125	162	-44
4176959	-53	168	-65
4177287	-42	172	-75
4177615	-87	212	-60
4177943	-136	196	-50
4178271	-108	118	-45
4178599	-84	125	-56
4178927	-97	128	-49
4179255	-21	133	-64
4179583	62	114	-76
4179911	121	86	-88
4180239	144	97	-86
4180567	95	27	-60
4180895	8	70	-49
4181223	-149	162	-54
4181551	-236	180	-56
4181879	-230	218	-84
4182207	-187	191	-125
4182535	-172	184	-87
4182863	-214	280	-48
4183191	-311	270	-33
4183519	-403	191	-28
4183847	-526	242	-91
4184175	-469	346	-83
4184503	-301	282	-141
4184831	-205	314	-183
4185159	-157	303	-248
4185487	-67	358	-250
4185815	-92	305	-284
4186143	-92	368	-279
4186471	-136	473	-244
4186799	-222	487	-231
4187127	-340	403	-225
4187455	-389	371	-207
4187783	-295	257	-204
4188111	-121	251	-237
4188439	-39	362	-222
4188767	-15	380	-235
4189095	125	298	-227
4189423	128	283	-179
4189751	3	246	-121
4190079	-97	261	-47
4190407	-215	219	-67
4190735	-142	169	-70
4191063	-1	157	-75
4191391	81	206	-62
4191719	184	237	-50
4192047	245	179	-32
4192375	295	197	-34
4192703	349	186	-8
4193031	436	195	-16
4193359	426	173	-17
4193687	450	181	-3
4194015	527	184	18
4194343	507	235	19
4194671	501	257	26
4194999	371	227	27
4195327	253	173	48
4195655	65	176	52
4195983	7	164	52
4196311	84	68	14
4196639	188	158	-21
4196967	221	198	-39
4197295	181	227	-68
4197623	148	263	-52
4197951	22	246	-59
4198279	-80	258	-45
4198607	-110	218	-56
4198935	-110	90	-94
4199263	-77	63	-93
4199591	-18	83	-101
4199919	19	75	-116
4200247	-21	83	-128
4200575	-53	127	-113
4200903	-141	119	-124
4201231	-204	96	-107
4201559	-345	132	-105
4201887	-513	102	-89
4202215	-501	114	-95
4202543	-422	22	-102
4202871	-351	-23	-109
4203199	-241	73	-118
4203527	-202	21	-109
4203855	-151	43	-99
4204183	-90	81	-73
4204511	-66	81	-62
4204839	47	57	-49
4205167	42	76	-44
4205495	14	51	-34
4205823	1	33	2
4206151	-17	80	42
4206479	-75	91	30
4206807	-13	86	40
4207135	29	91	46
4207463	49	98	42
4207791	67	65	46
4208119	53	84	61
4208447	-26	97	65
4208775	-64	78	61
4209103	-104	83	46
4209431	-103	89	48
4209759	-116	123	47
4210087	-109	138	40
4210415	-59	113	15
4210743	-36	95	48
4211071	-56	100	28
4211399	-98	120	38
4211727	-116	167	71
4212055	-129	195	81
4212383	-163	219	82
4212711	-149	188	67
4213039	-129	181	36
4213367	-108	188	36
4213695	-92	145	34
4214023	-41	148	20
4214351	-18	154	14
4214679	-37	156	-14
4215007	-71	162	1
4215335	-43	169	-2
4215663	-54	266	-19
4215991	-84	153	-18
4216319	45	155	-43
4216647	76	111	-52
4216975	9	175	-18
4217303	-80	181	-17
4217631	-162	180	-14
4217959	-199	183	-14
4218287	-168	196	-23
4218615	-156	224	-27
4218943	-132	192	-30
4219271	-99	168	-31
4219599	-62	150	-24
4219927	-16	151	-24
4220255	-29	137	-26
4220583	-30	105	-21
4220911	-68	155	-10
4221239	-88	173	9
4221567	-93	181	13
4221895	-75	139	20
4222223	-76	88	-8
4222551	-47	159	6
4222879	-31	129	6
4223207	-40	94	4
4223535	-36	103	-2
4223863	-69	160	2
4224191	-36	156	-10
4224519	-47	129	-30
4224847	-66	183	-35
4225175	-90	265	-50
4225503	-14	194	-80
4225831	114	149	-70
4226159	147	222	-99
4226487	38	262	-121
4226815	31	176	-142
4227143	92	153	-125
4227471	79	183	-124
4227799	-33	211	-134
4228127	-27	229	-152
4228455	-43	236	-170
4228783	-13	220	-179
4229111	-33	300	-186
4229439	-25	296	-181
4229767	3	260	-199
4230095	25	306	-223
4230423	20	284	-216
4230751	23	262	-218
4231079	33	260	-217
4231407	-46	289	-203
4231735	-66	238	-176
4232063	-89	262	-161
4232391	-85	267	-143
4232719	-23	270	-116
4233047	45	319	-102
4233375	72	361	-104
4233703	30	262	-88
4234031	3	205	-85
4234359	-63	175	-86
4234687	-15	113	-95
4235015	-41	201	-92
4235343	-101	156	-94
4235671	-141	232	-85
4235999	-169	224	-67
4236327	-180	294	-60
4236655	-141	331	-72
4236983	-23	232	-99
4237311	98	250	-107
4237639	161	265	-131
4237967	221	268	-130
4238295	232	236	-125
4238623	142	215	-113
4238951	164	121	-119
4239279	215	174	-130
4239607	262	143	-114
4239935	229	159	-114
4240263	230	208	-93
4240591	110	203	-70
4240919	-17	215	-32
4241247	-141	220	6
4241575	-250	178	10
4241903	-239	118	26
4242231	-180	94	30
4242559	-154	76	34
4242887	-139	98	44
4243215	-111	86	58
4243543	-79	116	75
4243871	12	93	82
4244199	42	94	93
4244527	54	47	96
4244855	57	36	88
4245183	84	77	86
4245511	91	53	79
4245839	148	54	92
4246167	135	23	96
4246495	65	44	83
4246823	-33	40	81
4247151	-111	68	100
4247479	-168	111	97
4247807	-216	17	93
4248135	-127	136	86
4248463	-43	81	62
4248791	-72	6	44
4249119	-68	78	54
4249447	-44	72	34
4249775	-3	88	27
4250103	-11	58	10
4250431	0	55	0
4250759	-34	30	-8
4251087	-23	110	-25
4251415	-13	145	-35
4251743	67	85	-58
4252071	147	132	-49
4252399	202	106	-70
4252727	198	123	-71
4253055	131	67	-68
4253383	131	106	-64
4253711	125	124	-63
4254039	100	127	-70
4254367	41	118	-99
4254695	8	107	-96
4255023	-38	113	-88
4255351	-156	152	-97
4255679	-115	166	-90
4256007	-121	138	-99
4256335	-72	256	-103
4256663	-144	232	-114
4256991	-168	222	-90
4257319	-241	196	-90
4257647	-249	198	-83
4257975	-206	171	-107
4258303	-76	150	-116
4258631	26	172	-117
4258959	17	255	-102
4259287	-92	282	-108
4259615	-179	301	-100
4259943	-259	278	-95
4260271	-311	263	-105
4260599	-317	166	-132
4260927	-242	269	-148
4261255	-163	247	-146
4261583	-73	260	-186
4261911	-37	274	-160
4262239	-80	256	-159
4262567	-185	185	-147
4262895	-180	276	-129
4263223	-146	260	-127
4263551	-98	205	-150
4263879	-44	251	-184
4264207	12	221	-159
4264535	27	239	-143
4264863	16	302	-141
4265191	-8	305	-133
4265519	3	284	-137
4265847	-8	352	-110
4266175	-8	332	-107
4266503	34	345	-122
4266831	77	315	-127
4267159	163	165	-136
4267487	231	225	-164
4267815	237	226	-177
4268143	260	266	-134
4268471	204	263	-120
4268799	79	267	-132
4269127	20	243	-125
4269455	-6	254	-119
4269783	16	174	-103
4270111	79	184	-131
4270439	84	180	-129
4270767	135	177	-129
4271095	147	170	-124
4271423	84	159	-132
4271751	131	182	-108
4272079	114	166	-113
4272407	33	177	-102
4272735	-19	157	-68
4273063	-37	133	-70
4273391	-36	143	-57
4273719	-49	171	-55
4274047	-54	181	-76
4274375	-50	205	-50
4274703	6	146	-43
4275031	-19	159	-38
4275359	-113	194	-8
4275687	-119	182	-10
4276015	-132	154	-30
4276343	-186	194	-20
4276671	-151	189	-5
4276999	-148	191	-14
4277327	-147	223	-35
4277655	-128	240	-45
4277983	-111	272	-49
4278311	27	249	-69
4278639	138	288	-66
4278967	206	267	-84
4279295	267	271	-89
4279623	256	224	-84
4279951	210	228	-45
4280279	119	189	-48
4280607	83	158	-34
4280935	118	253	-54
4281263	125	234	-72
4281591	154	231	-81
4281919	172	227	-90
4282247	186	223	-59
4282575	198	193	-61
4282903	167	152	-74
4283231	181	187	-90
4283559	163	189	-104
4283887	201	162	-96
4284215	204	194	-107
4284543	211	165	-111
4284871	163	164	-112
4285199	14	181	-98
4285527	-60	199	-91
4285855	29	230	-87
4286183	114	169	-135
4286511	270	109	-184
4286839	395	151	-224
4287167	407	180	-227
4287495	326	191	-235
4287823	225	157	-278
4288151	111	126	-262
4288479	18	195	-277
4288807	-19	168	-314
4289135	-26	174	-323
4289463	-40	189	-325
4289791	-44	158	-306
4290119	-57	182	-311
4290447	-171	188	-362
4290775	-183	163	-345
4291103	-269	218	-314
4291431	-335	156	-281
4291759	-330	216	-246
4292087	-350	175	-232
4292415	-377	165	-263
4292743	-346	169	-253
4293071	-313	132	-225
4293399	-283	137	-179
4293727	-257	124	-154
4294055	-261	115	-110
4294383	-285	75	-105
4294711	-284	69	-95
4295039	-288	80	-62
4295367	-294	97	-53
4295695	-217	77	-45
4296023	-131	49	-57
4296351	-38	58	-60
4296679	4	53	-48
4297007	2	105	-40
4297335	-39	76	-22
4297663	-126	93	-6
4297991	-133	38	1
4298319	-106	54	20
4298647	-17	55	13
4298975	19	53	-16
4299303	57	33	-30
4299631	42	14	-23
4299959	-14	128	-18
4300287	-122	145	-11
4300615	-79	43	-14
4300943	-4	91	5
4301271	-18	70	-12
4301599	-45	55	-18
4301927	-22	121	-10
4302255	-26	96	-19
4302583	-13	109	-3
4302911	4	107	9
4303239	-14	79	-12
4303567	-5	120	-18
4303895	41	92	-18
4304223	25	117	-29
4304551	-20	187	6
4304879	-109	267	22
4305207	-168	248	29
4305535	-208	277	51
4305863	-250	218	64
4306191	-211	188	58
4306519	-201	204	35
4306847	-166	233	4
4307175	-38	195	5
4307503	68	206	-7
4307831	35	213	-6
4308159	-116	248	-13
4308487	-196	226	-22
4308815	-208	240	-51
4309143	-185	230	-63
4309471	-165	237	-67
4309799	-227	256	-66
4310127	-194	222	-75
4310455	-132	168	-86
4310783	-164	251	-82
4311111	-140	271	-115
4311439	-97	167	-124
4311767	-67	264	-88
4312095	-154	237	-78
4312423	-204	200	-63
4312751	-281	277	-36
4313079	-390	221	-33
4313407	-376	170	-66
4313735	-307	191	-61
4314063	-200	143	-63
4314391	-101	122	-57
4314719	-48	158	-55
4315047	-92	145	-53
4315375	-225	143	-44
4315703	-214	109	-25
4316031	-188	113	-12
4316359	-242	182	8
4316687	-287	178	4
4317015	-221	101	-3
4317343	-146	124	1
4317671	-117	132	-4
4317999	-124	164	-6
4318327	-104	136	-1
4318655	-95	128	8
4318983	-152	103	11
4319311	-123	89	25
4319639	-122	85	10
4319967	-135	91	8
4320295	-78	91	9
4320623	-97	134	2
4320951	-93	80	23
4321279	-180	89	69
4321607	-274	98	69
4321935	-216	26	52
4322263	-126	15	50
4322591	-115	53	24
4322919	-90	100	41
4323247	-63	57	50
4323575	-73	52	70
4323903	-93	60	84
4324231	-156	20	65
4324559	-130	21	73
4324887	-134	41	89
4325215	-162	86	89
4325543	-181	64	88
4325871	-128	59	81
4326199	-22	48	90
4326527	-1	32	101
4326855	19	25	92
4327183	11	0	90
4327511	2	7	108
4327839	-7	57	119
4328167	-53	109	128
4328495	-16	57	143
4328823	-33	19	127
4329151	-47	9	143
4329479	-26	-10	134
4329807	-23	22	118
4330135	-14	34	118
4330463	23	31	106
4330791	43	-5	115
4331119	66	30	124
4331447	67	43	129
4331775	27	80	128
4332103	30	20	130
4332431	63	-25	125
4332759	52	-14	109
4333087	-20	28	123
4333415	-30	22	128
4333743	-68	53	111
4334071	-94	101	119
4334399	-63	55	99
4334727	10	53	95
4335055	53	42	95
4335383	84	34	75
4335711	102	38	72
4336039	72	24	65
4336367	19	50	75
4336695	-56	42	84
4337023	-89	32	88
4337351	-94	59	107
4337679	-108	58	111
4338007	-113	55	80
4338335	-93	37	74
4338663	-76	19	90
4338991	-13	82	111
4339319	-16	20	126
4339647	-29	-23	128
4339975	-18	-43	120
4340303	10	-66	117
4340631	-3	-37	119
4340959	16	-29	126
4341287	38	-29	151
4341615	13	-68	150
4341943	-62	-42	151
4342271	-126	-51	149
4342599	-86	8	153
4342927	-85	86	157
4343255	-82	22	155
4343583	-46	8	178
4343911	-112	-23	168
4344239	-107	25	187
4344567	-85	-23	170
4344895	-86	-53	168
4345223	-68	-52	175
4345551	-13	-53	189
4345879	-11	3	201
4346207	-68	-58	180
4346535	-106	-17	201
4346863	-188	-40	196
4347191	-245	-26	202
4347519	-269	-67	193
4347847	-271	-46	198
4348175	-262	-51	176
4348503	-225	-59	157
4348831	-182	-70	128
4349159	-178	-60	92
4349487	-178	-62	59
4349815	-189	-47	48
4350143	-259	6	44
4350471	-350	16	3
4350799	-365	22	-16
4351127	-387	51	12
4351455	-459	151	-17
4351783	-546	110	-4
4352111	-684	152	-25
4352439	-847	106	11
4352767	-892	44	109
4353095	-863	162	-19
4353423	-828	73	-14
4353751	-665	112	-39
4354079	-569	94	-37
4354407	-492	124	-31
4354735	-416	127	43
4355063	-458	163	-21
4355391	-497	210	-17
4355719	-581	188	-14
4356047	-514	165	-3
4356375	-441	210	3
4356703	-442	238	9
4357031	-407	237	17
4357359	-383	255	27
4357687	-451	220	18
4358015	-445	175	34
4358343	-399	228	28
4358671	-418	252	2
4358999	-309	155	-8
4359327	-135	132	-19
4359655	-105	69	-45
4359983	-101	42	-65
4360311	53	98	-71
4360639	173	147	-74
4360967	146	80	-67
4361295	-363	-39	-105
4361623	-139	-172	-104
4361951	210	-319	-114
4362279	524	-300	-117
4362607	561	-155	-59
4362935	547	-42	-21
4363263	540	40	28
4363591	573	8	34
4363919	620	-75	51
4364247	604	-99	53
4364575	626	-93	54
4364903	592	-112	42
4365231	679	-39	46
4365559	697	-40	62
4365887	649	-8	94
4366215	530	29	123
4366543	388	28	169
4366871	255	-20	186
4367199	232	-48	209
4367527	185	-63	183
4367855	186	-18	190
4368183	264	-49	207
4368511	208	-23	227
4368839	93	-39	226
4369167	-40	10	257
4369495	-170	13	270
4369823	-256	-7	254
4370151	-300	1	247
4370479	-305	-26	241
4370807	-242	-27	234
4371135	-244	-47	240
4371463	-226	-47	235
4371791	-250	-33	236
4372119	-283	-4	247
4372447	-353	-67	238
4372775	-444	-102	210
4373103	-454	-91	173
4373431	-339	-43	151
4373759	-312	11	184
4374087	-375	0	170
4374415	-428	76	181
4374743	-476	9	165
4375071	-500	-32	171
4375399	-482	49	167
4375727	-440	-23	160
4376055	-465	70	150
4376383	-518	-4	135
4376711	-524	111	136
4377039	-610	183	137
4377367	-708	171	135
4377695	-728	152	93
4378023	-620	176	73
4378351	-435	93	46
4378679	-311	26	20
4379007	-199	20	20
4379335	-180	86	25
4379663	-202	108	21
4379991	-206	87	23
4380319	-277	55	31
4380647	-298	60	22
4380975	-346	127	22
4381303	-313	145	10
4381631	-195	63	1
4381959	-166	-24	-28
4382287	-73	-110	-52
4382615	-80	-28	-78
4382943	-39	44	-81
4383271	-45	33	-46
4383599	-97	80	-24
4383927	-176	100	-6
4384255	-221	93	-18
4384583	-271	87	-18
4384911	-354	128	-14
4385239	-347	136	10
4385567	-326	104	-7
4385895	-307	113	-31
4386223	-238	12	-53
4386551	-137	23	-61
4386879	-82	35	-54
4387207	-87	107	-43
4387535	-129	148	-11
4387863	-275	83	12
4388191	-270	100	16
4388519	-261	116	-1
4388847	-170	140	-19
4389175	-112	120	-15
4389503	-78	132	-12
4389831	-96	119	-11
4390159	-207	134	-21
4390487	-116	153	-16
4390815	-114	150	-51
4391143	-85	144	-47
4391471	-65	154	-39
4391799	-41	175	-26
4392127	-73	161	-39
4392455	-75	184	-26
4392783	-101	203	-27
4393111	-57	188	-25
4393439	-65	174	-32
4393767	-73	195	-30
4394095	-85	229	-30
4394423	-132	230	-41
4394751	-133	240	-45
4395079	-151	261	-39
4395407	-164	252	-50
4395735	-175	251	-57
4396063	-170	269	-66
4396391	-148	273	-56
4396719	-90	236	-53
4397047	-48	246	-50
4397375	-13	284	-39
4397703	2	275	-29
4398031	22	236	-23
4398359	30	224	-16
4398687	0	223	-24
4399015	-25	213	-23
4399343	8	229	-12
4399671	22	249	-9
4399999	37	239	-2
4400327	69	226	-13
4400655	19	229	-11
4400983	-25	193	-19
4401311	-69	156	-19
4401639	6	195	-21
4401967	-70	157	-24
4402295	-50	152	-26
4402623	24	141	-30
4402951	-46	113	-38
4403279	-5	183	-66
4403607	15	164	-53
4403935	-21	164	-40
4404263	-40	184	-35
4404591	-62	198	-22
4404919	-65	186	-24
4405247	-76	165	-38
4405575	-74	136	-32
4405903	-30	148	-33
4406231	10	142	-30
4406559	23	161	-36
4406887	-26	149	-38
4407215	-73	160	-28
4407543	-42	169	-28
4407871	-4	168	-12
4408199	0	118	-18
4408527	-24	115	-28
4408855	-42	117	-36
4409183	14	121	-31
4409511	55	118	-32
4409839	69	124	-28
4410167	37	153	-17
4410495	13	163	-14
4410823	16	174	-25
4411151	-41	169	-18
4411479	-54	181	-27
4411807	-42	174	-26
4412135	-30	180	-40
4412463	-21	167	-34
4412791	-31	175	-26
4413119	-43	167	-40
4413447	-49	159	-33
4413775	-45	181	-36
4414103	-61	180	-34
4414431	-59	169	-25
4414759	-48	180	-19
4415087	-51	174	-21
4415415	-90	183	-21
4415743	-109	183	-17
4416071	-110	172	-29
4416399	-104	170	-16
4416727	-90	167	-29
4417055	-70	176	-28
4417383	-50	176	-29
4417711	-49	176	-35
4418039	-31	185	-20
4418367	-19	202	-28
4418695	-36	204	6
4419023	-12	182	7
4419351	-4	155	-6
4419679	-43	114	-8
4420007	-77	159	-28
4420335	-5	149	-22
4420663	-1	148	-9
4420991	-13	178	29
4421319	-61	183	33
4421647	-108	166	21
4421975	-78	131	21
4422303	-56	137	29
4422631	-35	152	32
4422959	-29	142	32
4423287	-106	109	19
4423615	-153	150	29
4423943	-129	187	30
4424271	-130	184	31
4424599	-126	186	39
4424927	-148	179	37
4425255	-142	183	43
4425583	-58	137	25
4425911	-190	114	38
4426239	-47	229	24
4426567	-105	156	0
4426895	-70	145	-16
4427223	-13	109	10
4427551	-56	170	6
4427879	-34	196	-3
4428207	-99	150	-7
4428535	-10	171	0
4428863	-69	105	-3
4429191	-76	173	-7
4429519	-96	134	-30
4429847	-14	113	-36
4430175	-2	138	-22
4430503	38	128	-24
4430831	43	143	-7
4431159	-6	142	-18
4431487	5	134	-10
4431815	-17	146	4
4432143	-69	153	-25
4432471	-103	144	-41
4432799	-70	143	-39
4433127	-61	125	-44
4433455	-119	115	-54
4433783	-110	181	-45
4434111	-80	174	-40
4434439	-61	169	-35
4434767	-51	125	-44
4435095	-38	87	-51
4435423	-46	159	-43
4435751	22	122	-51
4436079	81	147	-52
4436407	56	158	-51
4436735	20	202	-17
4437063	14	208	-10
4437391	-64	198	-14
4437719	17	187	-8
4438047	-110	144	-14
4438375	-22	262	-13
4438703	-98	159	-46
4439031	-16	173	-50
4439359	25	200	-33
4439687	33	187	-50
4440015	-13	183	-54
4440343	20	244	-49
4440671	-11	210	-47
4440999	-47	159	-44
4441327	-71	238	-25
4441655	-60	241	-30
4441983	-84	200	-31
4442311	-63	192	-38
4442639	-65	196	-37
4442967	2	158	-51
4443295	34	165	-39
4443623	3	175	-40
4443951	-10	205	-31
4444279	-46	178	-18
4444607	-70	201	5
4444935	-59	220	-6
4445263	-38	213	-8
4445591	7	191	0
4445919	44	201	0
4446247	44	207	5
4446575	20	163	-7
4446903	63	165	-3
4447231	85	164	-12
4447559	98	144	-10
4447887	135	150	9
4448215	124	180	32
4448543	114	198	29
4448871	106	199	39
4449199	141	166	36
4449527	177	163	50
4449855	185	168	59
4450183	154	144	49
4450511	162	141	66
4450839	157	155	61
4451167	132	151	62
4451495	136	178	62
4451823	165	189	79
4452151	132	172	79
4452479	15	156	65
4452807	41	181	76
4453135	77	174	80
4453463	108	187	82
4453791	67	160	62
4454119	30	176	68
4454447	-10	174	49
4454775	-46	191	55
4455103	-102	214	52
4455431	-135	231	39
4455759	-183	237	24
4456087	-176	231	9
4456415	-196	204	-26
4456743	-216	228	-52
4457071	-212	251	-73
4457399	-190	217	-93
4457727	-207	189	-138
4458055	-264	201	-149
4458383	-266	255	-153
4458711	-267	237	-174
4459039	-247	222	-165
4459367	-253	216	-184
4459695	-264	248	-184
4460023	-272	268	-171
4460351	-334	234	-175
4460679	-175	258	-164
4461007	-325	169	-161
4461335	-294	185	-156
4461663	-297	176	-119
4461991	-326	191	-118
4462319	-332	189	-110
4462647	-354	110	-110
4462975	-313	128	-115
4463303	-255	95	-126
4463631	-274	61	-138
4463959	-415	46	-148
4464287	-332	10	-165
4464615	-226	-39	-172
4464943	-188	-25	-145
4465271	-302	73	-119
4465599	-398	22	-151
4465927	-462	-52	-162
4466255	-381	50	-181
4466583	-296	130	-64
4466911	-361	173	-135
4467239	-445	175	-131
4467567	-481	155	-135
4467895	-346	127	-147
4468223	-218	73	-178
4468551	-159	88	-210
4468879	-93	106	-133
4469207	-39	119	-193
4469535	26	183	-176
4469863	44	225	-173
4470191	-89	281	-165
4470519	-248	292	-128
4470847	-391	330	-116
4471175	-487	322	-84
4471503	-533	298	-80
4471831	-481	310	-102
4472159	-402	260	-147
4472487	-269	314	-160
4472815	-185	323	-153
4473143	-152	337	-169
4473471	-190	306	-157
4473799	-261	273	-134
4474127	-380	240	-129
4474455	-389	272	-117
4474783	-450	212	-136
4475111	-536	241	-113
4475439	-426	244	-143
4475767	-334	119	-1
4476095	-389	169	-168
4476423	-353	209	-115
4476751	-360	252	-122
4477079	-383	200	-110
4477407	-332	203	-101
4477735	-309	193	-102
4478063	-210	143	-128
4478391	-92	102	-122
4478719	10	83	-148
4479047	69	73	-147
4479375	82	145	-118
4479703	0	161	-105
4480031	-117	283	-64
4480359	-272	214	-57
4480687	-269	195	-52
4481015	-243	194	-79
4481343	-181	122	-83
4481671	-61	97	-110
4481999	50	114	-130
4482327	45	137	-129
4482655	14	225	-96
4482983	-7	269	-44
4483311	-125	231	-38
4483639	-184	247	-8
4483967	-109	199	-6
4484295	29	148	7
4484623	178	170	-4
4484951	340	214	8
4485279	502	220	29
4485607	475	169	45
4485935	441	157	53
4486263	389	63	75
4486591	327	99	88
4486919	447	110	105
4487247	368	80	100
4487575	455	148	112
4487903	335	126	134
4488231	344	174	128
4488559	247	131	145
4488887	190	189	153
4489215	196	186	148
4489543	75	173	157
4489871	120	205	157
4490199	133	156	142
4490527	80	120	124
4490855	36	97	97
4491183	66	127	85
4491511	128	150	75
4491839	151	130	85
4492167	148	147	76
4492495	153	141	68
4492823	79	140	71
4493151	-22	147	45
4493479	-76	116	56
4493807	-91	135	62
4494135	-101	169	63
4494463	-85	162	49
4494791	19	142	42
4495119	86	113	35
4495447	92	85	30
4495775	91	99	33
4496103	86	102	41
4496431	-40	118	35
4496759	-85	83	54
4497087	-119	86	50
4497415	-271	32	14
4497743	-328	58	-5
4498071	-199	19	-16
4498399	-127	26	-5
4498727	-57	48	-12
4499055	-70	17	-19
4499383	-210	-111	-79
4499711	-188	-121	-100
4500039	22	-161	-95
4500367	-25	-169	-99
4500695	2	1	-65
4501023	-13	19	-53
4501351	-49	13	-30
4501679	-75	-19	-16
4502007	-110	-53	-30
4502335	-96	-3	-34
4502663	4	29	-31
4502991	-81	15	-17
4503319	-7	40	-7
4503647	-79	26	-3
4503975	-102	-25	-33
4504303	-209	-60	-13
4504631	-242	70	1
4504959	-195	98	-19
4505287	-278	61	-1
4505615	-297	121	2
4505943	-396	112	8
4506271	-428	143	13
4506599	-420	132	15
4506927	-460	106	-9
4507255	-381	170	-10
4507583	-344	137	-39
4507911	-292	94	-62
4508239	-213	106	-71
4508567	-184	93	-67
4508895	-172	88	-79
4509223	-179	82	-79
4509551	-199	68	-70
4509879	-213	81	-61
4510207	-270	118	-56
4510535	-282	198	-37
4510863	-394	135	-12
4511191	-314	147	-7
4511519	-363	174	-12
4511847	-306	142	-3
4512175	-271	95	-15
4512503	-233	171	-17
4512831	-179	60	-18
4513159	-62	72	-26
4513487	-115	96	-34
4513815	-85	153	-19
4514143	-78	177	-16
4514471	-188	135	6
4514799	-183	134	-11
4515127	-146	49	-22
4515455	-153	26	-42
4515783	-11	97	-48
4516111	-24	108	-30
4516439	-11	165	-19
4516767	-91	181	-18
4517095	-184	177	-9
4517423	-146	197	-7
4517751	-223	133	-13
4518079	-116	149	-15
4518407	-111	146	-32
4518735	-115	213	-21
4519063	-103	229	-24
4519391	-142	226	-14
4519719	-167	233	-4
4520047	-196	210	-5
4520375	-206	204	-2
4520703	-120	172	-36
4521031	-79	136	-41
4521359	-65	149	-59
4521687	-14	166	-48
4522015	-46	177	-53
4522343	-104	185	-31
4522671	-118	211	-15
4522999	-129	207	-24
4523327	-95	202	-31
4523655	-73	131	-45
4523983	-47	131	-55
4524311	13	166	-71
4524639	45	199	-66
4524967	53	175	-70
4525295	16	191	-66
4525623	-25	184	-65
4525951	-38	188	-49
4526279	-28	168	-56
4526607	10	128	-80
4526935	50	132	-71
4527263	71	167	-59
4527591	109	173	-70
4527919	109	170	-60
4528247	91	132	-51
4528575	61	156	-71
4528903	13	207	-60
4529231	19	184	-53
4529559	-34	144	-51
4529887	-29	204	-43
4530215	-46	213	-58
4530543	-31	201	-65
4530871	-63	185	-55
4531199	-76	217	-20
4531527	-151	247	-47
4531855	-195	194	-49
4532183	-202	193	-59
4532511	-212	214	-59
4532839	-214	204	-74
4533167	-199	188	-93
4533495	-197	219	-93
4533823	-203	213	-99
4534151	-195	221	-89
4534479	-209	207	-96
4534807	-204	203	-97
4535135	-194	251	-104
4535463	-248	254	-125
4535791	-181	211	-100
4536119	-153	207	-106
4536447	-114	240	-102
4536775	-21	234	-101
4537103	25	269	-105
4537431	39	255	-106
4537759	86	251	-89
4538087	130	221	-79
4538415	167	242	-85
4538743	216	233	-112
4539071	290	230	-115
4539399	373	188	-102
4539727	466	232	-85
4540055	513	290	-87
4540383	545	291	-57
4540711	511	141	-64
4541039	560	252	-63
4541367	325	209	-59
4541695	461	291	-50
4542023	342	231	-56
4542351	377	314	-69
4542679	428	272	-75
4543007	404	242	-78
4543335	440	275	-68
4543663	473	248	-69
4543991	525	186	-102
4544319	480	189	-123
4544647	483	162	-117
4544975	473	216	-113
4545303	477	296	-95
4545631	429	275	-70
4545959	401	256	-49
4546287	389	262	-59
4546615	445	273	-47
4546943	455	259	-58
4547271	515	229	-50
4547599	597	258	-35
4547927	605	242	-24
4548255	556	231	-8
4548583	519	250	13
4548911	393	201	15
4549239	343	232	15
4549567	288	194	6
4549895	244	202	7
4550223	256	222	18
4550551	198	342	12
4550879	143	299	12
4551207	147	209	19
4551535	155	205	7
4551863	99	123	8
4552191	153	118	-19
4552519	167	197	-16
4552847	124	220	-20
4553175	31	295	-4
4553503	-81	313	-110
4553831	-177	269	22
4554159	-232	239	18
4554487	-292	170	6
4554815	-255	224	12
4555143	-198	270	12
4555471	-219	206	59
4555799	-276	102	26
4556127	-355	65	43
4556455	-379	89	20
4556783	-323	81	-11
4557111	-259	103	-20
4557439	-174	105	-6
4557767	8	133	-65
4558095	6	78	-6
4558423	-88	107	44
4558751	-216	25	88
4559079	-284	-25	189
4559407	-280	-56	128
4559735	-308	-116	128
4560063	-188	-162	151
4560391	-212	-210	137
4560719	-414	-117	155
4561047	-542	-32	144
4561375	-746	48	192
4561703	-980	-19	195
4562031	-1524	-82	265
4562359	-1789	8	57
4562687	-1784	-4	216
4563015	-1751	-87	143
4563343	-1785	-62	115
4563671	-1899	43	45
4563999	-2055	259	98
4564327	-2251	336	49
4564655	-2413	237	23
4564983	-2612	235	4
4565311	-2933	260	33
4565639	-3293	395	73
4565967	-3638	536	135
4566295	-3853	496	123
4566623	-3928	513	112
4566951	-4080	499	134
4567279	-4293	506	99
4567607	-4356	757	48
4567935	-4202	852	47
4568263	-3988	708	-52
4568591	-3914	602	-73
4568919	-3939	669	-88
4569247	-4178	680	-26
4569575	-4554	576	95
4569903	-5066	311	179
4570231	-6093	364	267
4570559	-7044	154	248
4570887	-7806	321	151
4571215	-8149	176	40
4571543	-7579	-696	213
4571871	-6377	-1901	552
4572199	-5143	-2758	881
4572527	-4785	-3083	975
4572855	-5239	-2969	991
4573183	-5794	-2422	1124
4573511	-6000	-1980	1299
4573839	-5774	-1857	1459
4574167	-5378	-2235	1559
4574495	-5005	-2624	1997
4574823	-4861	-2936	2104
4575151	-4721	-2987	2062
4575479	-4391	-2890	2328
4575807	-4203	-2822	2153
4576135	-3815	-2649	2413
4576463	-3618	-2382	2569
4576791	-3482	-2258	2622
4577119	-3378	-2223	2805
4577447	-3258	-2062	2938
4577775	-3232	-1866	3059
4578103	-3208	-1810	3227
4578431	-3149	-1746	3226
4578759	-3104	-1524	3187
4579087	-3066	-1289	3088
4579415	-2916	-1148	2966
4579743	-2678	-1047	2967
4580071	-2255	-978	2967
4580399	-2019	-892	2771
4580727	-1607	-792	2983
4581055	-1346	-807	3052
4581383	-1291	-648	2829
4581711	-871	-285	3301
4582039	-1084	235	3315
4582367	-894	459	3750
4582695	-1245	902	2951
4583023	-2312	2713	2046
4583351	-1263	3326	557
4583679	725	1651	-693
4584007	2024	110	-1088
4584335	2858	786	-515
4584663	3038	2720	808
4584991	2780	4764	1542
4585319	2345	5807	1701
4585647	2856	4173	1611
4585975	4058	83	1523
4586303	4610	-1746	600
4586631	4962	955	835
4586959	4241	2411	1382
4587287	2438	2499	1374
4587615	513	2462	1019
4587943	-1352	2173	520
4588271	-1726	2139	405
4588599	-1253	2355	324
4588927	-1251	2292	271
4589255	-1194	2184	154
4589583	-553	2171	13
4589911	347	1910	37
4590239	988	1918	42
4590567	981	1916	130
4590895	546	2104	303
4591223	1	1996	408
4591551	-386	1867	496
4591879	-878	1765	597
4592207	-1156	1513	753
4592535	-1315	1212	822
4592863	-1267	1207	888
4593191	-1172	1139	937
4593519	-905	947	987
4593847	-567	1012	1059
4594175	-470	1026	1058
4594503	-554	941	1023
4594831	-832	951	983
4595159	-1022	937	931
4595487	-1082	894	882
4595815	-1289	1038	901
4596143	-1326	858	852
4596471	-1296	891	832
4596799	-1248	971	771
4597127	-1181	894	669
4597455	-1034	1043	639
4597783	-935	1078	634
4598111	-864	980	597
4598439	-886	953	590
4598767	-944	998	604
4599095	-949	1018	657
4599423	-956	1032	590
4599751	-1044	1049	661
4600079	-1216	1095	704
4600407	-1301	1217	722
4600735	-1388	1166	802
4601063	-1447	1157	966
4601391	-1612	1075	921
4601719	-1627	986	1076
4602047	-1598	948	1209
4602375	-1654	977	1261
4602703	-1683	1046	1646
4603031	-1866	1195	1594
4603359	-1926	1169	1806
4603687	-2176	1024	2051
4604015	-2463	825	2205
4604343	-2512	588	2380
4604671	-2445	619	2499
4604999	-2405	662	2720
4605327	-2327	773	2851
4605655	-2402	833	3114
4605983	-2785	976	3395
4606311	-3116	926	3676
4606639	-3515	887	3985
4606967	-3557	687	4296
4607295	-3723	794	4646
4607623	-3773	1400	5137
4607951	-4368	2141	5618
4608279	-5554	2887	6104
4608607	-6814	3007	6605
4608935	-8104	2889	6821
4609263	-9092	2766	7378
4609591	-9506	2573	7619
4609919	-9185	2424	7805
4610247	-8561	2099	7925
4610575	-8061	1959	8171
4610903	-7923	2146	8261
4611231	-8164	3153	8548
4611559	-9195	4487	8739
4611887	-10944	5180	8482
4612215	-11840	4335	7921
4612543	-12135	3292	7162
4612871	-12445	3053	6216
4613199	-12910	3130	4939
4613527	-12888	3953	3674
4613855	-12027	4832	2342
4614183	-10320	5241	1068
4614511	-9690	5410	81
4614839	-10096	5395	-613
4615167	-11165	5144	-1599
4615495	-11921	4851	-2268
4615823	-11962	4808	-3477
4616151	-10816	5030	-4728
4616479	-8816	4884	-5537
4616807	-6365	4870	-6446
4617135	-3861	4758	-7305
4617463	-2383	4741	-8193
4617791	-1852	4863	-8905
4618119	-1557	5193	-9490
4618447	-1057	5327	-9449
4618775	-288	5054	-9455
4619103	518	4567	-9568
4619431	1654	3972	-9537
4619759	2836	3345	-9170
4620087	3869	2574	-8813
4620415	4337	2159	-8181
4620743	3667	2122	-7897
4621071	2506	1796	-7249
4621399	1373	1235	-6412
4621727	730	780	-5619
4622055	881	546	-4917
4622383	1543	403	-4097
4622711	2543	350	-3098
4623039	3309	364	-1930
4623367	3098	-678	-896
4623695	3396	-2345	609
4624023	7482	-2955	2476
4624351	10959	-854	4164
4624679	7141	1189	4759
4625007	1378	2667	3828
4625335	-1646	3277	2095
4625663	-2404	1380	1001
4625991	-1700	-264	1449
4626319	-2586	265	1864
4626647	-4228	1431	2155
4626975	-3682	1163	1485
4627303	-1494	-343	986
4627631	317	-435	670
4627959	1017	559	547
4628287	1220	1119	595
4628615	1551	1300	718
4628943	812	1036	477
4629271	-34	1176	465
4629599	-804	1113	695
4629927	-1292	687	771
4630255	-1104	554	799
4630583	-757	741	884
4630911	-450	915	851
4631239	-381	849	876
4631567	-505	522	871
4631895	-657	336	957
4632223	-902	414	842
4632551	-1078	310	856
4632879	-1178	156	809
4633207	-1384	189	958
4633535	-1485	101	972
4633863	-1403	173	1050
4634191	-1341	186	839
4634519	-1265	70	1124
4634847	-1354	101	946
4635175	-1266	39	982
4635503	-986	-82	987
4635831	-847	-76	950
4636159	-724	-3	912
4636487	-675	43	859
4636815	-448	50	839
4637143	-267	58	876
4637471	-45	52	913
4637799	108	114	972
4638127	165	188	1045
4638455	148	242	1123
4638783	76	239	1244
4639111	-28	108	1359
4639439	-190	110	1448
4639767	-387	58	1526
4640095	-553	74	1649
4640423	-692	67	1798
4640751	-836	-7	1940
4641079	-1014	-3	2103
4641407	-1273	-16	2282
4641735	-1570	-136	2485
4642063	-1838	-213	2687
4642391	-2101	-436	2886
4642719	-2221	-559	3119
4643047	-2272	-744	3330
4643375	-2241	-917	3588
4643703	-2226	-701	3966
4644031	-2066	-607	4425
4644359	-2054	-690	4835
4644687	-2256	-685	5248
4645015	-2968	-420	5686
4645343	-3563	33	5898
4645671	-3683	-181	6621
4645999	-3385	-540	6931
4646327	-3017	-583	7445
4646655	-3171	-540	7509
4646983	-2890	-1025	8191
4647311	-2722	-1583	8040
4647639	-2460	-1223	7896
4647967	-2540	-595	7669
4648295	-2566	-255	7013
4648623	-3097	-37	6238
4648951	-3210	-153	5442
4649279	-2342	-638	4638
4649607	-2496	-259	3577
4649935	-3655	925	2399
4650263	-4469	1666	1019
4650591	-4464	1825	-143
4650919	-4722	1863	-833
4651247	-5065	2044	-1714
4651575	-6264	2238	-2318
4651903	-7697	2251	-2989
4652231	-8882	2494	-3956
4652559	-9174	2793	-5030
4652887	-8542	3017	-5654
4653215	-7365	3062	-6524
4653543	-5978	3088	-7473
4653871	-4646	3218	-8245
4654199	-3500	3520	-8932
4654527	-2341	3771	-9786
4654855	-1217	3846	-10411
4655183	-463	3958	-10922
4655511	-40	4211	-11293
4655839	248	4266	-11535
4656167	352	4204	-11597
4656495	522	4233	-11380
4656823	369	4186	-11397
4657151	355	4199	-11155
4657479	276	3961	-10937
4657807	168	3771	-10676
4658135	-488	3854	-10335
4658463	-1114	3954	-9980
4658791	-1323	3792	-9040
4659119	-1520	3492	-8507
4659447	-1669	3050	-7534
4659775	-2221	2848	-6881
4660103	-3076	2958	-6022
4660431	-4172	3036	-5132
4660759	-5091	3105	-4423
4661087	-5439	2955	-3409
4661415	-5761	2651	-2379
4661743	-6090	2446	-1326
4662071	-6573	2278	-355
4662399	-7190	1945	465
4662727	-7371	1588	1153
4663055	-7117	1351	1791
4663383	-6651	1081	2372
4663711	-4923	658	3128
4664039	-3873	385	3327
4664367	-2554	-139	3553
4664695	-1312	-803	3706
4665023	-111	-1495	3769
4665351	1694	-2114	3504
4665679	2113	-1427	2578
4666007	2999	1241	1644
4666335	2746	1761	885
4666663	5777	-1652	1645
4666991	8932	-3421	2431
4667319	10644	-3966	2813
4667647	10783	-3474	3154
4667975	8635	-885	3587
4668303	5677	1756	4188
4668631	2815	3349	4575
4668959	389	3178	4188
4669287	-575	989	3988
4669615	-1144	-1434	3584
4669943	-2357	-1391	3146
4670271	-3745	277	2934
4670599	-3837	437	2669
4670927	-2511	-270	2625
4671255	-829	-663	2466
4671583	332	-351	2200
4671911	1708	187	1992
4672239	2731	239	1884
4672567	2182	277	2031
4672895	1214	536	2170
4673223	39	657	2246
4673551	-1234	761	2419
4673879	-2384	458	2284
4674207	-3203	568	2256
4674535	-3377	470	2103
4674863	-2988	413	1865
4675191	-2084	480	1657
4675519	-1304	404	1365
4675847	-858	646	1114
4676175	-675	641	956
4676503	-862	423	845
4676831	-1288	478	762
4677159	-1687	551	813
4677487	-2081	513	756
4677815	-2437	671	906
4678143	-3087	587	982
4678471	-3416	498	1039
4678799	-3734	604	1087
4679127	-3859	477	1218
4679455	-3712	332	1301
4679783	-3649	256	1378
4680111	-3473	169	1411
4680439	-3035	166	1465
4680767	-2519	270	1471
4681095	-1990	261	1448
4681423	-1472	251	1559
4681751	-996	295	1599
4682079	-710	170	1608
4682407	-520	342	1653
4682735	-418	264	1685
4683063	-476	249	1747
4683391	-641	327	1750
4683719	-915	193	1768
4684047	-1057	155	1777
4684375	-1266	-13	1786
4684703	-1377	-50	1814
4685031	-1346	-3	1974
4685359	-1392	34	2073
4685687	-1504	91	2240
4686015	-1678	129	2340
4686343	-1941	42	2456
4686671	-2134	118	2510
4686999	-2421	16	2623
4687327	-2584	61	2645
4687655	-2676	43	2730
4687983	-2769	216	2835
4688311	-3117	464	2888
4688639	-3558	475	2942
4688967	-3924	301	3012
4689295	-4075	173	2980
4689623	-3937	59	2872
4689951	-3577	4	2802
4690279	-3098	-33	2752
4690607	-2686	97	2735
4690935	-2363	368	2735
4691263	-2455	295	2767
4691591	-2705	291	2796
4691919	-3192	236	2739
4692247	-3395	175	2778
4692575	-3368	177	2804
4692903	-3219	55	2844
4693231	-3136	-194	2775
4693559	-2970	-581	2732
4693887	-2641	-463	2680
4694215	-1935	-153	2602
4694543	-1394	-40	2673
4694871	-1306	104	2773
4695199	-1613	104	2796
4695527	-2077	-14	2854
4695855	-2382	10	2978
4696183	-2415	56	2970
4696511	-2345	170	3051
4696839	-2267	431	3198
4697167	-2490	704	3403
4697495	-3110	880	3630
4697823	-4689	1237	4103
4698151	-5517	1388	4268
4698479	-6434	1551	4438
4698807	-7092	1807	4512
4699135	-7854	2323	4623
4699463	-8567	2830	4780
4699791	-9075	3286	4956
4700119	-8996	3619	5038
4700447	-9346	4099	5058
4700775	-9752	4597	4859
4701103	-10376	4901	4417
4701431	-11468	5663	3856
4701759	-13636	6302	3020
4702087	-15896	6635	2332
4702415	-18109	6632	1571
4702743	-20557	6029	1067
4703071	-23737	5609	437
4703399	-26855	6970	288
4703727	-28471	6263	-975
4704055	-26469	5993	-2173
4704383	-21614	6262	-3371
4704711	-14958	6466	-4410
4705039	-7915	6265	-5594
4705367	-1635	5467	-6886
4705695	2421	5338	-7822
4706023	3431	6880	-9015
4706351	2443	6543	-9725
4706679	1554	7542	-10055
4707007	1174	7384	-10401
4707335	626	6538	-10437
4707663	-966	5160	-10365
4707991	-3648	4084	-10087
4708319	-6751	3801	-10037
4708647	-8229	3700	-9456
4708975	-8879	3246	-9093
4709303	-9132	3220	-8643
4709631	-9888	2918	-8000
4709959	-10912	2543	-7147
4710287	-11966	2013	-6328
4710615	-12066	752	-5686
4710943	-11612	-373	-5254
4711271	-10597	-1465	-4694
4711599	-9398	-1903	-4346
4711927	-8001	-1933	-4017
4712255	-6554	-2376	-3572
4712583	-5237	-3188	-3261
4712911	-4524	-3798	-2897
4713239	-3924	-4149	-2479
4713567	-3004	-4900	-1923
4713895	-2064	-5673	-1387
4714223	-828	-6371	-994
4714551	84	-7085	-766
4714879	925	-7758	-755
4715207	1463	-7505	-692
4715535	2138	-7368	-765
4715863	3141	-7461	-845
4716191	3674	-7447	-1032
4716519	3481	-6527	-870
4716847	2802	-4499	-630
4717175	3433	-3625	-425
4717503	3902	-4657	-273
4717831	4149	-5346	-15
4718159	3327	-5139	224
4718487	1763	-4453	236
4718815	-143	-3525	178
4719143	-1720	-2338	93
4719471	-2627	-1514	7
4719799	-3091	-1161	39
4720127	-3135	-966	184
4720455	-3228	-608	473
4720783	-3400	-232	703
4721111	-3740	-254	998
4721439	-4035	-519	1262
4721767	-3945	-258	1556
4722095	-3525	223	1932
4722423	-3382	359	2252
4722751	-3462	299	2475
4723079	-3304	273	2626
4723407	-3192	493	2824
4723735	-2763	796	2986
4724063	-2375	1065	3060
4724391	-2069	930	3276
4724719	-1713	819	3616
4725047	-1556	782	3777
4725375	-1483	622	3892
4725703	-983	549	3940
4726031	-145	431	3887
4726359	679	-90	3929
4726687	1526	2	3711
4727015	2307	-83	3451
4727343	3068	-383	3343
4727671	3784	-520	3191
4727999	4382	-520	3040
4728327	4868	-547	2938
4728655	5257	-864	2759
4728983	5658	-1442	2656
4729311	5595	-1473	2509
4729639	5364	-1656	2418
4729967	5010	-1473	2199
4730295	4975	-1166	2024
4730623	5518	-1382	1961
4730951	6364	-1587	1919
4731279	7416	-2044	1574
4731607	7444	-2751	1148
4731935	7027	-3273	212
4732263	5756	-1507	-603
4732591	6003	-1621	-1401
4732919	8603	-2237	-1237
4733247	11706	-955	-269
4733575	12800	1205	1327
4733903	10767	1204	1526
4734231	7863	1217	1073
4734559	4849	2099	1362
4734887	2505	2426	1537
4735215	720	1783	1624
4735543	-621	1787	1696
4735871	-1884	2582	1848
4736199	-2706	3209	1104
4736527	-1799	4062	1025
4736855	-79	4617	800
4737183	834	5205	832
4737511	781	5553	776
4737839	135	5011	514
4738167	-361	4794	442
4738495	-143	4690	-85
4738823	518	3961	-307
4739151	1211	3256	-349
4739479	1346	3165	-382
4739807	1235	3266	-389
4740135	1172	3593	-347
4740463	867	3516	-401
4740791	581	3392	-418
4741119	554	3305	-494
4741447	815	3032	-729
4741775	1445	2785	-946
4742103	1734	2618	-1058
4742431	1856	2613	-1110
4742759	1943	2606	-1135
4743087	1687	2573	-1232
4743415	1251	2493	-1190
4743743	939	2319	-1128
4744071	564	2619	-1123
4744399	261	2092	-1159
4744727	298	1829	-1194
4745055	608	1762	-1283
4745383	1132	1610	-1469
4745711	1560	1825	-1551
4746039	1484	1574	-1637
4746367	1399	1582	-1630
4746695	1438	1684	-1579
4747023	1459	1733	-1488
4747351	1351	1578	-1422
4747679	1318	1393	-1354
4748007	1361	1429	-1349
4748335	1483	1452	-1352
4748663	1556	1380	-1324
4748991	1428	1288	-1233
4749319	1001	983	-1217
4749647	847	847	-1192
4749975	801	879	-1107
4750303	531	860	-994
4750631	81	1206	-889
4750959	-175	989	-814
4751287	-203	515	-767
4751615	-236	280	-668
4751943	-139	393	-680
4752271	-82	329	-722
4752599	-127	239	-741
4752927	-165	326	-727
4753255	3	470	-749
4753583	-3	382	-854
4753911	53	365	-894
4754239	270	446	-864
4754567	530	402	-909
4754895	534	192	-971
4755223	715	112	-1042
4755551	978	291	-1122
4755879	1141	358	-1208
4756207	1058	463	-1286
4756535	996	645	-1352
4756863	1159	763	-1393
4757191	1183	776	-1383
4757519	911	971	-1419
4757847	788	694	-1372
4758175	822	533	-1318
4758503	837	335	-1389
4758831	914	243	-1473
4759159	1085	260	-1579
4759487	1319	482	-1687
4759815	1307	995	-1781
4760143	1164	1162	-1803
4760471	470	1603	-1594
4760799	-230	1195	-1630
4761127	-695	766	-1575
4761455	-1123	426	-1588
4761783	-1063	-20	-1741
4762111	-574	-245	-1950
4762439	-245	111	-2131
4762767	-85	536	-2325
4763095	-34	904	-2398
4763423	-152	1139	-2447
4763751	-399	1263	-2320
4764079	-741	1091	-2200
4764407	-1107	674	-2016
4764735	-1404	355	-1815
4765063	-1848	221	-1659
4765391	-1953	378	-1505
4765719	-1648	420	-1420
4766047	-678	85	-1257
4766375	-212	350	-1105
4766703	104	88	-960
4767031	484	-129	-773
4767359	878	-29	-436
4767687	1746	-293	-161
4768015	3002	-1179	132
4768343	3991	-1752	488
4768671	3926	-1833	833
4768999	2735	-1886	1088
4769327	996	-1943	1319
4769655	-849	-1673	1500
4769983	-2437	-1263	1677
4770311	-3450	-1202	1816
4770639	-3920	-1579	1902
4770967	-3958	-2127	1858
4771295	-3687	-2601	1793
4771623	-3367	-2445	1765
4771951	-3334	-2013	1775
4772279	-3387	-1652	1897
4772607	-3390	-1349	2083
4772935	-3635	-1055	2266
4773263	-3997	-977	2327
4773591	-4256	-1098	2326
4773919	-4287	-1038	2286
4774247	-4084	-858	2226
4774575	-3604	-788	2099
4774903	-3012	-813	1928
4775231	-2243	-563	1710
4775559	-1634	-153	1473
4775887	-1156	96	1222
4776215	-652	200	1059
4776543	-334	309	884
4776871	-203	378	747
4777199	-243	420	620
4777527	-193	567	525
4777855	-24	634	426
4778183	212	651	335
4778511	439	701	302
4778839	645	892	301
4779167	765	880	298
4779495	910	831	316
4779823	944	715	285
4780151	1035	954	130
4780479	724	1626	-141
4780807	-254	2262	-497
4781135	-899	2336	-759
4781463	-887	2378	-769
4781791	-523	1985	-624
4782119	528	895	-229
4782447	1810	-60	248
4782775	2829	-82	562
4783103	3197	234	682
4783431	3283	420	647
4783759	3522	386	638
4784087	3599	565	523
4784415	3498	348	449
4784743	2901	529	351
4785071	2074	918	364
4785399	1090	1639	544
4785727	-64	1958	710
4786055	-1052	1960	775
4786383	-1112	1865	768
4786711	-581	1465	661
4787039	468	909	424
4787367	1596	816	143
4787695	2403	1092	-77
4788023	3148	939	-299
4788351	3465	989	-535
4788679	3457	1071	-523
4789007	3077	1217	-505
4789335	2349	1274	-329
4789663	1606	1379	-186
4789991	907	1344	48
4790319	170	1344	112
4790647	-321	1284	85
4790975	-369	957	97
4791303	-83	819	45
4791631	138	801	5
4791959	279	887	-49
4792287	422	888	-81
4792615	457	786	-19
4792943	276	707	30
4793271	0	616	71
4793599	-313	508	131
4793927	-526	329	141
4794255	-816	243	155
4794583	-1002	406	133
4794911	-1109	450	195
4795239	-1357	158	195
4795567	-1355	19	171
4795895	-901	128	104
4796223	-636	2	140
4796551	-228	36	85
4796879	115	250	51
4797207	425	-126	77
4797535	607	-333	194
4797863	640	29	73
4798191	559	182	77
4798519	253	554	158
4798847	11	519	291
4799175	-201	202	367
4799503	-471	48	435
4799831	-673	25	460
4800159	-658	117	461
4800487	-632	-124	386
4800815	-677	-60	333
4801143	-610	48	287
4801471	-508	131	297
4801799	-308	-81	313
4802127	-301	-161	304
4802455	-387	85	310
4802783	-580	271	324
4803111	-864	151	320
4803439	-926	136	415
4803767	-956	243	409
4804095	-942	311	357
4804423	-1017	205	294
4804751	-1010	61	245
4805079	-997	181	248
4805407	-863	333	178
4805735	-459	209	108
4806063	-33	92	30
4806391	162	197	5
4806719	394	277	-11
4807047	537	239	-46
4807375	720	257	13
4807703	738	233	51
4808031	634	171	55
4808359	651	115	92
4808687	461	183	146
4809015	451	115	213
4809343	517	62	270
4809671	463	37	295
4809999	471	86	382
4810327	321	165	402
4810655	244	118	482
4810983	325	2	526
4811311	323	-66	538
4811639	333	-114	538
4811967	311	-22	571
4812295	345	72	585
4812623	361	-108	604
4812951	316	-152	638
4813279	228	-188	670
4813607	202	-258	686
4813935	169	-248	683
4814263	126	-180	637
4814591	118	-83	649
4814919	28	-87	667
4815247	-60	-68	720
4815575	-248	-10	806
4815903	-520	-51	826
4816231	-646	-33	887
4816559	-787	-125	935
4816887	-987	-184	953
4817215	-1224	-215	957
4817543	-702	-372	985
4817871	-299	-419	1097
4818199	-231	-160	986
4818527	57	-598	941
4818855	178	-828	725
4819183	497	-802	527
4819511	840	-1057	361
4819839	1175	-650	375
4820167	1219	-268	412
4820495	1121	-536	356
4820823	987	-585	320
4821151	973	-311	330
4821479	1098	-225	298
4821807	1137	-146	327
4822135	1088	-49	324
4822463	1029	37	280
4822791	926	173	275
4823119	672	165	328
4823447	359	254	403
4823775	-47	300	429
4824103	-401	224	451
4824431	-613	245	492
4824759	-772	121	555
4825087	-767	85	583
4825415	-815	134	557
4825743	-704	97	598
4826071	-593	105	618
4826399	-632	117	629
4826727	-534	105	625
4827055	-372	98	597
4827383	-223	143	597
4827711	-28	175	599
4828039	219	80	597
4828367	340	85	580
4828695	471	99	531
4829023	564	107	472
4829351	592	162	427
4829679	656	131	410
4830007	511	110	362
4830335	296	139	318
4830663	161	135	291
4830991	49	105	261
4831319	-31	97	232
4831647	-54	118	188
4831975	-80	60	147
4832303	-127	72	130
4832631	-78	73	123
4832959	-66	127	124
4833287	-24	114	134
4833615	-55	157	137
4833943	-136	167	141
4834271	-197	178	133
4834599	-186	164	127
4834927	-125	183	124
4835255	-79	153	111
4835583	-79	139	91
4835911	-64	115	69
4836239	-54	151	46
4836567	-16	183	33
4836895	-14	141	7
4837223	-54	128	-16
4837551	-21	100	-64
4837879	-46	148	-64
4838207	-19	138	-77
4838535	-73	147	-80
4838863	-168	186	-78
4839191	-181	197	-79
4839519	-216	179	-65
4839847	-214	161	-61
4840175	-222	167	-63
4840503	-191	163	-81
4840831	-216	166	-85
4841159	-181	123	-100
4841487	-222	192	-92
4841815	-246	188	-88
4842143	-168	170	-83
4842471	-164	151	-108
4842799	-167	177	-100
4843127	-151	186	-105
4843455	-118	179	-139
4843783	-119	251	-158
4844111	-128	248	-190
4844439	-181	213	-195
4844767	-284	241	-206
4845095	-360	275	-208
4845423	-424	262	-216
4845751	-517	199	-222
4846079	-589	195	-224
4846407	-542	194	-268
4846735	-416	201	-293
4847063	-269	242	-282
4847391	-137	233	-345
4847719	-4	175	-293
4848047	39	178	-305
4848375	17	182	-282
4848703	0	138	-270
4849031	-112	135	-251
4849359	-185	138	-230
4849687	-187	45	-227
4850015	-157	12	-232
4850343	-112	62	-224
4850671	-28	96	-197
4850999	29	64	-154
4851327	-20	68	-138
4851655	-159	149	-134
4851983	-294	180	-127
4852311	-387	59	-169
4852639	-356	77	-178
4852967	-291	110	-196
4853295	-234	74	-224
4853623	-161	65	-253
4853951	-114	96	-256
4854279	-190	78	-252
4854607	-252	80	-241
4854935	-328	137	-248
4855263	-398	141	-250
4855591	-409	159	-222
4855919	-420	187	-196
4856247	-482	180	-280
4856575	-445	208	-231
4856903	-401	213	-235
4857231	-392	189	-92
4857559	-517	187	-234
4857887	-577	155	-201
4858215	-564	170	-213
4858543	-553	155	-33
4858871	-594	136	-214
4859199	-479	127	-191
4859527	-434	71	-183
4859855	-416	17	-183
4860183	-451	7	-132
4860511	-482	34	-209
4860839	-472	47	-181
4861167	-519	62	-168
4861495	-641	90	-145
4861823	-707	86	-132
4862151	-723	68	26
4862479	-794	106	-116
4862807	-685	63	-97
4863135	-614	-33	-121
4863463	-556	-21	-137
4863791	-506	-16	-144
4864119	-534	1	-77
4864447	-502	15	-138
4864775	-494	47	-148
4865103	-555	60	-163
4865431	-598	94	-150
4865759	-712	94	-152
4866087	-750	70	-13
4866415	-793	145	-154
4866743	-829	131	-164
4867071	-872	136	-166
4867399	-832	130	-189
4867727	-740	74	55
4868055	-808	94	-252
4868383	-842	179	-260
4868711	-820	180	-59
4869039	-878	208	-294
4869367	-855	205	-243
4869695	-986	245	-233
4870023	-1104	237	-223
4870351	-1194	201	-222
4870679	-1218	237	-202
4871007	-1233	261	-260
4871335	-1311	246	-250
4871663	-1239	234	0
4871991	-1323	275	-306
4872319	-1271	261	-272
4872647	-1213	195	-280
4872975	-1170	169	-295
4873303	-1175	183	-349
4873631	-1155	163	-320
4873959	-1108	111	-333
4874287	-1153	112	-274
4874615	-1245	39	-330
4874943	-1296	66	-293
4875271	-1344	94	-300
4875599	-1388	59	-174
4875927	-1349	61	-227
4876255	-1262	58	-243
4876583	-1156	12	-123
4876911	-1081	5	-302
4877239	-953	35	-215
4877567	-849	12	-221
4877895	-755	34	-182
4878223	-681	36	-192
4878551	-624	74	-135
4878879	-571	92	-122
4879207	-575	58	-90
4879535	-513	-111	-87
4879863	-426	-6	-103
4880191	-323	60	-110
4880519	-185	90	-111
4880847	-200	98	-39
4881175	-194	100	-65
4881503	-265	61	-104
4881831	-276	15	-137
4882159	-250	93	-149
4882487	-194	186	-132
4882815	-227	228	-125
4883143	-229	240	-90
4883471	-381	228	-44
4883799	-499	239	-56
4884127	-559	169	-73
4884455	-480	163	-99
4884783	-303	143	136
4885111	-199	149	-107
4885439	-48	133	-90
4885767	20	126	-61
4886095	29	115	-49
4886423	103	61	-13
4886751	190	79	-2
4887079	272	102	39
4887407	351	118	66
4887735	418	118	97
4888063	471	96	139
4888391	514	86	145
4888719	632	28	160
4889047	697	37	152
4889375	782	103	179
4889703	854	76	190
4890031	832	60	204
4890359	802	86	224
4890687	760	98	247
4891015	710	-8	242
4891343	667	1	225
4891671	719	56	207
4891999	856	80	202
4892327	957	69	172
4892655	961	129	172
4892983	946	169	159
4893311	882	140	148
4893639	785	184	116
4893967	672	250	95
4894295	574	260	76
4894623	528	299	55
4894951	425	331	40
4895279	403	330	20
4895607	281	351	-11
4895935	143	391	-15
4896263	79	375	-37
4896591	15	345	-49
4896919	-11	349	-79
4897247	4	374	-79
4897575	13	431	-54
4897903	83	343	-70
4898231	114	255	-98
4898559	57	353	-95
4898887	111	352	-95
4899215	117	381	-54
4899543	146	382	-20
4899871	134	286	-42
4900199	98	239	-47
4900527	71	196	-53
4900855	136	202	-82
4901183	199	259	-96
4901511	186	282	-72
4901839	128	250	-42
4902167	-41	211	-27
4902495	-26	143	-61
4902823	56	147	-77
4903151	174	133	-82
4903479	161	180	-111
4903807	299	199	-108
4904135	306	170	-83
4904463	275	166	-81
4904791	201	160	-86
4905119	62	134	-77
4905447	-5	137	-67
4905775	-12	142	-39
4906103	-40	185	-39
4906431	-41	172	-26
4906759	-71	150	-30
4907087	-93	155	-23
4907415	-110	156	-29
4907743	-96	95	-55
4908071	-78	60	-74
4908399	-61	79	-74
4908727	13	126	-54
4909055	-19	154	-24
4909383	-76	144	-8
4909711	-130	105	1
4910039	-88	111	2
4910367	-77	87	-17
4910695	17	99	-11
4911023	61	118	-22
4911351	109	121	-3
4911679	58	171	21
4912007	-16	151	49
4912335	-131	157	68
4912663	-134	131	54
4912991	-130	93	47
4913319	-92	96	26
4913647	22	98	29
4913975	94	127	23
4914303	149	132	35
4914631	110	129	64
4914959	51	163	87
4915287	22	142	104
4915615	-32	145	113
4915943	-67	167	130
4916271	-73	117	130
4916599	-121	114	111
4916927	-111	129	106
4917255	-66	135	99
4917583	30	125	88
4917911	41	177	70
4918239	25	213	63
4918567	-2	196	63
4918895	-76	207	67
4919223	-120	220	65
4919551	-142	208	45
4919879	-126	203	40
4920207	-128	170	29
4920535	-76	130	7
4920863	-45	135	10
4921191	-15	143	-19
4921519	23	156	-19
4921847	54	156	-12
4922175	31	169	-14
4922503	22	115	-20
4922831	33	144	-16
4923159	39	154	-4
4923487	45	94	-12
4923815	79	80	-15
4924143	118	122	-15
4924471	167	108	-10
4924799	252	108	-14
4925127	287	105	-8
4925455	342	94	-9
4925783	346	87	20
4926111	396	61	13
4926439	440	11	-1
4926767	456	34	12
4927095	479	38	38
4927423	513	18	31
4927751	490	39	54
4928079	456	49	16
4928407	439	61	55
4928735	406	60	46
4929063	381	68	-2
4929391	349	89	68
4929719	372	124	46
4930047	356	124	64
4930375	280	111	60
4930703	204	123	46
4931031	148	109	66
4931359	121	128	47
4931687	83	159	26
4932015	56	179	49
4932343	21	239	51
4932671	14	230	29
4932999	-34	198	22
4933327	-31	238	-24
4933655	1	255	-47
4933983	61	254	-73
4934311	51	288	-96
4934639	49	311	-125
4934967	29	323	-124
4935295	16	339	-115
4935623	13	370	-123
4935951	20	387	-93
4936279	-26	446	-96
4936607	-32	447	-109
4936935	-15	456	-79
4937263	-76	387	-97
4937591	-171	398	-98
4937919	-230	402	-86
4938247	-313	336	-90
4938575	-362	351	-77
4938903	-410	365	-70
4939231	-396	344	-45
4939559	-369	389	-46
4939887	-311	380	-16
4940215	-167	352	16
4940543	-57	356	46
4940871	-7	355	89
4941199	-10	341	168
4941527	26	308	233
4941855	11	350	291
4942183	-11	422	339
4942511	-141	172	375
4942839	-164	-27	349
4943167	-50	-77	384
4943495	99	-12	383
4943823	288	-12	432
4944151	444	-18	457
4944479	386	22	542
4944807	177	70	584
4945135	-62	113	518
4945463	-268	8	736
4945791	-442	-64	456
4946119	-430	-137	781
4946447	-382	-222	633
4946775	-56	-147	814
4947103	30	-205	617
4947431	162	-203	957
4947759	177	-273	932
4948087	103	-373	1056
4948415	-76	-420	1174
4948743	-256	-388	1309
4949071	-373	-303	1490
4949399	-458	-324	1828
4949727	-471	-458	2048
4950055	-222	-709	2167
4950383	398	-886	2497
4950711	932	-825	2758
4951039	1748	-1570	2953
4951367	2523	-1705	2836
4951695	3168	-1234	3207
4952023	3651	-992	3408
4952351	3884	-1065	3697
4952679	3843	-936	4345
4953007	3007	-790	4392
4953335	2458	-930	4493
4953663	2270	-951	4395
4953991	2196	-1036	4239
4954319	2296	-974	4142
4954647	1808	-882	4198
4954975	1005	-631	4307
4955303	443	-653	4298
4955631	-561	-935	4142
4955959	-491	-911	3763
4956287	277	-866	3407
4956615	1215	-777	3157
4956943	1715	-128	3226
4957271	2195	256	3723
4957599	1847	386	3752
4957927	610	1010	3744
4958255	-937	893	3594
4958583	-2024	1104	3233
4958911	-3000	698	2527
4959239	-3660	142	1609
4959567	-4478	-363	581
4959895	-3703	-289	-719
4960223	-3168	-261	-1787
4960551	-2359	122	-3387
4960879	-1890	337	-4364
4961207	-1607	668	-5064
4961535	-1657	706	-5758
4961863	-2503	400	-6205
4962191	-3731	-4	-6987
4962519	-4601	-764	-7364
4962847	-4843	-1806	-7732
4963175	-5068	-2238	-7570
4963503	-5053	-1217	-7264
4963831	-4371	901	-7377
4964159	-5824	2885	-7192
4964487	-5777	3464	-8238
4964815	-5275	1668	-8338
4965143	2202	-340	-7342
4965471	9294	-598	-4754
4965799	10480	1638	-1196
4966127	8195	2006	-37
4966455	4877	1572	335
4966783	1675	1583	226
4967111	14	1979	325
4967439	-1925	1874	205
4967767	-2094	2240	-623
4968095	-434	2142	-1352
4968423	1499	644	-1791
4968751	3630	-229	-1688
4969079	2706	258	-505
4969407	1541	265	311
4969735	-483	560	1111
4970063	-2163	663	1818
4970391	-3799	-688	2301
4970719	-4981	-1247	2533
4971047	-3242	-1628	3074
4971375	-1960	-1855	3527
4971703	-942	-741	3808
4972031	-912	-1217	3386
4972359	-4545	-10825	3169
4972687	534	-15417	3812
4973015	3204	6573	14205
4973343	14375	8911	12936
4973671	7502	-11528	8447
4973999	5570	9467	-4203
4974327	21859	5934	538
4974655	1475	1671	3748
4974983	3971	4072	800
4975311	-2740	-4951	-1724
4975639	2766	-3785	-1090
4975967	7225	-1160	1862
4976295	10143	3937	-466
4976623	6694	4101	-1853
4976951	3800	2591	-5223
4977279	-42	895	-6431
4977607	-4660	928	-7518
4977935	-7364	-411	-6763
4978263	-8411	-1858	-6647
4978591	-9600	211	-5528
4978919	-10321	1189	-4011
4979247	-9753	1681	-3165
4979575	-8561	1428	-2456
4979903	-6536	1928	-2399
4980231	-5159	2287	-1977
4980559	-3681	2360	-2007
4980887	-3223	1651	-1402
4981215	-2557	583	-1339
4981543	-2685	-7	-965
4981871	-1687	-13	-1182
4982199	-81	-760	-944
4982527	1475	-521	-765
4982855	2861	205	-253
4983183	4348	510	140
4983511	5635	452	-8
4983839	6665	-32	-122
4984167	7341	1971	549
4984495	6079	5776	1908
4984823	4244	30	-358
4985151	-32	-2736	-852
4985479	-1544	-1352	-510
4985807	-4056	-772	-855
4986135	-4586	-1450	-973
4986463	-3278	-1060	-212
4986791	-1922	99	69
4987119	-367	976	-163
4987447	546	139	-759
4987775	-2	255	-578
4988103	-554	232	-796
4988431	-561	-52	-839
4988759	-198	310	-750
4989087	187	314	-730
4989415	850	-173	-657
4989743	1156	687	-947
4990071	2362	780	-1048
4990399	3202	53	-1008
4990727	3275	952	-993
4991055	2885	1179	-697
4991383	2341	500	-326
4991711	1354	546	-140
4992039	233	117	47
4992367	-630	-174	-27
4992695	-1153	-301	-32
4993023	-1324	-331	9
4993351	-1328	-251	69
4993679	-1247	-231	174
4994007	-1118	-258	204
4994335	-989	-271	153
4994663	-841	-202	145
4994991	-512	-227	14
4995319	-257	-99	-183
4995647	150	206	-70
4995975	747	139	-127
4996303	957	223	-134
4996631	1187	-40	-142
4996959	1282	61	-124
4997287	1228	83	-187
4997615	1142	69	-221
4997943	1026	21	-234
4998271	596	100	-241
4998599	204	103	-251
4998927	-185	48	-279
4999255	-676	51	-289
4999583	-1076	81	-334
4999911	-1382	149	-428
5000239	-1603	-11	-411
5000567	-1644	61	-445
5000895	-1574	77	-417
5001223	-1310	3	-390
5001551	-1250	135	-385
5001879	-1097	95	-269
5002207	-572	37	-211
5002535	-283	51	-245
5002863	2	150	-249
5003191	323	62	-245
5003519	376	-17	-254
5003847	270	52	-243
5004175	276	221	-226
5004503	250	213	-192
5004831	33	120	-158
5005159	-166	-102	-56
5005487	-359	-112	-165
5005815	-341	105	-63
5006143	-329	61	-120
5006471	-359	19	42
5006799	-450	91	23
5007127	-496	133	9
5007455	-385	107	104
5007783	-330	91	31
5008111	-276	147	40
5008439	-201	186	-13
5008767	-65	147	203
5009095	-43	165	-23
5009423	90	187	23
5009751	99	188	65
5010079	88	258	62
5010407	166	228	86
5010735	155	223	126
5011063	77	261	175
5011391	-13	247	202
5011719	-74	218	205
5012047	-107	193	218
5012375	-118	187	238
5012703	-114	138	269
5013031	-102	148	294
5013359	-117	110	284
5013687	-125	71	291
5014015	-147	107	304
5014343	-232	83	316
5014671	-243	100	329
5014999	-227	61	337
5015327	-194	58	332
5015655	-167	92	323
5015983	-86	99	300
5016311	83	176	289
5016639	198	217	255
5016967	363	166	240
5017295	553	180	235
5017623	583	236	213
5017951	528	209	217
5018279	397	183	204
5018607	263	149	176
5018935	149	201	163
5019263	78	158	140
5019591	-10	132	120
5019919	-140	188	143
5020247	-158	240	83
5020575	-239	238	71
5020903	-291	322	47
5021231	-397	324	60
5021559	-454	339	130
5021887	-511	367	77
5022215	-462	400	73
5022543	-421	355	165
5022871	-435	364	74
5023199	-354	410	158
5023527	-381	214	116
5023855	-320	-19	130
5024183	-154	66	88
5024511	16	217	101
5024839	292	188	155
5025167	370	227	209
5025495	100	244	244
5025823	-328	138	297
5026151	-569	80	368
5026479	-619	161	415
5026807	-768	168	392
5027135	-840	138	417
5027463	-806	227	481
5027791	-794	331	450
5028119	-670	293	514
5028447	-534	106	445
5028775	-336	47	445
5029103	-121	156	325
5029431	195	240	287
5029759	470	223	249
5030087	640	266	220
5030415	751	257	285
5030743	691	285	198
5031071	566	396	213
5031399	438	382	216
5031727	326	421	223
5032055	246	468	86
5032383	339	476	78
5032711	429	440	-21
5033039	510	446	-128
5033367	588	409	-163
5033695	631	374	-272
5034023	700	313	-299
5034351	640	307	-360
5034679	550	290	-325
5035007	488	287	-270
5035335	298	308	-208
5035663	-88	249	-109
5035991	-270	232	-95
5036319	-352	195	-65
5036647	-325	165	-14
5036975	-314	146	-2
5037303	-343	55	3
5037631	-330	3	-4
5037959	-301	-39	31
5038287	-302	-81	41
5038615	-224	-27	39
5038943	-127	-15	33
5039271	-67	-2	3
5039599	6	8	-7
5039927	13	63	-8
5040255	-27	78	-26
5040583	11	88	-59
5040911	22	96	-102
5041239	49	58	-140
5041567	92	35	-151
5041895	82	70	-195
5042223	77	35	-222
5042551	117	27	-216
5042879	38	94	-225
5043207	33	122	-234
5043535	-26	133	-242
5043863	-146	160	-237
5044191	-237	155	-245
5044519	-268	182	-235
5044847	-301	153	-244
5045175	-315	188	-211
5045503	-383	194	-197
5045831	-425	174	-185
5046159	-477	143	-168
5046487	-528	165	-153
5046815	-527	111	-186
5047143	-492	110	-198
5047471	-490	155	-167
5047799	-386	169	-150
5048127	-296	130	-153
5048455	-260	131	-162
5048783	-173	134	-185
5049111	-107	142	-175
5049439	-106	147	-199
5049767	-162	145	-190
5050095	-173	149	-188
5050423	-173	153	-200
5050751	-219	167	-195
5051079	-210	164	-181
5051407	-223	196	-170
5051735	-246	190	-179
5052063	-240	178	-176
5052391	-187	202	-167
5052719	-131	203	-163
5053047	-73	210	-166
5053375	-62	210	-173
5053703	-49	210	-172
5054031	-16	186	-138
5054359	-9	158	-148
5054687	-11	105	-145
5055015	-63	120	-150
5055343	-81	167	-139
5055671	-55	170	-139
5055999	-83	225	-133
5056327	-122	220	-133
5056655	-93	180	-155
5056983	-134	143	-149
5057311	-108	101	-182
5057639	-44	121	-209
5057967	-18	144	-233
5058295	-61	174	-236
5058623	-85	144	-230
5058951	-135	138	-243
5059279	-157	136	-270
5059607	-145	159	-260
5059935	-128	220	-262
5060263	-104	221	-265
5060591	-130	185	-289
5060919	-150	247	-278
5061247	-113	269	-272
5061575	-83	204	-258
5061903	-86	183	-257
5062231	-100	183	-235
5062559	-94	180	-253
5062887	-133	228	-239
5063215	-101	157	-243
5063543	-137	199	-224
5063871	-128	244	-210
5064199	-211	243	-197
5064527	-274	254	-193
5064855	-294	246	-157
5065183	-348	192	-124
5065511	-430	210	-106
5065839	-496	169	-108
5066167	-468	149	-115
5066495	-358	169	-114
5066823	-255	137	-120
5067151	-198	173	-140
5067479	-166	124	-149
5067807	-85	109	-118
5068135	-59	68	-171
5068463	-10	87	-169
5068791	91	152	-115
5069119	177	192	-71
5069447	182	113	-96
5069775	162	134	-18
5070103	138	164	-71
5070431	243	177	30
5070759	240	190	-46
5071087	266	144	-4
5071415	322	65	17
5071743	344	69	78
5072071	404	78	84
5072399	476	59	93
5072727	375	107	103
5073055	355	142	107
5073383	307	91	96
5073711	219	128	103
5074039	64	161	111
5074367	-121	178	129
5074695	-327	170	148
5075023	-570	172	163
5075351	-659	123	164
5075679	-762	76	124
5076007	-703	51	96
5076335	-690	20	48
5076663	-658	80	48
5076991	-611	108	37
5077319	-587	109	22
5077647	-572	142	33
5077975	-551	203	33
5078303	-533	240	25
5078631	-504	122	80
5078959	-457	132	7
5079287	-373	86	35
5079615	-190	78	10
5079943	-26	92	19
5080271	103	81	28
5080599	217	91	54
5080927	250	110	105
5081255	237	105	146
5081583	168	106	177
5081911	139	112	200
5082239	111	99	210
5082567	148	95	235
5082895	106	115	231
5083223	137	145	233
5083551	88	155	226
5083879	48	172	230
5084207	-14	165	221
5084535	-53	186	202
5084863	-80	177	177
5085191	-71	177	153
5085519	-42	201	141
5085847	-21	191	114
5086175	-78	222	87
5086503	-108	210	61
5086831	-141	260	38
5087159	-138	247	14
5087487	-158	263	1
5087815	-203	295	-26
5088143	-169	330	-37
5088471	-166	348	-70
5088799	-113	409	-87
5089127	13	407	-121
5089455	141	393	-126
5089783	255	441	-108
5090111	331	406	-75
5090439	329	334	-50
5090767	268	267	-33
5091095	284	249	-28
5091423	319	243	26
5091751	323	326	61
5092079	354	315	134
5092407	362	186	196
5092735	351	43	263
5093063	269	-89	273
5093391	216	-89	322
5093719	162	-126	308
5094047	5	-208	469
5094375	-151	9	484
5094703	-149	60	495
5095031	-690	-307	567
5095359	-1249	-448	753
5095687	-1210	-440	721
5096015	-1008	-474	736
5096343	-582	-307	603
5096671	-48	-175	557
5096999	181	-206	652
5097327	272	-610	582
5097655	388	-1025	221
5097983	982	-1131	366
5098311	1396	-743	17
5098639	1659	-319	227
5098967	1814	-204	-14
5099295	1773	-130	117
5099623	1599	-220	114
5099951	1191	-175	184
5100279	1042	91	271
5100607	1042	35	248
5100935	1083	260	210
5101263	979	263	230
5101591	989	283	225
5101919	933	614	208
5102247	679	478	146
5102575	-166	338	43
5102903	-530	258	-15
5103231	-729	136	-78
5103559	-867	240	-80
5103887	-885	174	-164
5104215	-611	59	-226
5104543	-442	255	-218
5104871	-232	163	-244
5105199	17	55	-275
5105527	238	146	-269
5105855	349	141	-261
5106183	171	215	-267
5106511	107	16	-263
5106839	107	-146	-253
5107167	39	-345	-199
5107495	-71	-367	-216
5107823	297	-523	-184
5108151	692	-617	-170
5108479	795	-689	-252
5108807	825	-529	-271
5109135	762	-452	-266
5109463	515	-540	-157
5109791	100	-731	-88
5110119	-263	-808	-53
5110447	-374	-902	-96
5110775	-172	-774	-150
5111103	210	-1008	-185
5111431	407	-1037	-178
5111759	425	-1021	-141
5112087	380	-1147	-81
5112415	367	-1356	-207
5112743	350	-1473	-153
5113071	360	-1214	-239
5113399	307	-1457	-189
5113727	171	-1494	-152
5114055	-75	-1401	-204
5114383	-303	-1479	-231
5114711	-392	-1554	-117
5115039	-480	-1675	-263
5115367	-665	-1772	-257
5115695	-753	-1609	-280
5116023	-826	-1616	-240
5116351	-825	-1702	-134
5116679	-1075	-1689	35
5117007	-1314	-1740	187
5117335	-1536	-1785	321
5117663	-1854	-1866	432
5117991	-2010	-1809	545
5118319	-2149	-1686	599
5118647	-2327	-1707	732
5118975	-2575	-1602	799
5119303	-2807	-1519	822
5119631	-3036	-1389	749
5119959	-3230	-1336	708
5120287	-3242	-1283	555
5120615	-3179	-1111	371
5120943	-2948	-1353	113
5121271	-2847	-1311	-78
5121599	-2776	-975	-201
5121927	-2943	-997	-372
5122255	-2921	-972	-577
5122583	-2881	-745	-681
5122911	-3228	-655	-816
5123239	-3157	-577	-830
5123567	-3214	-412	-829
5123895	-3312	-61	-814
5124223	-3456	85	-791
5124551	-3757	72	-739
5124879	-4191	276	-649
5125207	-4664	521	-656
5125535	-4936	740	-658
5125863	-5000	763	-724
5126191	-4902	752	-834
5126519	-4481	644	-929
5126847	-3940	463	-1001
5127175	-3616	377	-1052
5127503	-3738	455	-1171
5127831	-3685	416	-1175
5128159	-3395	575	-1318
5128487	-2919	-63	-1152
5128815	-1541	-65	-991
5129143	-613	206	-919
5129471	129	425	-826
5129799	203	-17	-733
5130127	-318	-299	-489
5130455	-1823	-85	-379
5130783	-3740	42	-436
5131111	-5794	17	-562
5131439	-7626	327	-615
5131767	-8555	487	-699
5132095	-8459	-182	-846
5132423	-7379	-1237	-1083
5132751	-5802	-1845	-1328
5133079	-4395	-1924	-1526
5133407	-3262	-1938	-1640
5133735	-2258	-1981	-1686
5134063	-1731	-1500	-1727
5134391	-1672	-915	-1643
5134719	-1903	-795	-1567
5135047	-2245	-802	-1508
5135375	-2605	-775	-1425
5135703	-3098	-639	-1278
5136031	-3408	-638	-1183
5136359	-2532	-1190	-1228
5136687	-2458	-1043	-1040
5137015	-2253	-768	-846
5137343	-2146	-775	-647
5137671	-1818	-81	-217
5137999	-727	-4	71
5138327	-13	-405	203
5138655	674	-542	355
5138983	1131	-401	600
5139311	1021	-81	830
5139639	1644	289	1031
5139967	2252	167	1211
5140295	3085	142	1437
5140623	3932	192	1861
5140951	5197	210	2090
5141279	5517	-32	2393
5141607	4633	-1032	2705
5141935	7668	-2463	2117
5142263	8455	-1959	1962
5142591	6221	-2113	2775
5142919	4772	-1519	3464
5143247	7671	492	4611
5143575	2910	5364	4273
5143903	-1148	3275	2946
5144231	-3160	554	2792
5144559	-2349	2328	2839
5144887	-1207	2370	2665
5145215	-282	734	2076
5145543	860	701	1580
5145871	2218	1068	1063
5146199	3495	864	623
5146527	4442	1272	325
5146855	4290	2259	66
5147183	3785	2746	-25
5147511	3467	2029	93
5147839	2901	2030	162
5148167	2291	1896	-193
5148495	2017	1096	-579
5148823	2247	1246	-684
5149151	2305	1488	-682
5149479	2203	1865	-720
5149807	2143	1779	-684
5150135	2133	858	-644
5150463	2018	650	-505
5150791	1481	511	-595
5151119	1396	343	-760
5151447	1051	468	-701
5151775	518	884	-597
5152103	-281	1049	-571
5152431	-1119	820	-553
5152759	-1531	441	-522
5153087	-2109	108	-469
5153415	-2190	132	-360
5153743	-1845	11	-230
5154071	-1477	-167	-238
5154399	-1196	-56	-197
5154727	-911	56	-184
5155055	-693	155	-104
5155383	-487	245	-59
5155711	-358	303	-109
5156039	-145	146	-201
5156367	187	-266	-337
5156695	605	-324	-353
5157023	887	-166	-310
5157351	740	-35	-303
5157679	492	39	-180
5158007	316	215	-84
5158335	314	396	-39
5158663	339	158	84
5158991	394	-44	157
5159319	206	-95	234
5159647	-114	-367	222
5159975	-426	-377	226
5160303	-469	-293	187
5160631	-252	-366	85
5160959	-86	-416	-21
5161287	475	-302	-91
5161615	1198	-355	-232
5161943	2179	-403	-423
5162271	3371	-477	-614
5162599	4293	-288	-591
5162927	4698	111	-508
5163255	4701	253	-471
5163583	4361	30	-437
5163911	3829	-37	-315
5164239	3260	-9	-211
5164567	2477	-186	-111
5164895	1729	-423	49
5165223	737	-223	193
5165551	-617	-193	210
5165879	-1419	-302	228
5166207	-1611	-371	208
5166535	-1187	-433	170
5166863	-692	-304	224
5167191	-309	-38	261
5167519	-228	399	194
5167847	-229	396	173
5168175	-39	341	263
5168503	-82	357	345
5168831	-282	263	377
5169159	-257	138	199
5169487	-16	18	148
5169815	200	118	102
5170143	607	141	77
5170471	981	71	39
5170799	1081	145	14
5171127	1108	102	-32
5171455	1103	-101	-76
5171783	1116	-28	-178
5172111	1178	-77	-114
5172439	1119	53	-134
5172767	1216	257	-34
5173095	1335	399	76
5173423	1318	430	99
5173751	1239	471	136
5174079	1473	608	179
5174407	1583	595	197
5174735	1622	462	143
5175063	1729	449	182
5175391	1725	672	221
5175719	1293	564	233
5176047	883	529	279
5176375	486	560	385
5176703	128	598	435
5177031	-219	742	556
5177359	-853	1177	583
5177687	-1336	1475	586
5178015	-1094	918	653
5178343	-982	535	663
5178671	-986	622	626
5178999	-765	329	488
5179327	-369	99	376
5179655	77	382	399
5179983	269	711	352
5180311	280	879	440
5180639	-43	1207	704
5180967	-633	1816	863
5181295	-137	796	646
5181623	996	-103	323
5181951	2295	-366	-5
5182279	3771	-443	-257
5182607	5409	-113	-242
5182935	6463	504	-95
5183263	6734	441	50
5183591	6554	22	128
5183919	6393	-170	211
5184247	6316	-590	134
5184575	6953	-868	105
5184903	7806	-722	60
5185231	8080	-439	-12
5185559	8211	-388	68
5185887	7820	-148	135
5186215	6422	-189	14
5186543	5128	-217	59
5186871	4374	-575	-23
5187199	4020	-569	-158
5187527	4301	-972	-223
5187855	4532	-1159	-187
5188183	4643	-1022	-190
5188511	5173	-1420	-136
5188839	5523	-1949	-32
5189167	5624	-1807	245
5189495	5621	-2052	530
5189823	5512	-2553	729
5190151	5356	-2905	928
5190479	5161	-3332	1135
5190807	5326	-3899	1225
5191135	5804	-4060	1410
5191463	6046	-4508	1414
5191791	5976	-4868	1439
5192119	5975	-5192	1497
5192447	6272	-5457	1436
5192775	6919	-5906	1503
5193103	7548	-6238	1302
5193431	8071	-5890	1339
5193759	8372	-5235	1269
5194087	8462	-4843	1236
5194415	8105	-4385	1028
5194743	7040	-3757	737
5195071	5499	-3233	434
5195399	3687	-3074	387
5195727	1585	-2374	367
5196055	74	-2018	485
5196383	-867	-1610	562
5196711	-1074	-958	384
5197039	-1029	-430	404
5197367	-1591	538	499
5197695	-1998	1123	626
5198023	-1007	302	580
5198351	443	-314	142
5198679	1746	-301	-275
5199007	2522	533	-652
5199335	2526	761	-953
5199663	2409	1051	-886
5199991	1816	1621	-644
5200319	349	1570	-488
5200647	-2014	1279	-610
5200975	-4291	988	-859
5201303	-5689	671	-899
5201631	-6045	603	-853
5201959	-5591	320	-685
5202287	-3458	405	-889
5202615	-2585	741	-858
5202943	-2181	1171	-1124
5203271	-1908	1205	-828
5203599	-2165	995	-1110
5203927	-2203	1014	-917
5204255	-1998	752	-679
5204583	-1843	873	-855
5204911	-1562	929	-814
5205239	-1008	840	-796
5205567	-373	939	-792
5205895	-35	763	-829
5206223	214	678	-878
5206551	277	504	-647
5206879	284	534	-920
5207207	239	520	-695
5207535	61	557	-782
5207863	-51	500	-680
5208191	-243	383	-435
5208519	-455	585	-584
5208847	-617	146	-520
5209175	-872	-95	-214
5209503	-936	86	-462
5209831	-969	21	-375
5210159	-1058	-106	-26
5210487	-1217	-34	111
5210815	-1482	-90	338
5211143	-1412	-633	481
5211471	-1413	-769	867
5211799	-948	-750	657
5212127	-251	-906	1285
5212455	158	-1063	1062
5212783	313	-1408	1490
5213111	316	-1759	1716
5213439	57	-2095	2162
5213767	66	-2554	2514
5214095	-5	-2787	2793
5214423	-481	-2996	3064
5214751	-312	-3086	3530
5215079	-177	-3434	3931
5215407	-440	-3710	4206
5215735	-562	-4239	4286
5216063	-493	-4829	4237
5216391	-64	-5277	4477
5216719	367	-6053	4755
5217047	1083	-6520	5228
5217375	2128	-6667	5760
5217703	2894	-6779	6458
5218031	3198	-6790	7035
5218359	3231	-7735	7854
5218687	2128	-8235	9571
5219015	-736	-9635	9491
5219343	-781	-12787	8193
5219671	-413	-12934	7012
5219999	4926	-11992	6606
5220327	11276	-11090	6675
5220655	16119	-9788	4905
5220983	25656	-8740	2978
5221311	32044	-9734	1989
5221639	32535	-9912	648
5221967	30249	-8456	-331
5222295	28708	-6315	-1356
5222623	25505	-2439	-2904
5222951	19563	1039	-5264
5223279	13000	1084	-6425
5223607	8384	-508	-7398
5223935	4645	-1092	-8847
5224263	976	-1831	-10641
5224591	-2137	-1432	-12672
5224919	-5414	24	-14542
5225247	-8721	1858	-15613
5225575	-10003	4180	-16794
5225903	-12923	5630	-18191
5226231	-11202	5897	-19405
5226559	-8291	4926	-21408
5226887	-6060	4156	-23753
5227215	-2736	3873	-25942
5227543	516	3846	-27352
5227871	2993	3276	-28641
5228199	5558	2843	-29743
5228527	9633	397	-30816
5228855	12693	-1572	-30996
5229183	12751	-3000	-31606
5229511	12019	-2138	-30239
5229839	10055	-234	-27708
5230167	6137	751	-24819
5230495	3822	155	-21944
5230823	4580	-2663	-18403
5231151	3945	-5526	-14041
5231479	2359	-5473	-9470
5231807	628	-3185	-5072
5232135	-2060	-2421	-1370
5232463	-3801	-5337	2386
5232791	-4260	-9883	6825
5233119	2287	-7996	10515
5233447	5216	2903	15105
5233775	19006	4252	14722
5234103	21507	-6041	9282
5234431	11823	-3160	4921
5234759	10728	3922	5366
5235087	10928	-1659	4554
5235415	9939	438	5349
5235743	5799	2335	5194
5236071	3937	1662	3500
5236399	5863	1368	4506
5236727	5162	1432	4037
5237055	3455	1075	3939
5237383	1791	701	3532
5237711	215	608	3155
5238039	-424	735	2304
5238367	-483	391	1790
5238695	161	512	1574
5239023	982	953	1323
5239351	1043	987	884
5239679	835	1286	553
5240007	970	1611	218
5240335	936	1684	5
5240663	373	1646	-16
5240991	-309	1446	229
5241319	-948	1137	275
5241647	-929	1005	200
5241975	-816	822	366
5242303	-733	892	367
5242631	-359	1022	212
5242959	-81	1385	268
5243287	-355	1746	236
5243615	-639	1933	300
5243943	-1119	2128	454
5244271	-1785	1158	839
5244599	-2132	119	499
5244927	-1700	624	473
5245255	-1204	824	386
5245583	-876	1129	467
5245911	-590	1051	398
5246239	-570	1099	299
5246567	-295	971	287
5246895	-177	799	235
5247223	178	806	328
5247551	566	473	18
5247879	733	-245	58
5248207	882	-1017	-409
5248535	1019	-848	-625
5248863	1657	-604	-743
5249191	1529	-1055	-884
5249519	1657	-1330	-991
5249847	1639	-1486	-872
5250175	1464	-1186	-851
5250503	1220	-917	-994
5250831	1027	-705	-1008
5251159	410	-763	-874
5251487	-351	-687	-674
5251815	-1084	-1079	-838
5252143	-1619	-1165	-1259
5252471	-1573	-824	-1496
5252799	-1624	-361	-1513
5253127	-2062	-130	-1477
5253455	-2868	-293	-1542
5253783	-3490	-249	-1749
5254111	-4048	-267	-1991
5254439	-4386	-308	-2110
5254767	-4573	-104	-2131
5255095	-4711	-151	-2361
5255423	-5158	-567	-2679
5255751	-4446	-557	-3102
5256079	-4429	-628	-3338
5256407	-4416	-753	-3858
5256735	-4146	-704	-4210
5257063	-4156	-757	-4855
5257391	-3070	-473	-5179
5257719	-3359	-485	-5599
5258047	-3711	-335	-6236
5258375	-4080	-679	-6924
5258703	-4837	-1029	-7394
5259031	-5995	-773	-7908
5259359	-6767	-404	-8454
5259687	-7245	637	-8644
5260015	-7455	1757	-8299
5260343	-8609	2336	-7746
5260671	-12038	1696	-6950
5260999	-15486	-393	-5355
5261327	-17039	-2534	-2678
5261655	-13677	269	1735
5261983	-12978	3942	5159
5262311	-12566	2220	8059
5262639	-10079	1494	9363
5262967	-8949	1564	10451
5263295	-6973	204	11360
5263623	-5920	-1258	12011
5263951	-4255	-1778	12294
5264279	-3186	-2453	12242
5264607	-2429	-2533	12448
5264935	-1272	-1773	12699
5265263	-549	-115	13525
5265591	-1338	876	14125
5265919	-2796	456	14518
5266247	-4977	393	14851
5266575	-8587	882	15591
5266903	-12735	1104	15457
5267231	-15863	812	15697
5267559	-17732	312	15531
5267887	-18248	-495	15079
5268215	-17569	-1562	14614
5268543	-18162	-1222	14241
5268871	-18851	-898	13665
5269199	-19481	-669	13057
5269527	-19812	-329	12300
5269855	-19198	106	11519
5270183	-18359	-75	10752
5270511	-17425	-625	10029
5270839	-17209	-957	9186
5271167	-18038	256	8522
5271495	-19673	2302	8194
5271823	-21193	3879	8217
5272151	-21881	5135	8393
5272479	-22825	5881	8460
5272807	-24100	6481	8248
5273135	-25412	6513	7643
5273463	-26017	5393	6915
5273791	-26239	3965	6833
5274119	-26702	3612	6740
5274447	-27454	4659	6478
5274775	-28655	5238	6341
5275103	-31118	4516	5633
5275431	-32062	4526	5000
5275759	-30930	5421	4421
5276087	-29220	6240	2789
5276415	-25227	6066	1156
5276743	-21362	3508	280
5277071	-13586	867	892
5277399	-1203	-2182	1634
5277727	7861	-6402	4257
5278055	2712	6540	6890
5278383	-8365	13328	8162
5278711	-10805	1199	6103
5279039	-16691	2728	2223
5279367	-14593	7221	5230
5279695	-3420	3701	7512
5280023	815	-2673	4689
5280351	1838	200	3693
5280679	6766	3414	2440
5281007	7817	1706	1513
5281335	7048	1654	1059
5281663	4867	1933	266
5281991	4718	2066	86
5282319	8384	2107	947
5282647	8291	1078	441
5282975	4759	2003	721
5283303	-1148	2654	1474
5283631	-4174	707	1577
5283959	-5326	166	1210
5284287	-5916	-364	847
5284615	-6028	-340	-61
5284943	-5762	334	-570
5285271	-3776	357	-784
5285599	-1206	-1	-647
5285927	1144	285	-491
5286255	2621	297	-576
5286583	3442	-178	-862
5286911	3807	-139	-1031
5287239	3376	-14	-910
5287567	2535	17	-665
5287895	1290	-537	-556
5288223	193	-1663	-578
5288551	-588	-1939	-586
5288879	-991	-1818	-894
5289207	-114	-1414	-1141
5289535	609	-1070	-1231
5289863	1260	-1197	-1269
5290191	1093	-1367	-1634
5290519	474	-1477	-1857
5290847	-669	-1651	-2336
5291175	-1152	-1561	-2782
5291503	-2179	-1723	-3143
5291831	-2533	-1928	-3682
5292159	-2624	-2006	-4062
5292487	-3036	-1565	-4233
5292815	-3803	-1065	-4249
5293143	-4185	-338	-4278
5293471	-5106	427	-4272
5293799	-6974	963	-3999
5294127	-9345	1633	-3671
5294455	-11683	2112	-3326
5294783	-14275	2984	-3046
5295111	-16419	3874	-2830
5295439	-18024	4043	-2759
5295767	-18401	4677	-2319
5296095	-17378	4866	-2127
5296423	-15818	3897	-1140
5296751	-13138	3597	195
5297079	-9942	3799	1530
5297407	-7565	2903	2732
5297735	-4662	2186	3785
5298063	-2414	1384	4383
5298391	-528	1083	4919
5298719	153	1180	5323
5299047	-241	2023	5957
5299375	-1188	2955	6884
5299703	-1775	2612	7477
5300031	-1455	1496	7970
5300359	-488	892	8366
5300687	66	814	8598
5301015	558	775	8458
5301343	1797	82	8053
5301671	-718	934	7944
5301999	-3717	2001	7564
5302327	-6807	1400	6817
5302655	-7907	1040	6141
5302983	-7174	1456	5102
5303311	-5965	1862	4133
5303639	-5572	1813	2756
5303967	-5205	1722	918
5304295	-5224	2247	-606
5304623	-4464	2526	-1787
5304951	-3143	2284	-2065
5305279	-2296	2049	-1361
5305607	-1979	2646	-264
5305935	-1485	1463	445
5306263	-430	-29	386
5306591	261	-166	186
5306919	-153	764	-240
5307247	-58	914	-731
5307575	170	784	-717
5307903	51	678	-423
5308231	-219	611	23
5308559	-480	172	376
5308887	-828	-426	533
5309215	-825	-368	765
5309543	-152	-107	861
5309871	980	5	877
5310199	1765	344	820
5310527	1917	514	773
5310855	1651	626	770
5311183	1140	325	984
5311511	224	24	1147
5311839	-236	-246	1253
5312167	-439	-311	1321
5312495	-319	-516	1310
5312823	-62	-488	1333
5313151	231	-543	1329
5313479	397	-538	1421
5313807	344	-853	1448
5314135	143	-898	1497
5314463	-86	-557	1776
5314791	-182	-329	2068
5315119	-264	-210	2381
5315447	-415	-189	2754
5315775	-451	-1	3110
5316103	-561	-24	3492
5316431	-789	-275	3780
5316759	-540	-469	3966
5317087	-406	-796	4068
5317415	308	-1012	3896
5317743	732	-401	3715
5318071	2031	596	3684
5318399	3250	-168	3597
5318727	3842	-1219	3131
5319055	5162	-883	3148
5319383	4665	-956	3146
5319711	3027	-509	3364
5320039	2220	588	3977
5320367	1640	857	4441
5320695	1720	1085	4746
5321023	2356	602	4908
5321351	1864	-224	4885
5321679	645	-125	4925
5322007	-454	481	5031
5322335	-1371	536	5003
5322663	-1642	142	4963
5322991	-869	358	4687
5323319	141	1173	4748
5323647	177	1978	5028
5323975	-784	1886	4892
5324303	-746	1721	4834
5324631	-591	1818	4838
5324959	-1571	1492	4592
5325287	-2803	749	4186
5325615	-2766	40	4005
5325943	-2833	706	3602
5326271	-2138	520	3309
5326599	-879	496	2851
5326927	777	829	2482
5327255	1671	814	2331
5327583	1941	433	1941
5327911	2154	200	1605
5328239	2181	-19	1446
5328567	1790	-73	1245
5328895	1762	277	1214
5329223	1872	458	1259
5329551	1245	79	950
5329879	991	105	636
5330207	694	27	369
5330535	418	-177	104
5330863	1639	-299	-18
5331191	1927	-32	-25
5331519	2315	-2	-407
5331847	2626	146	-684
5332175	2198	206	-789
5332503	1880	204	-1188
5332831	1618	-32	-1468
5333159	1174	-347	-1583
5333487	515	-534	-1282
5333815	936	606	-1461
5334143	2158	-221	-1955
5334471	3542	-1214	992
5334799	3446	391	1930
5335127	1534	281	1868
5335455	-395	360	1294
5335783	-1273	-4	1054
5336111	-2330	-20	1810
5336439	-3005	-744	2388
5336767	-3216	-1487	2835
5337095	-3369	-2050	3289
5337423	-3257	-2085	4038
5337751	-2906	-1964	4553
5338079	-2273	-2072	4863
5338407	-1486	-2143	5396
5338735	-458	-2627	5843
5339063	228	-3044	6126
5339391	515	-2802	6252
5339719	1158	-2195	6187
5340047	1973	-1396	6176
5340375	1825	-365	6109
5340703	1117	374	6093
5341031	-780	485	5509
5341359	-3060	305	4824
5341687	-5325	339	4188
5342015	-6816	240	3160
5342343	-7332	-76	2617
5342671	-6747	118	2145
5342999	-5743	356	1405
5343327	-4573	693	1166
5343655	-3488	823	631
5343983	-2979	1032	544
5344311	-2981	1073	435
5344639	-2724	1049	463
5344967	-2522	1010	657
5345295	-2575	928	973
5345623	-2571	490	1116
5345951	-2785	197	1187
5346279	-2463	-80	1249
5346607	-1760	-540	733
5346935	-805	-576	422
5347263	15	-646	354
5347591	881	-825	-55
5347919	1395	-795	-231
5348247	2202	-1013	-268
5348575	2694	-869	-125
5348903	2459	-701	-579
5349231	2280	-681	-824
5349559	2230	-613	-433
5349887	1678	-650	-940
5350215	1233	-577	-834
5350543	927	-496	-683
5350871	793	-484	-599
5351199	645	-381	-554
5351527	738	-304	-517
5351855	905	-185	-572
5352183	959	-124	-625
5352511	1007	1	-690
5352839	1028	72	-823
5353167	1158	156	-1017
5353495	1222	153	-1187
5353823	1177	134	-1351
5354151	1136	21	-1526
5354479	1257	-28	-1720
5354807	1622	54	-1776
5355135	2026	177	-2051
5355463	2186	326	-2147
5355791	2094	531	-2179
5356119	1993	683	-2109
5356447	1160	884	-2034
5356775	51	1114	-1887
5357103	-552	1007	-1644
5357431	-1557	1254	-1521
5357759	-2469	1156	-1501
5358087	-3296	1607	-1641
5358415	-3330	2061	-1766
5358743	-3367	2222	-1855
5359071	-3259	2729	-1906
5359399	-3198	2320	-2118
5359727	-3239	2453	-2308
5360055	-2900	1923	-2603
5360383	-2127	1339	-2866
5360711	-888	965	-3007
5361039	651	987	-2962
5361367	2446	1047	-2862
5361695	4138	1506	-2501
5362023	4854	1572	-2163
5362351	4713	1550	-614
5362679	3498	1701	163
5363007	1948	1419	308
5363335	662	1249	154
5363663	-303	1003	-283
5363991	-968	609	-688
5364319	-1357	286	-1063
5364647	-980	-243	-1418
5364975	-291	-474	-1664
5365303	579	-458	-1773
5365631	1392	-164	-1688
5365959	1962	-26	-1470
5366287	1960	-135	-1177
5366615	1716	-134	-866
5366943	1650	-361	-706
5367271	1573	-522	-669
5367599	1375	-547	-665
5367927	1308	-728	-611
5368255	1368	-865	-564
5368583	1733	-1157	-719
5368911	2168	-1143	-763
5369239	2663	-1154	-624
5369567	3072	-1192	-645
5369895	3239	-1311	-343
5370223	3268	-1518	-289
5370551	3251	-1765	-114
5370879	2897	-1900	-19
5371207	2211	-2171	173
5371535	2204	-2246	449
5371863	1930	-2651	428
5372191	1665	-2773	625
5372519	1351	-2917	859
5372847	1553	-2855	1021
5373175	1707	-2783	1451
5373503	1320	-2827	2000
5373831	530	-3278	2653
5374159	-852	-4088	2977
5374487	-971	-4431	3064
5374815	-253	-5128	3045
5375143	905	-5339	3182
5375471	1562	-6140	2857
5375799	2845	-6674	2471
5376127	4059	-6693	1955
5376455	5308	-6540	1805
5376783	6652	-6698	1551
5377111	7145	-7046	1326
5377439	6621	-7243	1164
5377767	6463	-7508	841
5378095	6355	-8105	562
5378423	5331	-7752	-87
5378751	5353	-6881	-16
5379079	5755	-6573	-197
5379407	4918	-5766	-667
5379735	3430	-4937	-665
5380063	1409	-4078	-560
5380391	-625	-3348	-527
5380719	-2168	-3071	-604
5381047	-3386	-2999	-657
5381375	-4320	-3034	-599
5381703	-4549	-3031	-932
5382031	-4384	-2837	-1193
5382359	-3633	-2641	-1518
5382687	-2139	-2242	-1585
5383015	-1080	-1993	-1766
5383343	-691	-1372	-1940
5383671	-199	-852	-1913
5383999	-211	-834	-1775
5384327	-722	-823	-1511
5384655	-2233	-823	-1507
5384983	-4006	-969	-1364
5385311	-4921	-1409	-1441
5385639	-5351	-1626	-1465
5385967	-5206	-1448	-1393
5386295	-4272	-1474	-1494
5386623	-3330	-1872	-1806
5386951	-2035	-2054	-2204
5387279	-1122	-2556	-2230
5387607	-541	-3226	-2493
5387935	152	-4007	-2596
5388263	755	-4491	-2386
5388591	1065	-5191	-2264
5388919	1758	-5810	-1583
5389247	2777	-5841	-1006
5389575	3819	-5889	-904
5389903	4527	-6513	-489
5390231	4634	-6993	260
5390559	4318	-7262	1083
5390887	4315	-8056	1933
5391215	4562	-8983	2566
5391543	4912	-9506	3144
5391871	3295	-10152	3582
5392199	2039	-9725	3770
5392527	2358	-9712	3552
5392855	5283	-9388	2285
5393183	10535	-8837	1120
5393511	14572	-8954	626
5393839	18674	-7788	442
5394167	22934	-4726	-382
5394495	25257	-2388	-1466
5394823	26641	-1094	-3281
5395151	25421	-2225	-4381
5395479	23518	-2149	-4366
5395807	17612	-927	-3943
5396135	8760	633	-3184
5396463	908	923	-3515
5396791	-6178	2320	-3075
5397119	-9703	1980	-3504
5397447	-10280	1029	-4332
5397775	-9370	-1130	-6028
5398103	-6891	-2037	-7824
5398431	-3958	-1796	-9636
5398759	173	-1590	-11645
5399087	4469	-1816	-13757
5399415	8615	-2350	-15784
5399743	11542	-3037	-17667
5400071	13443	-3367	-19060
5400399	14236	-3288	-20052
5400727	14101	-3471	-20524
5401055	12465	-3610	-20506
5401383	10190	-3550	-20601
5401711	7079	-2849	-20047
5402039	3865	-2518	-20041
5402367	335	-1793	-20690
5402695	1724	-1576	-21306
5403023	3396	-1202	-21789
5403351	5806	-1026	-22670
5403679	7998	-467	-22678
5404007	9912	121	-22813
5404335	11285	1010	-22954
5404663	13351	-234	-22450
5404991	14741	-1656	-21476
5405319	13206	-1590	-19648
5405647	8989	-357	-16606
5405975	2933	1666	-13236
5406303	-3909	2654	-10831
5406631	-11936	2300	-9188
5406959	-15726	1811	-7047
5407287	-15071	254	-5067
5407615	-13149	-819	-3043
5407943	-10280	-597	-986
5408271	-7066	-1064	681
5408599	-4237	-1717	2312
5408927	-1837	-1617	4256
5409255	124	-266	6068
5409583	-182	1032	7029
5409911	1025	1503	7576
5410239	507	652	7403
5410567	2311	741	7498
5410895	3574	350	6957
5411223	4364	1763	5991
5411551	3323	1814	4975
5411879	1461	1613	4874
5412207	748	2154	5423
5412535	442	1940	5614
5412863	1060	1352	5664
5413191	687	587	5850
5413519	-271	1364	5569
5413847	-513	2587	5337
5414175	-859	2966	5255
5414503	-1314	3377	5270
5414831	-2100	3514	5203
5415159	-2448	3578	4892
5415487	-2799	3123	4503
5415815	-3055	1923	4003
5416143	-2574	539	3653
5416471	-1141	-25	3407
5416799	418	-218	3562
5417127	2884	287	3399
5417455	5523	217	3392
5417783	7429	-339	2487
5418111	8348	-700	2138
5418439	6989	-539	2422
5418767	4114	232	2923
5419095	1133	830	3710
5419423	-139	466	3976
5419751	-429	262	4215
5420079	-638	-309	4101
5420407	-114	-1104	3797
5420735	558	-1662	3473
5421063	631	-1562	3146
5421391	774	-981	3087
5421719	1010	-328	3027
5422047	1028	-708	2870
5422375	1016	-1049	2863
5422703	721	-1412	2623
5423031	544	-1668	2291
5423359	615	-1086	2126
5423687	920	-359	2178
5424015	936	-185	2114
5424343	617	-191	2133
5424671	232	-129	2256
5424999	-881	15	2238
5425327	-1455	208	2226
5425655	-1374	349	1996
5425983	-1124	457	1730
5426311	-1195	438	1566
5426639	-946	549	1397
5426967	-115	598	1284
5427295	905	904	1533
5427623	-544	970	1969
5427951	-1058	703	2326
5428279	-1764	354	2376
5428607	-2178	463	2350
5428935	-2063	677	2493
5429263	-2405	796	2650
5429591	-2833	961	2865
5429919	-3232	1010	2959
5430247	-3469	815	2907
5430575	-4114	633	2913
5430903	-4477	636	2953
5431231	-4077	636	2941
5431559	-3639	706	2887
5431887	-3285	986	2849
5432215	-3129	1038	2898
5432543	-2994	1038	2924
5432871	-3126	919	2895
5433199	-3377	909	3010
5433527	-3360	974	3066
5433855	-3272	689	3064
5434183	-3339	427	3173
5434511	-3257	220	3250
5434839	-3114	-156	3420
5435167	-2140	-986	3655
5435495	-1661	-993	3806
5435823	-762	-926	3948
5436151	-234	-850	4102
5436479	170	-1013	4110
5436807	117	-1350	4023
5437135	140	-1378	3919
5437463	380	-1434	3587
5437791	290	-1244	3261
5438119	-122	-683	2888
5438447	-438	-356	2587
5438775	-1706	319	2445
5439103	-3259	838	2464
5439431	-4787	891	1946
5439759	-5605	830	1504
5440087	-6468	14	1097
5440415	-6821	-528	346
5440743	-6580	-1265	503
5441071	-5610	-1739	-173
5441399	-3657	-1823	-99
5441727	-2665	-833	-16
5442055	-2572	-446	242
5442383	-2803	31	452
5442711	-3591	8	606
5443039	-4596	-964	1204
5443367	-5549	-1844	1769
5443695	-5336	-2520	2156
5444023	-3919	-2894	2381
5444351	-1688	-3245	2910
5444679	202	-3707	3233
5445007	1340	-4340	3777
5445335	2217	-4942	4217
5445663	3393	-5305	4912
5445991	4216	-5661	5694
5446319	5292	-6208	6522
5446647	5628	-6350	7872
5446975	5066	-6454	8815
5447303	3400	-5911	9346
5447631	1859	-4816	10023
5447959	1450	-4544	11065
5448287	2385	-2891	9847
5448615	2770	-576	9368
5448943	3232	758	8532
5449271	4343	1376	7295
5449599	8304	-123	5432
5449927	7247	160	3792
5450255	6549	2287	1761
5450583	6002	4172	-269
5450911	5623	3270	-2479
5451239	5055	2571	-3776
5451567	4488	2360	-5094
5451895	3610	2032	-6347
5452223	2938	2050	-7872
5452551	618	2590	-9460
5452879	-1524	2671	-11165
5453207	-2779	2446	-12453
5453535	-2265	2005	-13737
5453863	-1231	1313	-15055
5454191	-696	644	-16898
5454519	-148	233	-18219
5454847	567	291	-19189
5455175	1715	825	-19761
5455503	2556	866	-20449
5455831	2916	953	-20934
5456159	2489	1383	-21003
5456487	1306	2086	-21113
5456815	-871	2541	-20937
5457143	-1388	2201	-21104
5457471	-1657	1714	-20993
5457799	-1648	2175	-20680
5458127	-1423	3054	-20612
5458455	-659	3886	-20138
5458783	378	3863	-20032
5459111	2677	1818	-20332
5459439	5608	-810	-19838
5459767	6664	-393	-18783
5460095	6041	780	-18131
5460423	5527	1411	-16891
5460751	4520	329	-15250
5461079	4254	-84	-12743
5461407	4318	-1221	-10043
5461735	3205	-2884	-7324
5462063	4678	-1123	-4750
5462391	5224	-385	-1968
5462719	2889	-1774	307
5463047	534	-6368	2453
5463375	458	-10359	4382
5463703	2152	-8674	5813
5464031	6999	-5342	7014
5464359	12090	-2948	7360
5464687	11486	-1133	7300
5465015	20439	7795	8890
5465343	17481	7318	7184
5465671	10332	-514	9663
5465999	5380	2212	7909
5466327	-2402	4996	9026
5466655	-6600	1512	7741
5466983	-6578	209	6614
5467311	-6379	1370	5467
5467639	-3916	1810	4968
5467967	486	2207	5742
5468295	3439	1545	5689
5468623	1068	824	4327
5468951	-167	545	2758
5469279	1122	1175	2043
5469607	2195	1614	1816
5469935	2267	1633	1530
5470263	1826	1450	1380
5470591	1327	1211	982
5470919	1280	565	976
5471247	1095	-80	656
5471575	855	-15	739
5471903	675	366	539
5472231	828	682	497
5472559	820	1147	545
5472887	384	1006	371
5473215	-208	810	261
5473543	-689	597	117
5473871	-950	460	-168
5474199	-726	617	-385
5474527	-318	1082	-458
5474855	176	1179	-550
5475183	123	1175	-540
5475511	-179	855	-419
5475839	-407	583	-385
5476167	-776	443	-378
5476495	-725	495	-353
5476823	-579	365	-426
5477151	-530	75	-555
5477479	-378	-153	-697
5477807	-158	-269	-868
5478135	66	-252	-971
5478463	346	-288	-1067
5478791	480	-269	-1086
5479119	496	-316	-1079
5479447	494	-677	-1084
5479775	613	-1051	-1161
5480103	885	-1197	-1280
5480431	1273	-1289	-1352
5480759	1877	-1233	-1466
5481087	2411	-1243	-1487
5481415	3258	-1070	-1317
5481743	3854	-811	-1103
5482071	4271	-761	-831
5482399	4973	-1137	-584
5482727	5571	-1539	-388
5483055	6278	-1915	-175
5483383	6918	-2153	-146
5483711	7740	-2656	-185
5484039	9351	-3151	-431
5484367	11425	-4346	-1384
5484695	13424	-5001	-2366
5485023	16128	-4408	-2471
5485351	17716	-4147	-2046
5485679	18257	-4195	-1735
5486007	18232	-5193	-1703
5486335	18028	-6090	-1929
5486663	17999	-5304	-1919
5486991	18128	-4172	-1723
5487319	17858	-3118	-1367
5487647	16150	-1166	-699
5487975	14232	-446	8
5488303	11359	-654	516
5488631	6294	-662	852
5488959	2526	-704	1148
5489287	1257	-1326	612
5489615	2422	-590	797
5489943	2510	1023	812
5490271	2936	1126	1154
5490599	2654	1445	1124
5490927	2903	1444	942
5491255	3175	1833	721
5491583	2617	1879	555
5491911	1999	2100	707
5492239	1167	1440	671
5492567	693	1485	780
5492895	511	1682	622
5493223	652	1216	327
5493551	632	1311	162
5493879	563	1308	160
5494207	407	1218	276
5494535	-38	1001	312
5494863	8	557	237
5495191	546	65	147
5495519	1298	-381	-30
5495847	2463	-451	-321
5496175	3280	-444	-449
5496503	3824	-228	-554
5496831	4499	-263	-644
5497159	4971	-577	-667
5497487	4695	-887	-792
5497815	4596	-1173	-964
5498143	5074	-1588	-1085
5498471	5485	-1995	-1112
5498799	5725	-2046	-1274
5499127	6301	-2311	-1275
5499455	6711	-2704	-1257
5499783	6577	-2788	-1078
5500111	6225	-3219	-956
5500439	6313	-3425	-707
5500767	6205	-3431	-743
5501095	6122	-3307	-662
5501423	5444	-3827	-418
5501751	4989	-4089	-373
5502079	5276	-4473	-503
5502407	5867	-4569	-599
5502735	5221	-4457	-549
5503063	4744	-4261	-214
5503391	4983	-4875	-49
5503719	5054	-5187	-40
5504047	4798	-5044	-217
5504375	4412	-5422	-294
5504703	4159	-5546	-438
5505031	4181	-5279	-417
5505359	4307	-5672	-210
5505687	3708	-6080	11
5506015	3104	-6863	304
5506343	2538	-8093	-59
5506671	3165	-9306	-656
5506999	5593	-11564	-1362
5507327	7774	-12562	-2655
5507655	10160	-12823	-3648
5507983	13352	-12609	-4063
5508311	15378	-12468	-3991
5508639	16716	-12372	-3963
5508967	16365	-12257	-4372
5509295	16237	-11122	-4543
5509623	15574	-10248	-4540
5509951	14119	-9287	-4075
5510279	12122	-8250	-3379
5510607	10098	-7403	-2895
5510935	8581	-6449	-1976
5511263	5504	-5155	-1399
5511591	3010	-4838	-1142
5511919	1749	-4225	-712
5512247	337	-3359	-617
5512575	-407	-2899	-621
5512903	-780	-2261	-618
5513231	-1572	-1761	-766
5513559	-1740	-1295	-920
5513887	-1486	-718	-935
5514215	-1426	-545	-1062
5514543	-1320	-398	-1026
5514871	-1903	-189	-973
5515199	-2278	-8	-803
5515527	-2796	108	-797
5515855	-3176	-518	-1115
5516183	-3084	-742	-1279
5516511	-2747	-406	-1251
5516839	-2096	-98	-1212
5517167	-986	-418	-1088
5517495	-229	-1019	-865
5517823	-972	-1521	-918
5518151	-814	-2582	-1381
5518479	-1004	-3276	-1649
5518807	-580	-3898	-2249
5519135	321	-5081	-2724
5519463	1564	-6162	-3498
5519791	3047	-7494	-3967
5520119	4667	-8915	-4305
5520447	6067	-9422	-4135
5520775	8110	-9777	-3625
5521103	10287	-9589	-3490
5521431	11140	-8910	-3081
5521759	11525	-8770	-2821
5522087	11011	-9570	-2457
5522415	9146	-10115	-1626
5522743	6909	-10774	-538
5523071	4675	-11510	488
5523399	2662	-11734	551
5523727	3141	-13273	-882
5524055	6636	-14184	-3212
5524383	10343	-13316	-5340
5524711	15762	-12862	-6921
5525039	19545	-13144	-7649
5525367	22908	-14231	-7816
5525695	26787	-14436	-6565
5526023	26599	-12977	-5036
5526351	28195	-10313	-3388
5526679	28491	-4636	-1819
5527007	24301	-67	-1847
5527335	18096	486	-3404
5527663	11952	-882	-4489
5527991	6215	-1255	-4614
5528319	811	-379	-5136
5528647	-4647	1251	-5669
5528975	-9031	3497	-6452
5529303	-12450	5845	-7190
5529631	-13728	7260	-8476
5529959	-13190	7445	-10420
5530287	-9978	6347	-12649
5530615	-6285	5272	-15219
5530943	-2995	4440	-17810
5531271	697	3874	-20129
5531599	4439	4036	-22279
5531927	9076	4185	-23965
5532255	13420	3997	-25310
5532583	15393	3659	-26064
5532911	15671	4125	-26716
5533239	13627	4005	-27188
5533567	11096	3182	-27799
5533895	9716	3789	-27610
5534223	10018	3381	-27208
5534551	9487	987	-25692
5534879	6211	350	-25950
5535207	5723	-483	-24731
5535535	5827	-1049	-22559
5535863	4855	-3117	-20781
5536191	4594	-4480	-17839
5536519	6360	-4106	-14109
5536847	8238	-2174	-9779
5537175	7664	-1650	-6393
5537503	6005	-1469	-3552
5537831	3091	-2642	-292
5538159	692	-3441	3442
5538487	1048	-3796	7381
5538815	3014	-2486	9083
5539143	-483	-541	9523
5539471	1815	1440	10131
5539799	7328	1649	8732
5540127	7736	-4190	7082
5540455	10063	-1976	6602
5540783	9280	1338	5234
5541111	6692	-165	3835
5541439	6830	-2369	2895
5541767	8123	-291	2560
5542095	8364	2292	3691
5542423	9096	2883	4310
5542751	8191	2092	4452
5543079	5528	1927	4487
5543407	1803	1964	4724
5543735	-2025	325	4085
5544063	-3970	653	3239
5544391	-3785	1249	2813
5544719	-2549	1087	2538
5545047	-1647	1369	2423
5545375	-936	2198	2486
5545703	-666	1932	2242
5546031	42	1502	1561
5546359	248	1075	1549
5546687	272	861	1177
5547015	1140	614	1545
5547343	2010	407	1459
5547671	2335	263	1463
5547999	2560	59	1317
5548327	3113	-85	1331
5548655	2952	467	864
5548983	2846	416	1106
5549311	2176	336	832
5549639	1579	470	961
5549967	826	139	1169
5550295	243	117	1034
5550623	-276	62	985
5550951	-323	66	731
5551279	-282	150	653
5551607	-181	66	553
5551935	92	-62	361
5552263	364	188	103
5552591	315	209	-43
5552919	466	65	-177
5553247	375	-81	-332
5553575	237	-202	-463
5553903	-34	-315	-630
5554231	-177	-236	-814
5554559	-342	-264	-1012
5554887	-274	-187	-1211
5555215	-330	-190	-1415
5555543	-689	-451	-1638
5555871	-885	-682	-1941
5556199	-841	-644	-2168
5556527	-774	-569	-2483
5556855	-916	-626	-2742
5557183	-1145	-574	-2976
5557511	-1095	-466	-3297
5557839	-1167	-458	-3524
5558167	-1730	-365	-3665
5558495	-1914	-488	-3939
5558823	-1805	-652	-4122
5559151	-2268	-553	-4445
5559479	-2572	-768	-4902
5559807	-3141	-303	-5491
5560135	-3579	-98	-5830
5560463	-4976	504	-6254
5560791	-6174	743	-6929
5561119	-6971	1834	-7406
5561447	-8529	1986	-7745
5561775	-10260	2017	-7627
5562103	-12595	2404	-7318
5562431	-15942	3674	-6948
5562759	-18600	4043	-6834
5563087	-21446	2210	-5827
5563415	-18248	1992	-2285
5563743	-17036	1962	638
5564071	-14824	4262	2132
5564399	-13814	3974	3246
5564727	-13013	3292	4222
5565055	-12338	3046	5418
5565383	-11517	2456	5764
5565711	-9836	695	6072
5566039	-7677	-1700	6289
5566367	-5472	-3640	6305
5566695	-3571	-5313	7016
5567023	-1641	-5663	7419
5567351	-892	-5426	7856
5567679	-1427	-5201	8246
5568007	-5381	-4686	8247
5568335	-8210	-3898	7817
5568663	-10264	-3709	7537
5568991	-11872	-4058	6891
5569319	-12780	-4183	6459
5569647	-13244	-4602	5788
5569975	-13531	-5437	5315
5570303	-13489	-5704	4852
5570631	-13413	-5392	4169
5570959	-13747	-4875	3486
5571287	-13742	-4465	2927
5571615	-13663	-4846	2356
5571943	-13533	-4579	2127
5572271	-13606	-3681	1877
5572599	-13543	-2902	1422
5572927	-13234	-2854	1041
5573255	-12483	-3034	707
5573583	-11527	-3145	459
5573911	-10418	-2969	363
5574239	-8874	-3240	99
5574567	-8583	-3567	12
5574895	-7828	-3395	18
5575223	-7390	-3710	-138
5575551	-7257	-3148	-227
5575879	-7123	-2950	150
5576207	-6883	-2408	422
5576535	-6567	-1290	1446
5576863	-5465	-2136	1433
5577191	-4425	-2978	1617
5577519	-4821	-1486	1396
5577847	-5876	-2163	1416
5578175	-5023	-5231	840
5578503	-2461	-2937	789
5578831	-1774	1684	1227
5579159	-2465	5095	1998
5579487	-1635	6021	2695
5579815	-1614	6287	3552
5580143	-3714	6026	4038
5580471	-6116	6259	4557
5580799	-7490	6527	4799
5581127	-7929	6819	4867
5581455	-8099	6057	5081
5581783	-8353	4874	4904
5582111	-7534	4336	5109
5582439	-5771	5021	4817
5582767	-3185	4548	4551
5583095	-132	2926	4231
5583423	2266	853	3939
5583751	4061	-293	3158
5584079	4434	296	3063
5584407	3319	2231	3372
5584735	800	3088	3849
5585063	-1595	5057	5021
5585391	-3969	5515	5714
5585719	-6668	6567	6383
5586047	-8929	7128	6597
5586375	-10795	7142	6902
5586703	-11965	7527	6789
5587031	-12842	7874	7234
5587359	-12723	7436	7279
5587687	-12636	7131	7695
5588015	-12617	6886	7856
5588343	-12707	6486	8036
5588671	-12500	5119	7546
5588999	-11285	2968	6864
5589327	-9937	1333	6517
5589655	-8675	-433	5771
5589983	-4465	-2019	5060
5590311	915	-5866	4516
5590639	6431	-7071	5118
5590967	12262	64	4696
5591295	13295	2147	2438
5591623	9544	276	1551
5591951	6475	407	3341
5592279	1991	3092	5463
5592607	-3274	3399	5725
5592935	-6605	-560	4597
5593263	-7352	-3083	3267
5593591	-7000	-1662	2878
5593919	-4200	-926	3623
5594247	-1839	-588	3946
5594575	-988	-59	3935
5594903	-448	-308	3295
5595231	227	-699	2772
5595559	895	-1035	2501
5595887	1207	-898	2385
5596215	732	-532	2589
5596543	-208	-659	2746
5596871	-1167	-1022	2961
5597199	-1692	-1012	3207
5597527	-2157	-619	3262
5597855	-1981	-782	3188
5598183	-1803	-1074	3268
5598511	-2090	-994	3287
5598839	-2358	-906	3284
5599167	-2231	-668	3377
5599495	-2292	-368	3378
5599823	-2558	-199	3442
5600151	-2927	-116	3528
5600479	-3287	-140	3588
5600807	-3438	-364	3643
5601135	-3463	-436	3705
5601463	-3414	-23	3879
5601791	-3605	-170	3941
5602119	-3880	-218	4135
5602447	-4473	-315	4344
5602775	-5315	-571	4502
5603103	-5766	-599	4691
5603431	-6015	-244	4845
5603759	-6348	-76	4935
5604087	-6702	137	5126
5604415	-7295	558	5363
5604743	-7823	674	5854
5605071	-8070	1386	6280
5605399	-7622	2354	6715
5605727	-7779	2956	7015
5606055	-9425	3987	7144
5606383	-11369	5442	7130
5606711	-15016	6989	6845
5607039	-18143	7555	6948
5607367	-21231	6961	6621
5607695	-22434	4795	6287
5608023	-22477	2616	6106
5608351	-20837	1296	5267
5608679	-16857	312	3552
5609007	-11571	461	1937
5609335	-6748	787	960
5609663	-3492	586	355
5609991	-1647	594	-243
5610319	-838	409	-535
5610647	-1440	-199	-993
5610975	-2522	-967	-1251
5611303	-3240	-1684	-1401
5611631	-2690	-1976	-1519
5611959	-1778	-1354	-1499
5612287	-1923	-293	-1332
5612615	-2426	253	-959
5612943	-3018	361	-703
5613271	-3706	447	-560
5613599	-4413	409	-610
5613927	-4777	119	-793
5614255	-4173	-132	-1004
5614583	-3892	-354	-1055
5614911	-3946	-318	-1089
5615239	-3489	-565	-1106
5615567	-2630	-782	-1050
5615895	-2106	-674	-1163
5616223	-1670	-279	-1150
5616551	-1386	-30	-931
5616879	-1107	221	-899
5617207	-542	145	-792
5617535	-141	234	-738
5617863	-127	523	-816
5618191	-307	408	-744
5618519	-332	156	-664
5618847	192	-18	-676
5619175	772	-121	-794
5619503	1224	85	-819
5619831	1724	266	-774
5620159	2128	234	-697
5620487	2302	243	-582
5620815	2514	347	-453
5621143	2457	238	-403
5621471	2114	222	-424
5621799	1826	-61	-476
5622127	2318	-330	-647
5622455	3272	-669	-1090
5622783	4358	-1003	-1653
5623111	5809	-1352	-2158
5623439	7404	-1504	-2657
5623767	8814	-1378	-3141
5624095	10112	-1469	-3530
5624423	11159	-1353	-3872
5624751	11844	-1023	-4085
5625079	11952	-913	-4533
5625407	12095	-786	-4816
5625735	12186	-178	-4774
5626063	11646	373	-4955
5626391	10952	274	-5149
5626719	10042	527	-5243
5627047	8731	1110	-5357
5627375	7924	1399	-4995
5627703	7003	2088	-4344
5628031	5254	2882	-3515
5628359	2940	3219	-2791
5628687	833	3541	-2060
5629015	-1425	3426	-1328
5629343	-4360	3083	-594
5629671	-7027	3060	15
5629999	-8274	2586	234
5630327	-8035	1982	120
5630655	-6502	1881	-173
5630983	-4543	1905	-323
5631311	-2953	1997	-256
5631639	-1271	1891	-199
5631967	757	1498	-173
5632295	2481	860	-353
5632623	3565	659	-594
5632951	3853	474	-778
5633279	3806	-44	-910
5633607	3202	-137	-858
5633935	3170	-280	-682
5634263	2918	-960	-497
5634591	2219	-1428	-396
5634919	1713	-1545	-295
5635247	2067	-1541	-311
5635575	2386	-1563	-343
5635903	2787	-1479	-350
5636231	2808	-1477	-345
5636559	2976	-1553	-192
5636887	2812	-1565	-64
5637215	2552	-1602	2
5637543	2232	-1829	87
5637871	1861	-1928	231
5638199	1546	-1927	211
5638527	543	-2110	195
5638855	244	-1599	257
5639183	301	-2327	117
5639511	676	-2054	13
5639839	864	-2362	70
5640167	1173	-2213	154
5640495	718	-2071	544
5640823	563	-2233	556
5641151	-396	-2165	858
5641479	-1020	-2561	910
5641807	-1052	-2980	819
5642135	-1040	-2739	636
5642463	-493	-2270	499
5642791	167	-2047	506
5643119	23	-1469	708
5643447	-300	-1497	838
5643775	-1164	-1499	701
5644103	-2143	-1066	773
5644431	-2629	-1233	822
5644759	-3366	-1351	556
5645087	-3919	-1553	203
5645415	-3403	-1908	-9
5645743	-3361	-1727	-138
5646071	-2954	-1368	-84
5646399	-2899	-1708	-195
5646727	-3217	-2066	-347
5647055	-3907	-2534	-650
5647383	-4180	-3238	-936
5647711	-3824	-3834	-1129
5648039	-3556	-4103	-1665
5648367	-2351	-4761	-2195
5648695	-1371	-5215	-2686
5649023	-57	-5422	-3233
5649351	1031	-5706	-3611
5649679	1872	-5747	-3800
5650007	2980	-5629	-3816
5650335	3016	-5916	-3981
5650663	3033	-5913	-3979
5650991	2548	-5859	-4032
5651319	1851	-6042	-4103
5651647	2024	-6314	-3967
5651975	2005	-6377	-3569
5652303	2213	-6792	-3368
5652631	3177	-7511	-3259
5652959	4229	-8001	-3128
5653287	4958	-8626	-3081
5653615	6434	-8935	-2986
5653943	8005	-9792	-2769
5654271	8623	-10546	-2583
5654599	9003	-11005	-2383
5654927	10039	-12048	-2183
5655255	9762	-12824	-1702
5655583	8970	-13465	-1588
5655911	9314	-14023	-2722
5656239	11936	-13260	-4521
5656567	16209	-14536	-5958
5656895	19338	-14096	-6469
5657223	24142	-13054	-5402
5657551	26660	-12082	-4141
5657879	28532	-8729	-2995
5658207	28832	-3729	-1073
5658535	27250	1484	-1337
5658863	21377	3309	-2323
5659191	14786	2386	-3651
5659519	8347	2740	-4035
5659847	2436	4009	-3102
5660175	-4039	6351	-2744
5660503	-10577	9182	-2958
5660831	-14536	11194	-3285
5661159	-15136	12234	-3939
5661487	-12218	10845	-5483
5661815	-7036	10170	-7072
5662143	-2207	9615	-9469
5662471	2117	8725	-12290
5662799	6004	7640	-15009
5663127	9057	7392	-17095
5663455	12173	7254	-18771
5663783	14714	6546	-20093
5664111	15612	5244	-21244
5664439	15893	4114	-22248
5664767	14056	3064	-22554
5665095	9910	2171	-22723
5665423	5877	2293	-22676
5665751	2762	2585	-22551
5666079	1351	2698	-22550
5666407	775	2582	-22775
5666735	1578	2123	-23202
5667063	3197	513	-23629
5667391	4413	-467	-24056
5667719	6923	232	-23500
5668047	7711	-486	-22781
5668375	6759	-924	-21568
5668703	7924	-1590	-16347
5669031	7003	-2416	-13464
5669359	5442	-3518	-10055
5669687	2880	-3178	-6540
5670015	1900	-1494	-3724
5670343	962	-1405	-958
5670671	-1111	-2821	1594
5670999	-1007	-3809	3858
5671327	1782	-3412	5371
5671655	3657	-2874	5541
5671983	4021	-1371	4852
5672311	5620	166	4812
5672639	5369	-167	4422
5672967	4923	-148	4594
5673295	5266	1424	5733
5673623	7184	3396	7047
5673951	6630	3973	8884
5674279	4704	3158	9354
5674607	2653	4101	8707
5674935	-906	4582	7731
5675263	-3025	4265	7019
5675591	-3402	3011	6173
5675919	-1884	1987	5820
5676247	-436	1701	6340
5676575	-108	1609	6561
5676903	-524	1426	6880
5677231	-328	1217	6379
5677559	-1068	1876	6354
5677887	-2212	3146	6279
5678215	-2398	3570	6210
5678543	-2231	3370	5727
5678871	-2651	3504	5654
5679199	-3790	3235	5684
5679527	-4636	2872	5973
5679855	-4490	2341	6544
5680183	-3816	2165	6935
5680511	-3106	1524	7012
5680839	-3905	-468	6717
5681167	-3148	-2425	6139
5681495	113	-4188	5379
5681823	4468	-5876	3797
5682151	6721	-4171	2509
5682479	8212	-643	2164
5682807	9424	631	3051
5683135	7996	241	3713
5683463	5567	-248	3186
5683791	3693	-597	3032
5684119	2522	-418	2763
5684447	1712	-454	2796
5684775	1128	423	2849
5685103	589	696	2884
5685431	-77	750	2762
5685759	-505	977	2553
5686087	-561	769	2152
5686415	-753	932	2003
5686743	-1043	1109	2043
5687071	-928	1334	2155
5687399	-563	1244	2197
5687727	-681	1243	2245
5688055	-707	1100	2431
5688383	-1097	1048	2655
5688711	-1486	1058	2986
5689039	-1857	911	3261
5689367	-2087	597	3445
5689695	-2166	589	3631
5690023	-2738	730	3722
5690351	-2779	1006	3868
5690679	-2447	1123	3963
5691007	-2590	1119	3971
5691335	-3189	1085	4002
5691663	-3735	1007	4021
5691991	-3810	1025	4037
5692319	-3500	1129	4171
5692647	-3153	1135	4344
5692975	-3250	1280	4547
5693303	-3777	1342	4942
5693631	-4275	1168	5266
5693959	-5140	1317	5425
5694287	-5488	1982	5504
5694615	-5373	2593	5711
5694943	-6168	3568	5994
5695271	-8159	4764	6257
5695599	-10045	5059	6799
5695927	-12073	4899	7051
5696255	-13028	4412	7605
5696583	-13633	3365	8080
5696911	-12622	2041	8419
5697239	-10405	1064	8516
5697567	-8728	21	8096
5697895	-7004	-891	7291
5698223	-5984	-1798	6394
5698551	-4918	-2661	5755
5698879	-4716	-3497	5298
5699207	-4310	-4916	4871
5699535	-4799	-6231	4485
5699863	-4776	-7277	4394
5700191	-3158	-7682	4477
5700519	576	-7422	4779
5700847	3611	-7656	4596
5701175	5207	-7974	4446
5701503	5149	-8151	4802
5701831	4667	-8787	5574
5702159	4575	-8375	5717
5702487	4909	-7955	5546
5702815	6022	-7802	4901
5703143	6508	-7372	3843
5703471	6586	-5790	2889
5703799	7060	-4289	1744
5704127	8323	-4180	545
5704455	9215	-5582	-318
5704783	7513	-4119	-1438
5705111	8563	-192	-4316
5705439	10337	427	-8129
5705767	11003	-1899	-11707
5706095	13205	-3113	-12662
5706423	12250	-500	-11838
5706751	4732	2251	-11521
5707079	-5431	2535	-11885
5707407	-11778	2920	-11648
5707735	-14554	3264	-11811
5708063	-14758	2068	-13434
5708391	-13892	43	-15984
5708719	-11942	-889	-17943
5709047	-8681	-765	-19332
5709375	-3428	341	-20301
5709703	2924	411	-21213
5710031	7833	-939	-22822
5710359	11301	-2028	-24319
5710687	12933	-2629	-24842
5711015	12028	-2581	-24542
5711343	10675	-2143	-24034
5711671	9475	-2036	-23516
5711999	8499	-1897	-22727
5712327	7850	-1761	-22321
5712655	8558	-2139	-22065
5712983	10261	-2699	-21671
5713311	11523	-3295	-20819
5713639	11828	-2889	-19856
5713967	11470	-2244	-18649
5714295	11508	-2704	-16943
5714623	12414	-1861	-14500
5714951	13407	-1120	-11579
5715279	12134	-2461	-9265
5715607	9894	-2671	-6941
5715935	7345	-889	-5144
5716263	6009	-987	-3944
5716591	7106	-1819	-2785
5716919	7865	-3168	-1479
5717247	11164	-7561	-354
5717575	12541	-7313	205
5717903	16985	-378	3236
5718231	15027	2688	5890
5718559	16086	4233	7477
5718887	12913	954	8795
5719215	10317	-392	11764
5719543	12182	3076	9254
5719871	3960	2949	6893
5720199	3159	2516	8909
5720527	625	3080	8818
5720855	-4415	3845	8301
5721183	-3625	1709	7271
5721511	-1077	-1311	6741
5721839	2946	-1388	5294
5722167	7112	829	6020
5722495	11170	1898	7208
5722823	10593	1324	7035
5723151	7898	122	5247
5723479	4924	453	3526
5723807	4480	1213	3186
5724135	3855	1364	2586
5724463	2344	2234	2478
5724791	1033	1873	2204
5725119	496	966	1925
5725447	256	258	1665
5725775	746	-211	1497
5726103	1150	-380	1407
5726431	1416	-527	1326
5726759	1143	-490	1078
5727087	565	-629	794
5727415	-353	-604	604
5727743	-1463	-694	347
5728071	-1989	-950	225
5728399	-2133	-1069	126
5728727	-2233	-1250	-48
5729055	-2377	-1286	-128
5729383	-2413	-1414	-312
5729711	-1795	-1468	-483
5730039	-1336	-1184	-732
5730367	-1078	-1080	-1018
5730695	-996	-1036	-1090
5731023	-1074	-912	-1033
5731351	-1288	-878	-923
5731679	-1888	-939	-799
5732007	-3121	-1097	-711
5732335	-3462	-893	-769
5732663	-2706	-1103	-988
5732991	-1657	-1092	-1216
5733319	-1127	-598	-1387
5733647	-596	-196	-1510
5733975	8	-44	-1474
5734303	355	-84	-1330
5734631	-226	-114	-1166
5734959	-1388	219	-522
5735287	-1024	366	-320
5735615	-500	584	-242
5735943	-218	1065	-21
5736271	-90	1275	305
5736599	65	1358	607
5736927	418	977	685
5737255	749	518	529
5737583	1047	572	432
5737911	1132	469	525
5738239	784	688	419
5738567	557	1063	401
5738895	778	1405	235
5739223	785	1123	-153
5739551	375	706	-603
5739879	147	477	-999
5740207	340	344	-1257
5740535	728	621	-1339
5740863	1176	816	-1387
5741191	1431	698	-1445
5741519	1280	595	-1508
5741847	986	372	-1613
5742175	698	152	-1665
5742503	481	200	-1594
5742831	486	96	-1525
5743159	467	-28	-1549
5743487	366	-97	-1513
5743815	486	-155	-1477
5744143	871	-283	-1397
5744471	1275	-359	-1404
5744799	1603	-360	-1370
5745127	1684	-353	-1290
5745455	1376	-346	-1113
5745783	1239	-452	-880
5746111	1443	-464	-657
5746439	1866	-647	-684
5746767	2573	-714	-891
5747095	3800	-910	-1207
