Time Stamp	Gyroscope X	Gyroscope Y	Gyroscope Z
RAW	RAW	RAW	RAW
no units	no units	no units	no units
333769	19	123	-4
334097	2	73	-15
334425	-35	56	-27
334753	-91	100	-28
335081	-120	135	-74
335409	-109	134	-94
335737	-116	170	-96
336065	-158	185	-111
336393	-188	165	-119
336721	-217	169	-95
337049	-235	189	-133
337377	-203	160	-154
337705	-199	206	-154
338033	-174	233	-145
338361	-163	237	-192
338689	-122	220	-194
339017	-100	232	-185
339345	-113	251	-199
339673	-109	219	-196
340001	-125	236	-186
340329	-154	213	-175
340657	-133	203	-172
340985	-93	207	-156
341313	-94	217	-138
341641	-113	190	-131
341969	-56	190	-116
342297	-18	273	-108
342625	-30	200	-87
342953	-9	160	-77
343281	-43	186	-65
343609	-119	179	-78
343937	-155	137	-77
344265	-168	126	-70
344593	-163	134	-55
344921	-65	181	-58
345249	55	216	-72
345577	87	204	-49
345905	97	168	-37
346233	57	135	-24
346561	38	62	-5
346889	56	99	19
347217	54	73	26
347545	-12	70	27
347873	-20	55	-2
348201	42	53	12
348529	117	83	-7
348857	233	121	-5
349185	344	192	-3
349513	391	208	9
349841	260	165	24
350169	172	141	54
350497	95	133	65
350825	103	135	78
351153	160	109	64
351481	160	105	68
351809	132	55	73
352137	145	56	87
352465	116	75	71
352793	85	63	59
353121	137	56	26
353449	136	79	23
353777	144	115	16
354105	114	147	12
354433	90	175	3
354761	58	171	2
355089	20	129	11
355417	-6	132	16
355745	-42	84	15
356073	-80	73	33
356401	-122	96	7
356729	-121	72	20
357057	-158	106	35
357385	-105	87	12
357713	-71	76	7
358041	-17	98	6
358369	-7	118	9
358697	-33	149	32
359025	-106	101	11
359353	-145	83	6
359681	-201	95	16
360009	-191	138	6
360337	-169	118	-6
360665	-175	109	-21
360993	-150	120	-14
361321	-156	122	-22
361649	-212	87	-34
361977	-256	84	-30
362305	-270	103	-40
362633	-247	110	-47
362961	-221	91	-60
363289	-182	115	-58
363617	-185	120	-64
363945	-194	131	-61
364273	-211	129	-42
364601	-195	152	-58
364929	-174	181	-59
365257	-152	181	-66
365585	-129	150	-65
365913	-100	121	-84
366241	-165	119	-60
366569	-144	146	-48
366897	-135	136	-55
367225	-90	117	-77
367553	-67	114	-91
367881	-22	129	-85
368209	-7	181	-79
368537	-21	212	-84
368865	-35	161	-70
369193	-74	189	-62
369521	-99	194	-74
369849	-145	157	-61
370177	-186	162	-69
370505	-207	179	-64
370833	-244	148	-59
371161	-275	137	-70
371489	-181	173	-70
371817	-163	187	-70
372145	-140	178	-83
372473	-119	216	-73
372801	-137	239	-54
373129	-28	252	-46
373457	-60	307	-42
373785	-11	202	-48
374113	-10	205	-34
374441	19	230	6
374769	2	192	13
375097	-45	200	12
375425	3	196	27
375753	15	199	35
376081	78	194	53
376409	72	219	67
376737	70	183	70
377065	54	167	64
377393	14	164	69
377721	16	144	91
378049	-31	123	101
378377	-91	123	100
378705	-89	96	102
379033	-142	70	99
379361	-156	62	102
379689	-165	76	118
380017	-265	47	113
380345	-304	47	93
380673	-332	55	77
381001	-304	50	54
381329	-296	43	66
381657	-328	51	55
381985	-402	29	35
382313	-379	34	35
382641	-362	34	18
382969	-323	18	14
383297	-235	59	14
383625	-198	124	-9
383953	-117	130	-11
384281	-54	120	-16
384609	-45	89	-14
384937	-7	62	1
385265	-94	92	31
385593	-147	48	-2
385921	-205	29	-27
386249	-130	3	-31
386577	-111	11	-20
386905	-70	38	-25
387233	-107	42	-28
387561	-155	62	-34
387889	-135	79	-55
388217	-138	28	-67
388545	-118	16	-72
388873	-120	23	-79
389201	-111	32	-39
389529	-115	71	-39
389857	-59	86	-72
390185	-28	106	-96
390513	-52	119	-111
390841	-49	83	-103
391169	-32	71	-69
391497	-24	93	-60
391825	-35	128	-44
392153	-91	103	-43
392481	-118	100	-50
392809	-93	99	-55
393137	-28	82	-47
393465	-13	127	-38
393793	3	127	-50
394121	5	129	-38
394449	-18	122	-20
394777	-19	107	-17
395105	-25	106	-9
395433	-19	93	16
395761	-6	81	2
396089	42	75	2
396417	64	81	0
396745	91	82	-10
397073	99	68	-3
397401	116	94	13
397729	83	143	20
398057	-2	94	2
398385	-38	16	10
398713	-115	-2	31
399041	-147	72	48
399369	-197	101	-2
399697	-235	54	0
400025	-201	70	10
400353	-156	126	18
400681	-171	131	-10
401009	-188	148	-36
401337	-198	137	-34
401665	-207	135	-38
401993	-302	139	-36
402321	-408	87	3
402649	-422	106	25
402977	-409	185	-11
403305	-368	222	-67
403633	-304	168	-74
403961	-242	162	-70
404289	-185	192	-61
404617	-265	205	-54
404945	-342	142	-23
405273	-442	145	14
405601	-536	207	-1
405929	-511	178	-29
406257	-417	152	-13
406585	-277	230	-7
406913	-215	297	-1
407241	-256	304	-12
407569	-318	352	-28
407897	-353	280	-48
408225	-295	244	-53
408553	-174	278	-33
408881	-84	322	-39
409209	-86	351	-64
409537	-85	287	-85
409865	-86	231	-68
410193	-59	306	-51
410521	-30	290	-53
410849	-19	288	-61
411177	-27	335	-64
411505	-45	270	-47
411833	-70	226	-40
412161	-61	243	-44
412489	-32	251	-64
412817	-30	220	-45
413145	-12	250	-41
413473	36	261	-55
413801	72	228	-58
414129	31	207	-54
414457	-3	151	-30
414785	-12	126	-15
415113	-66	125	-21
415441	-4	116	-17
415769	-28	95	-21
416097	36	102	-22
416425	90	125	13
416753	130	170	4
417081	133	201	9
417409	121	166	7
417737	148	140	2
418065	112	102	27
418393	72	72	40
418721	39	105	48
419049	-203	51	20
419377	-249	-1	7
419705	-207	-5	6
420033	-132	-6	29
420361	-103	60	39
420689	-154	98	28
421017	-237	122	39
421345	-274	84	36
421673	-340	88	18
422001	-295	-30	-14
422329	-259	-39	9
422657	-321	-4	21
422985	-390	3	-8
423313	-419	42	-32
423641	-412	95	-57
423969	-386	64	-82
424297	-297	43	-79
424625	-194	46	-66
424953	-139	171	-88
425281	-211	211	-137
425609	-203	84	-140
425937	-133	29	-118
426265	-53	71	-109
426593	22	138	-100
426921	64	188	-109
427249	157	203	-105
427577	193	308	-121
427905	219	347	-159
428233	295	340	-159
428561	341	322	-141
428889	439	333	-133
429217	392	289	-153
429545	297	218	-131
429873	211	192	-115
430201	128	144	-104
430529	-28	160	-96
430857	-86	133	-89
431185	-37	126	-95
431513	31	186	-86
431841	43	193	-109
432169	110	109	-98
432497	134	112	-90
432825	83	178	-76
433153	25	162	-64
433481	-51	128	-57
433809	-111	94	-40
434137	-148	87	-39
434465	-164	52	-23
434793	-124	64	-16
435121	-115	81	-30
435449	-113	62	-28
435777	-117	32	-26
436105	-143	32	-33
436433	-175	18	-11
436761	-203	18	-13
437089	-189	23	-11
437417	-191	11	-25
437745	-138	1	-40
438073	-45	9	-35
438401	3	41	-38
438729	23	72	-41
439057	-32	84	-47
439385	-43	72	-51
439713	-29	38	-57
440041	18	27	-57
440369	91	55	-40
440697	144	73	-45
441025	166	97	-47
441353	201	72	-53
441681	164	76	-35
442009	87	57	-63
442337	45	26	-54
442665	64	56	-57
442993	88	92	-48
443321	56	76	-73
443649	28	65	-56
443977	-14	106	-61
444305	-7	128	-60
444633	-13	138	-52
444961	-7	125	-61
445289	9	113	-63
445617	0	122	-62
445945	-24	155	-60
446273	-23	139	-64
446601	9	136	-49
446929	1	156	-46
447257	-7	142	-43
447585	-53	137	-54
447913	-92	113	-73
448241	-124	91	-66
448569	-125	100	-43
448897	-126	112	-59
449225	-116	123	-52
449553	-131	165	-57
449881	-168	128	-81
450209	-138	103	-62
450537	-78	149	-68
450865	-45	130	-60
451193	-15	153	-54
451521	-40	149	-66
451849	-72	102	-54
452177	-106	113	-57
452505	-130	116	-34
452833	-114	137	-32
453161	-80	139	-40
453489	-82	133	-40
453817	-100	107	-41
454145	-79	95	-50
454473	-120	104	-33
454801	-120	78	-28
455129	-100	89	-29
455457	-50	112	-22
455785	-75	130	-15
456113	-99	68	-25
456441	-140	72	-18
456769	-145	68	-5
457097	-133	80	-15
457425	-94	108	-19
457753	-47	122	-26
458081	-50	123	-39
458409	-94	101	-38
458737	-79	70	-31
459065	-88	101	-18
459393	-83	70	-25
459721	-62	73	-33
460049	-49	126	-52
460377	-52	99	-70
460705	-40	62	-53
461033	-15	116	-49
461361	-13	174	-29
461689	-59	125	-40
462017	-94	97	-43
462345	-89	92	-56
462673	-59	133	-66
463001	-84	164	-64
463329	-113	169	-85
463657	-110	143	-96
463985	-94	147	-80
464313	-110	176	-102
464641	-121	127	-103
464969	-97	146	-99
465297	-95	155	-84
465625	-89	156	-88
465953	-106	167	-96
466281	-140	153	-96
466609	-176	111	-100
466937	-158	117	-92
467265	-156	144	-102
467593	-143	142	-112
467921	-144	119	-115
468249	-104	139	-124
468577	-72	152	-131
468905	-35	145	-134
469233	12	149	-134
469561	11	171	-128
469889	-15	187	-147
470217	-29	176	-155
470545	-43	121	-138
470873	-9	117	-131
471201	38	141	-137
471529	24	147	-136
471857	32	134	-155
472185	-28	141	-118
472513	-37	162	-130
472841	-12	138	-124
473169	38	149	-112
473497	86	174	-105
473825	105	198	-84
474153	86	172	-87
474481	49	151	-86
474809	59	141	-77
475137	88	173	-82
475465	96	171	-77
475793	94	170	-54
476121	94	206	-44
476449	12	241	-45
476777	-75	166	-66
477105	-121	118	-47
477433	-99	152	-63
477761	-146	197	-67
478089	-135	174	-86
478417	-158	128	-80
478745	-200	129	-78
479073	-233	166	-75
479401	-294	191	-79
479729	-309	147	-104
480057	-294	138	-107
480385	-253	168	-104
480713	-264	139	-99
481041	-293	126	-101
481369	-298	138	-109
481697	-321	179	-96
482025	-281	173	-105
482353	-301	131	-106
482681	-277	100	-91
483009	-172	138	-84
483337	-112	160	-90
483665	-36	145	-81
483993	16	164	-57
484321	52	141	-34
484649	114	99	-43
484977	201	79	-14
485305	290	109	2
485633	312	117	32
485961	291	96	40
486289	224	97	45
486617	237	97	38
486945	252	112	23
487273	265	111	31
487601	233	132	45
487929	127	190	74
488257	-30	210	54
488585	-172	144	20
488913	-229	87	8
489241	-221	82	-2
489569	-212	114	4
489897	-257	155	-7
490225	-303	138	-29
490553	-314	130	-37
490881	-302	213	-51
491209	-236	194	-83
491537	-177	169	-85
491865	-99	160	-107
492193	-97	165	-90
492521	-121	143	-72
492849	-130	114	-71
493177	-152	76	-60
493505	-161	77	-70
493833	-154	96	-70
494161	-170	95	-67
494489	-114	98	-67
494817	-114	115	-76
495145	-135	112	-80
495473	-68	89	-91
495801	-73	98	-91
496129	-70	82	-100
496457	-58	40	-88
496785	-28	34	-79
497113	36	45	-109
497441	133	81	-115
497769	219	98	-115
498097	313	61	-128
498425	339	88	-139
498753	346	99	-141
499081	391	75	-143
499409	380	65	-105
499737	290	82	-102
500065	253	28	-114
500393	198	-5	-101
500721	185	6	-103
501049	216	48	-112
501377	250	44	-116
501705	274	87	-135
502033	305	123	-146
502361	347	165	-149
502689	301	147	-160
503017	299	179	-166
503345	280	194	-171
503673	346	144	-205
504001	400	157	-228
504329	560	167	-250
504657	626	118	-275
504985	806	245	-237
505313	887	297	-225
505641	880	202	-214
505969	840	157	-160
506297	770	136	-111
506625	622	98	-66
506953	531	104	-78
507281	504	122	-75
507609	524	133	-81
507937	610	188	-91
508265	735	199	-90
508593	651	165	-39
508921	533	192	0
509249	395	135	-18
509577	271	103	-74
509905	264	121	-104
510233	303	143	-115
510561	309	183	-125
510889	262	185	-132
511217	142	139	-110
511545	49	115	-105
511873	-48	154	-86
512201	-173	171	-71
512529	-270	188	-66
512857	-401	178	-51
513185	-521	142	-44
513513	-507	216	-38
513841	-482	99	-90
514169	-367	65	-150
514497	-231	130	-151
514825	-210	155	-123
515153	-280	100	-92
515481	-410	93	-98
515809	-463	122	-87
516137	-437	137	-81
516465	-383	153	-95
516793	-284	202	-102
517121	-159	271	-100
517449	-1	251	-94
517777	68	193	-99
518105	98	205	-96
518433	74	187	-105
518761	53	167	-139
519089	-21	142	-133
519417	-69	158	-113
519745	-127	165	-113
520073	-142	172	-105
520401	-147	205	-117
520729	-125	211	-121
521057	-103	234	-115
521385	-74	238	-104
521713	-98	239	-109
522041	-54	232	-117
522369	-42	210	-111
522697	-42	182	-93
523025	-17	200	-67
523353	-37	194	-44
523681	-100	161	-38
524009	-146	148	-45
524337	-168	179	-45
524665	-178	204	-50
524993	-173	193	-69
525321	-134	181	-79
525649	-85	221	-88
525977	-93	212	-56
526305	-128	177	-32
526633	-237	146	-30
526961	-264	139	-44
527289	-280	149	-66
527617	-229	177	-52
527945	-215	191	-59
528273	-192	206	-71
528601	-188	197	-71
528929	-185	176	-68
529257	-162	161	-41
529585	-184	186	-30
529913	-177	156	-41
530241	-179	163	-8
530569	-173	156	13
530897	-190	117	-6
531225	-205	132	-20
531553	-181	161	-7
531881	-124	164	1
532209	-72	165	-2
532537	-46	165	-1
532865	-67	152	-9
533193	-81	120	13
533521	-104	167	10
533849	-116	121	22
534177	-120	91	10
534505	-71	90	2
534833	-36	65	-4
535161	-60	67	14
535489	-73	83	5
535817	-97	132	11
536145	-82	144	18
536473	-126	131	12
536801	-157	140	11
537129	-109	144	1
537457	-50	110	-31
537785	38	66	-39
538113	120	112	-13
538441	96	116	12
538769	-50	87	36
539097	-117	52	42
539425	-112	101	30
539753	-54	104	-7
540081	44	131	-31
540409	143	190	-23
540737	99	181	-10
541065	21	163	-16
541393	-54	134	-13
541721	-69	175	-7
542049	-72	166	-17
542377	-84	163	-18
542705	-40	177	-21
543033	-8	175	-22
543361	-26	116	-9
543689	-16	125	-6
544017	-22	161	-10
544345	-18	156	-8
544673	-15	127	1
545001	13	163	3
545329	-71	174	-22
545657	-79	110	-45
545985	-40	136	-81
546313	0	176	-65
546641	9	126	-83
546969	21	99	-64
547297	-45	143	-71
547625	-45	150	-56
547953	-61	130	-33
548281	-71	127	-42
548609	-62	160	-36
548937	-31	180	-7
549265	-17	171	-10
549593	-54	159	-20
549921	-87	139	-5
550249	-126	166	0
550577	-146	127	2
550905	-190	72	21
551233	-171	62	-2
551561	-113	80	4
551889	-23	107	-15
552217	46	112	9
552545	104	143	11
552873	86	117	6
553201	51	115	9
553529	10	135	2
553857	-1	162	-1
554185	-18	141	8
554513	-27	122	9
554841	-51	115	21
555169	-64	52	47
555497	-143	102	68
555825	-243	79	58
556153	-262	36	36
556481	-259	52	19
556809	-237	76	9
557137	-226	52	23
557465	-260	88	40
557793	-320	78	19
558121	-344	67	19
558449	-306	59	-2
558777	-251	45	5
559105	-213	57	-5
559433	-203	75	-3
559761	-261	35	26
560089	-320	4	23
560417	-341	15	29
560745	-329	-46	-2
561073	-300	-92	-23
561401	-192	-57	-16
561729	-188	-14	17
562057	-238	-24	24
562385	-297	-72	44
562713	-315	-76	41
563041	-310	-9	13
563369	-240	30	3
563697	-64	53	-23
564025	51	96	-31
564353	102	79	-45
564681	93	57	-54
565009	84	118	-19
565337	87	114	-44
565665	59	73	-34
565993	154	86	-74
566321	222	79	-59
566649	283	98	-70
566977	307	157	-39
567305	292	171	-49
567633	249	144	-32
567961	237	148	-50
568289	265	135	-45
568617	319	103	-48
568945	410	78	-47
569273	434	114	-47
569601	485	134	-33
569929	442	127	-24
570257	424	102	-20
570585	328	95	-9
570913	292	96	7
571241	195	119	15
571569	144	91	5
571897	78	58	-4
572225	5	74	12
572553	-15	55	22
572881	-74	72	8
573209	-102	72	-6
573537	-87	100	-18
573865	-82	140	-6
574193	-139	196	4
574521	-181	206	-6
574849	-246	187	-24
575177	-281	189	-18
575505	-335	199	-26
575833	-422	205	-14
576161	-448	196	-14
576489	-447	200	-2
576817	-394	207	-4
577145	-344	182	-13
577473	-222	182	-52
577801	-242	173	-21
578129	-168	257	-39
578457	-38	246	-75
578785	107	234	-75
579113	199	217	-82
579441	236	203	-61
579769	154	192	-38
580097	65	162	-28
580425	-60	155	-36
580753	-106	144	-46
581081	-64	181	-53
581409	-5	189	-51
581737	-36	208	-42
582065	-30	219	-42
582393	-40	222	-57
582721	-89	206	-68
583049	-85	190	-59
583377	-52	181	-43
583705	-94	209	-63
584033	-95	173	-78
584361	-94	147	-74
584689	-74	174	-89
585017	-95	172	-78
585345	-138	157	-68
585673	-178	231	-27
586001	-225	211	-66
586329	-252	151	-85
586657	-232	177	-87
586985	-160	156	-94
587313	-129	151	-100
587641	-83	149	-113
587969	-96	175	-114
588297	-76	184	-109
588625	-110	168	-92
588953	-128	175	-77
589281	-148	173	-76
589609	-178	110	-99
589937	-180	145	-87
590265	-143	174	-73
590593	-151	141	-60
590921	-157	102	-56
591249	-165	129	-82
591577	-128	138	-66
591905	-96	134	-63
592233	-62	143	-50
592561	-72	147	-80
592889	-66	120	-78
593217	-73	149	-92
593545	-83	153	-96
593873	-116	137	-92
594201	-134	140	-108
594529	-107	145	-100
594857	-75	140	-108
595185	-53	125	-80
595513	-75	145	-56
595841	-93	186	-49
596169	-71	149	-63
596497	-31	101	-62
596825	-23	100	-53
597153	-23	119	-42
597481	-61	85	-14
597809	-92	59	-5
598137	-131	67	3
598465	-230	18	25
598793	-221	39	47
599121	-154	75	81
599449	-92	-42	15
599777	-4	3	-21
600105	84	62	-20
600433	11	48	14
600761	-82	-22	27
601089	-116	-11	19
601417	-83	25	11
601745	-2	18	-17
602073	127	47	-20
602401	225	102	-28
602729	187	71	15
603057	135	93	51
603385	1	41	103
603713	-150	-3	64
604041	-208	15	26
604369	-177	-25	7
604697	-122	-10	8
605025	-104	48	13
605353	-120	67	3
605681	-144	90	-1
606009	-116	95	-6
606337	-137	147	26
606665	-161	90	7
606993	-126	94	-8
607321	-99	105	-29
607649	-16	65	-40
607977	22	131	-28
608305	13	123	0
608633	-39	134	-12
608961	-14	125	-13
609289	84	99	-12
609617	111	47	3
609945	91	10	35
610273	-1	78	67
610601	-139	-6	54
610929	-110	-78	39
611257	-12	7	37
611585	2	85	39
611913	79	2	10
612241	68	12	13
612569	60	71	10
612897	3	80	13
613225	-38	74	33
613553	-38	100	54
613881	-71	83	47
614209	-105	48	48
614537	-72	88	39
614865	-38	78	45
615193	-79	96	45
615521	-77	74	35
615849	-65	74	21
616177	-13	105	30
616505	-53	131	24
616833	-108	92	4
617161	-125	75	-13
617489	-123	149	7
617817	-130	169	7
618145	-142	117	-12
618473	-120	123	-18
618801	-97	193	-26
619129	-78	195	-22
619457	-58	208	-10
619785	-90	237	-25
620113	-134	182	-58
620441	-134	151	-80
620769	-112	161	-64
621097	-135	194	-71
621425	-152	195	-65
621753	-172	187	-86
622081	-131	221	-97
622409	-97	217	-101
622737	-70	209	-98
623065	-14	181	-97
623393	-48	203	-85
623721	-50	256	-85
624049	-99	229	-64
624377	-72	173	-55
624705	0	165	-58
625033	57	129	-22
625361	108	174	8
625689	98	170	32
626017	89	124	40
626345	51	93	42
626673	29	80	54
627001	-20	100	40
627329	-41	108	31
627657	-23	133	20
627985	21	147	46
628313	82	147	47
628641	110	136	58
628969	56	128	53
629297	6	97	45
629625	-19	145	56
629953	-63	139	65
630281	-137	97	48
630609	-151	97	34
630937	-154	101	52
631265	-105	68	46
631593	-99	84	58
631921	-103	59	67
632249	-119	55	30
632577	-104	79	45
632905	-104	55	59
633233	-124	15	63
633561	-151	8	65
633889	-142	41	55
634217	-130	67	55
634545	-107	78	44
634873	-112	84	38
635201	-147	79	58
635529	-160	74	60
635857	-191	59	87
636185	-217	42	71
636513	-247	-32	50
636841	-163	-27	50
637169	-158	6	41
637497	-171	8	46
637825	-127	20	54
638153	-118	72	55
638481	-125	63	42
638809	-126	50	26
639137	-77	31	13
639465	-82	26	30
639793	-39	38	32
640121	-44	22	38
640449	12	33	59
640777	-14	50	52
641105	-21	-5	40
641433	-6	-13	57
641761	-21	13	52
642089	-13	29	53
642417	30	26	42
642745	75	46	37
643073	97	38	58
643401	114	61	51
643729	97	95	56
644057	59	59	20
644385	75	40	12
644713	110	90	19
645041	83	103	0
645369	91	113	-8
645697	81	135	-23
646025	79	138	-18
646353	90	146	-27
646681	48	111	-24
647009	1	89	-45
647337	-2	111	-40
647665	-76	134	-37
647993	-113	113	-41
648321	-167	116	-34
648649	-179	133	-43
648977	-194	139	-50
649305	-183	154	-53
649633	-159	123	-62
649961	-136	136	-64
650289	-141	157	-44
650617	-125	122	-71
650945	-139	122	-56
651273	-130	144	-72
651601	-105	117	-58
651929	-139	102	-62
652257	-83	128	-50
652585	-93	120	-57
652913	-85	103	-59
653241	-106	93	-58
653569	-131	84	-39
653897	-155	79	-35
654225	-198	89	-64
654553	-200	86	-54
654881	-179	62	-71
655209	-97	65	-52
655537	-16	78	-64
655865	26	93	-56
656193	62	123	-37
656521	36	99	-15
656849	-49	66	-4
657177	-63	24	1
657505	-56	-5	7
657833	-19	1	18
658161	34	21	37
658489	87	49	46
658817	96	32	58
659145	105	1	89
659473	55	22	98
659801	-13	-13	111
660129	-55	-31	124
660457	-71	-16	129
660785	-64	-39	134
661113	-39	-40	146
661441	-45	-63	171
661769	-58	-59	175
662097	-100	-33	201
662425	-81	-54	204
662753	-38	-9	197
663081	-32	-33	208
663409	6	-10	194
663737	33	14	214
664065	-45	21	217
664393	-63	-8	218
664721	-68	7	215
665049	-46	38	210
665377	-28	57	194
665705	-51	70	161
666033	-50	54	134
666361	-50	60	129
666689	-24	90	116
667017	-74	132	114
667345	-158	122	82
667673	-174	106	105
668001	-198	157	51
668329	-234	139	50
668657	-209	143	23
668985	-185	123	17
669313	-134	155	0
669641	-78	160	7
669969	-68	187	20
670297	-72	155	11
670625	-46	149	1
670953	-45	171	-5
671281	9	169	-4
671609	-60	162	-3
671937	-59	158	-8
672265	-43	188	-22
672593	-4	174	-14
672921	59	183	-22
673249	28	185	-27
673577	25	172	-32
673905	-24	176	-44
674233	-45	177	-20
674561	-9	171	-10
674889	-58	183	-18
675217	-59	147	-32
675545	-84	142	-35
675873	-76	112	-22
676201	-104	145	-27
676529	-110	143	-26
676857	-124	181	-39
677185	-49	188	-58
677513	-32	179	-56
677841	35	197	-58
678169	44	184	-59
678497	11	189	-48
678825	-63	182	-57
679153	-129	149	-57
679481	-206	81	-76
679809	-221	133	-69
680137	-200	166	-79
680465	-162	148	-85
680793	-142	150	-71
681121	-131	158	-61
681449	-179	133	-59
681777	-196	112	-66
682105	-175	100	-56
682433	-179	111	-72
682761	-162	77	-59
683089	-144	86	-49
683417	-159	107	-38
683745	-139	108	-44
684073	-125	117	-45
684401	-108	93	-54
684729	-121	79	-55
685057	-134	86	-47
685385	-159	90	-41
685713	-178	80	-40
686041	-247	84	-31
686369	-244	62	-38
686697	-213	85	-53
687025	-153	99	-48
687353	-150	116	-64
687681	-97	139	-57
688009	-102	117	-62
688337	-136	130	-48
688665	-184	146	-86
688993	-190	142	-55
689321	-179	137	-91
689649	-137	130	-53
689977	-113	167	-66
690305	-129	134	-73
690633	-147	131	-75
690961	-171	155	-79
691289	-174	146	-101
691617	-170	125	-100
691945	-118	143	-98
692273	-54	191	-116
692601	-59	243	-102
692929	-96	193	-85
693257	-152	172	-63
693585	-196	152	-89
693913	-199	169	-101
694241	-179	190	-94
694569	-166	215	-94
694897	-169	203	-107
695225	-164	174	-98
695553	-183	156	-102
695881	-208	176	-105
696209	-219	175	-108
696537	-211	164	-101
696865	-169	206	-109
697193	-164	202	-121
697521	-106	200	-126
697849	-84	202	-114
698177	-77	224	-99
698505	-110	207	-99
698833	-146	197	-100
699161	-149	187	-96
699489	-148	190	-95
699817	-137	202	-100
700145	-134	207	-104
700473	-91	210	-97
700801	-69	197	-103
701129	-46	205	-105
701457	-43	203	-106
701785	-64	190	-82
702113	-89	207	-94
702441	-95	223	-87
702769	-117	235	-96
703097	-105	198	-93
703425	-61	178	-93
703753	-37	215	-68
704081	-52	208	-67
704409	-73	185	-78
704737	-40	205	-74
705065	-96	200	-79
705393	-115	195	-73
705721	-95	196	-78
706049	-96	196	-69
706377	-80	185	-66
706705	-109	160	-54
707033	-145	176	-66
707361	-130	177	-71
707689	-147	190	-80
708017	-105	166	-76
708345	-55	192	-69
708673	-53	210	-59
709001	-81	200	-69
709329	-61	183	-56
709657	-84	202	-48
709985	-136	162	-39
710313	-130	134	-57
710641	-157	156	-43
710969	-165	156	-40
711297	-146	166	-53
711625	-135	175	-63
711953	-58	178	-70
712281	-24	190	-82
712609	-3	205	-70
712937	-12	215	-80
713265	-21	199	-75
713593	-51	221	-73
713921	-95	208	-69
714249	-154	220	-73
714577	-150	228	-71
714905	-127	247	-92
715233	-123	243	-89
715561	-120	227	-96
715889	-151	250	-99
716217	-157	223	-110
716545	-147	241	-124
716873	-156	274	-141
717201	-162	259	-146
717529	-185	283	-147
717857	-166	288	-154
718185	-163	311	-161
718513	-145	318	-167
718841	-150	292	-178
719169	-177	280	-185
719497	-183	281	-181
719825	-181	307	-196
720153	-189	325	-186
720481	-184	332	-207
720809	-162	310	-189
721137	-203	302	-182
721465	-229	292	-198
721793	-266	291	-184
722121	-250	279	-176
722449	-278	268	-188
722777	-252	279	-170
723105	-251	279	-177
723433	-227	262	-163
723761	-216	246	-151
724089	-189	231	-151
724417	-172	212	-149
724745	-198	200	-126
725073	-239	186	-126
725401	-279	162	-111
725729	-260	144	-125
726057	-266	148	-117
726385	-270	159	-102
726713	-249	152	-81
727041	-212	203	-79
727369	-194	311	-84
727697	-134	307	-80
728025	-185	297	-104
728353	-63	276	-164
728681	33	336	-242
729009	355	419	-324
729337	703	465	-406
729665	1056	513	-487
729993	1396	513	-514
730321	1545	496	-495
730649	1424	486	-428
730977	1180	435	-379
731305	753	397	-304
731633	397	366	-247
731961	154	317	-179
732289	-107	313	-76
732617	-268	427	-19
732945	-406	380	28
733273	-464	296	-8
733601	-335	212	-60
733929	-76	105	-94
734257	71	215	-79
734585	39	178	-46
734913	-100	88	0
735241	-349	74	28
735569	-541	-17	51
735897	-546	-17	47
736225	-476	13	53
736553	-299	80	39
736881	-165	75	74
737209	-66	123	103
737537	11	127	103
737865	83	114	102
738193	247	167	80
738521	364	155	69
738849	565	224	50
739177	700	285	10
739505	734	238	-14
739833	773	262	-28
740161	792	320	-56
740489	772	320	-56
740817	734	359	-51
741145	719	401	-107
741473	698	372	-158
741801	751	371	-192
742129	805	450	-210
742457	837	453	-205
742785	792	447	-239
743113	688	458	-245
743441	602	442	-271
743769	476	379	-271
744097	341	350	-256
744425	214	371	-234
744753	105	402	-289
745081	76	360	-289
745409	152	306	-345
745737	170	284	-331
746065	92	297	-273
746393	-61	296	-265
746721	-212	254	-248
747049	-276	168	-204
747377	-288	179	-233
747705	-301	250	-246
748033	-304	283	-258
748361	-322	273	-247
748689	-403	256	-220
749017	-498	185	-177
749345	-589	123	-130
749673	-622	122	-99
750001	-638	154	-98
750329	-666	139	-88
750657	-684	139	-84
750985	-712	138	-58
751313	-689	113	-45
751641	-684	100	-31
751969	-651	111	-48
752297	-625	97	-45
752625	-599	79	-59
752953	-556	49	-25
753281	-509	29	-30
753609	-522	60	-20
753937	-506	50	-37
754265	-500	37	-45
754593	-483	19	-47
754921	-416	54	-54
755249	-406	67	-75
755577	-400	65	-66
755905	-424	64	-82
756233	-445	64	-66
756561	-476	64	-78
756889	-533	56	-57
757217	-505	51	-92
757545	-549	38	-95
757873	-555	41	-88
758201	-572	49	-69
758529	-595	75	-93
758857	-649	85	-102
759185	-651	76	-121
759513	-673	103	-109
759841	-693	105	-98
760169	-700	100	-100
760497	-719	105	-94
760825	-667	89	-91
761153	-598	81	-106
761481	-475	96	-116
761809	-393	103	-110
762137	-342	106	-90
762465	-348	106	-66
762793	-436	96	-43
763121	-477	60	-39
763449	-502	28	-33
763777	-476	31	-25
764105	-450	34	-22
764433	-436	58	-10
764761	-385	107	-16
765089	-370	107	-29
765417	-292	104	-45
765745	-283	106	-28
766073	-232	125	-25
766401	-257	138	-8
766729	-247	151	-8
767057	-214	137	-28
767385	-115	115	-45
767713	6	177	-20
768041	89	260	-24
768369	114	290	-47
768697	139	256	-53
769025	166	269	-48
769353	176	306	-40
769681	169	304	-38
770009	144	309	-61
770337	172	327	-66
770665	185	320	-51
770993	148	298	-56
771321	105	304	-27
771649	57	271	-30
771977	-47	234	-35
772305	-51	271	-52
772633	-10	277	-77
772961	62	282	-100
773289	106	262	-94
773617	89	260	-99
773945	65	234	-91
774273	-22	216	-87
774601	-117	229	-105
774929	-151	209	-104
775257	-152	210	-90
775585	-116	222	-103
775913	-72	232	-99
776241	-99	235	-93
776569	-118	252	-103
776897	-100	217	-80
777225	-143	208	-85
777553	-115	164	-75
777881	-157	169	-67
778209	-166	161	-84
778537	-205	150	-58
778865	-146	170	-62
779193	-115	189	-75
779521	-30	173	-90
779849	7	185	-110
780177	28	180	-95
780505	-9	166	-63
780833	-52	138	-59
781161	-53	144	-34
781489	-46	136	-64
781817	-15	129	-45
782145	22	128	-59
782473	-4	133	-42
782801	4	144	-42
783129	-1	109	-41
783457	-9	108	-36
783785	16	115	-11
784113	-8	114	-15
784441	-15	137	-26
784769	8	138	-14
785097	-7	131	-1
785425	-9	113	-18
785753	-11	120	-34
786081	-36	133	-40
786409	-37	122	-31
786737	-67	142	-44
787065	-45	120	-36
787393	-47	144	-38
787721	-48	111	-35
788049	-66	124	-19
788377	-85	131	-22
788705	-124	113	-26
789033	-151	93	-25
789361	-136	99	-34
789689	-148	116	-20
790017	-158	115	-35
790345	-161	115	-41
790673	-156	113	-10
791001	-132	131	-16
791329	-134	111	-17
791657	-109	120	-23
791985	-110	126	-29
792313	-77	127	-16
792641	-66	121	-38
792969	-47	131	-24
793297	-69	109	-31
793625	-47	106	-31
793953	-59	119	-24
794281	-63	140	-44
794609	-57	144	-53
794937	-50	148	-63
795265	-45	141	-66
795593	-44	151	-73
795921	-49	145	-80
796249	-77	146	-73
796577	-100	133	-80
796905	-123	113	-81
797233	-100	144	-89
797561	-94	138	-87
797889	-66	136	-98
798217	-33	159	-93
798545	-44	164	-104
798873	-31	154	-101
799201	-74	154	-104
799529	-77	148	-93
799857	-83	134	-97
800185	-57	138	-87
800513	-38	147	-84
800841	-25	136	-79
801169	-28	130	-64
801497	3	119	-57
801825	0	137	-68
802153	27	135	-72
802481	10	139	-75
802809	-28	138	-76
803137	8	128	-53
803465	6	133	-51
803793	13	120	-47
804121	22	130	-55
804449	52	124	-58
804777	12	127	-39
805105	-15	118	-52
805433	-30	125	-45
805761	-33	123	-57
806089	-20	129	-67
806417	-23	106	-59
806745	-51	111	-57
807073	-79	97	-38
807401	-73	99	-41
807729	-54	101	-36
808057	-44	91	-44
808385	-29	104	-44
808713	-17	124	-35
809041	-15	109	-49
809369	-13	109	-38
809697	43	117	-36
810025	79	123	-48
810353	93	125	-36
810681	58	106	-28
811009	19	91	-15
811337	-12	93	-5
811665	-14	105	-31
811993	44	105	-21
812321	23	102	-30
812649	40	95	-32
812977	12	128	-32
813305	-20	93	-28
813633	-42	97	-33
813961	-61	101	-29
814289	-76	100	-33
814617	-61	99	-30
814945	-45	88	-43
815273	-64	117	-25
815601	-70	96	-48
815929	-83	95	-39
816257	-97	87	-47
816585	-82	102	-56
816913	-81	117	-51
817241	-93	112	-39
817569	-97	92	-43
817897	-76	99	-47
818225	-85	106	-49
818553	-96	111	-47
818881	-97	90	-45
819209	-120	94	-30
819537	-124	79	-37
819865	-107	88	-41
820193	-104	107	-41
820521	-55	108	-34
820849	-39	130	-50
821177	-32	139	-35
821505	5	143	-53
821833	44	140	-52
822161	65	136	-33
822489	16	129	-25
822817	8	135	-22
823145	1	134	-26
823473	10	134	-42
823801	82	131	-55
824129	97	170	-63
824457	143	169	-64
824785	158	170	-61
825113	119	162	-50
825441	75	133	-41
825769	57	134	-50
826097	6	132	-48
826425	0	111	-75
826753	11	134	-65
827081	33	139	-69
827409	4	132	-65
827737	-21	122	-93
828065	-68	119	-96
828393	-104	109	-93
828721	-145	121	-96
829049	-190	100	-94
829377	-220	94	-91
829705	-255	117	-87
830033	-287	120	-100
830361	-295	122	-99
830689	-298	119	-85
831017	-306	126	-110
831345	-334	95	-96
831673	-335	96	-108
832001	-377	99	-102
832329	-406	93	-97
832657	-411	97	-109
832985	-406	106	-121
833313	-387	106	-121
833641	-350	113	-111
833969	-350	127	-133
834297	-315	137	-129
834625	-336	108	-121
834953	-314	114	-133
835281	-313	113	-139
835609	-323	126	-151
835937	-287	130	-157
836265	-261	135	-160
836593	-260	161	-168
836921	-279	171	-174
837249	-260	202	-174
837577	-194	217	-198
837905	-182	254	-218
838233	-149	257	-208
838561	-115	267	-210
838889	-115	253	-212
839217	-68	242	-220
839545	-148	187	-199
839873	-190	190	-197
840201	-217	133	-198
840529	-238	129	-197
840857	-242	141	-205
841185	-259	112	-201
841513	-213	125	-193
841841	-154	126	-187
842169	-154	126	-187
842497	-97	165	-200
842825	-51	185	-163
843153	-18	172	-177
843481	-53	140	-154
843809	-88	102	-128
844137	-94	78	-82
844465	-143	50	-55
844793	-166	30	-35
845121	-161	1	-3
845449	-169	-28	15
845777	-155	-6	38
846105	-107	-18	52
846433	-86	-30	63
846761	-115	-69	95
847089	-142	-96	119
847417	-250	-86	170
847745	-285	-119	167
848073	-343	-118	161
848401	-340	-114	250
848729	-306	-120	115
849057	-304	-64	117
849385	-272	-44	115
849713	-269	-36	140
850041	-245	21	121
850369	-297	34	41
850697	-289	55	30
851025	-246	74	1
851353	-234	103	-21
851681	-257	112	7
852009	-274	128	-16
852337	-272	100	-23
852665	-280	135	-40
852993	-266	164	-56
853321	-265	175	-88
853649	-285	155	-92
853977	-288	174	-74
854305	-326	167	-51
854633	-352	170	-32
854961	-380	157	-44
855289	-331	153	-19
855617	-297	183	-58
855945	-250	159	-23
856273	-215	157	-11
856601	-204	137	19
856929	-236	123	14
857257	-225	119	28
857585	-195	99	34
857913	-176	124	22
858241	-73	129	3
858569	-43	143	5
858897	-14	101	24
859225	35	127	17
859553	11	139	18
859881	2	133	14
860209	2	127	-21
860537	-11	121	-33
860865	16	138	-51
861193	-13	146	-35
861521	31	185	-52
861849	50	200	-68
862177	51	198	-65
862505	36	170	-75
862833	37	171	-78
863161	5	159	-79
863489	-39	149	-84
863817	-69	172	-93
864145	-73	157	-65
864473	-79	163	-86
864801	-47	179	-103
865129	1	197	-76
865457	59	208	-98
865785	44	204	-109
866113	24	218	-96
866441	-5	196	-107
866769	-34	182	-104
867097	-62	193	-111
867425	-48	197	-108
867753	-37	186	-94
868081	-26	177	-69
868409	-39	181	-62
868737	-11	180	-48
869065	-23	181	-35
869393	-20	168	-29
869721	-25	158	-30
870049	-35	176	-16
870377	-67	161	-21
870705	-63	144	-17
871033	-84	154	-23
871361	-73	147	-7
871689	-69	171	10
872017	-66	164	2
872345	-51	180	8
872673	-35	179	-15
873001	-54	180	-17
873329	-30	177	-9
873657	-60	179	-4
873985	-64	183	-3
874313	-60	168	-22
874641	-52	177	-18
874969	-18	162	-19
875297	-24	190	-22
875625	-78	200	-15
875953	-76	158	-7
876281	-107	144	-23
876609	-122	147	-29
876937	-145	159	-23
877265	-188	162	-2
877593	-215	178	-8
877921	-190	159	-14
878249	-146	166	-8
878577	-110	162	-17
878905	-68	144	-20
879233	-64	165	-16
879561	-84	174	-24
879889	-109	147	-22
880217	-130	116	-24
880545	-171	81	-5
880873	-215	45	-10
881201	-215	48	-2
881529	-274	68	-16
881857	-238	90	-23
882185	-219	111	-37
882513	-211	133	-40
882841	-223	125	-30
883169	-231	141	-61
883497	-234	137	-72
883825	-298	129	-76
884153	-317	125	-70
884481	-287	114	-76
884809	-315	138	-72
885137	-265	132	-90
885465	-249	136	-104
885793	-218	154	-120
886121	-213	165	-122
886449	-216	158	-123
886777	-221	152	-129
887105	-231	160	-128
887433	-224	143	-120
887761	-220	144	-121
888089	-200	137	-126
888417	-210	152	-111
888745	-209	155	-112
889073	-207	123	-97
889401	-211	106	-86
889729	-171	119	-96
890057	-182	109	-58
890385	-143	122	-71
890713	-132	107	-69
891041	-108	128	-60
891369	-122	113	-44
891697	-93	107	-48
892025	-131	122	-39
892353	-102	108	-33
892681	-88	116	-33
893009	-94	124	-17
893337	-51	114	-51
893665	-71	135	-41
893993	-63	139	-40
894321	-57	123	-40
894649	-86	152	-31
894977	-89	136	-38
895305	-88	135	-40
895633	-76	141	-56
895961	-70	123	-49
896289	-78	136	-42
896617	-71	120	-40
896945	-74	118	-42
897273	-63	108	-38
897601	-52	115	-40
897929	-33	95	-26
898257	-5	115	-39
898585	-12	105	-23
898913	-4	105	-26
899241	-10	102	-19
899569	9	104	-18
899897	30	104	-10
900225	57	126	-8
900553	49	120	9
900881	56	114	20
901209	65	121	11
901537	89	116	11
901865	99	112	0
902193	119	122	8
902521	95	136	4
902849	76	114	17
903177	44	92	28
903505	27	92	13
903833	28	107	12
904161	21	103	5
904489	27	112	2
904817	11	120	16
905145	4	102	16
905473	-32	99	6
905801	-42	93	7
906129	-56	99	10
906457	-63	98	26
906785	-74	108	17
907113	-87	105	3
907441	-131	90	16
907769	-145	97	-2
908097	-145	86	-5
908425	-169	83	-12
908753	-167	80	-30
909081	-179	92	-25
909409	-167	65	-26
909737	-155	69	-22
910065	-117	80	-20
910393	-74	76	-27
910721	-34	86	-38
911049	-1	70	-16
911377	22	79	-17
911705	29	83	-18
912033	31	67	-5
912361	44	53	-18
912689	136	75	-2
913017	195	85	7
913345	238	69	9
913673	244	62	15
914001	245	68	32
914329	228	58	45
914657	227	29	50
914985	212	40	57
915313	231	25	75
915641	261	21	75
915969	255	47	91
916297	318	27	82
916625	348	39	78
916953	382	37	100
917281	349	20	117
917609	333	28	113
917937	284	55	87
918265	276	39	93
918593	300	48	81
918921	329	49	88
919249	316	28	86
919577	367	79	91
919905	350	65	103
920233	365	54	83
920561	323	84	62
920889	292	56	62
921217	237	35	55
921545	168	34	60
921873	110	56	71
922201	72	64	59
922529	55	76	34
922857	88	83	7
923185	138	103	-2
923513	180	131	-25
923841	121	123	-22
924169	109	106	-19
924497	41	129	-7
924825	-31	104	-12
925153	-83	115	-18
925481	-105	119	-27
925809	-122	124	-25
926137	-110	131	-38
926465	-130	113	-16
926793	-151	116	-3
927121	-196	80	8
927449	-244	121	4
927777	-263	102	0
928105	-322	95	14
928433	-339	76	5
928761	-381	109	15
929089	-369	105	3
929417	-489	116	8
929745	-563	107	-4
930073	-584	82	0
930401	-658	95	3
930729	-696	92	13
931057	-766	111	6
931385	-858	94	-30
931713	-844	140	-1
932041	-819	160	-10
932369	-784	162	-45
932697	-738	203	-128
933025	-732	241	-126
933353	-649	276	-161
933681	-560	329	-222
934009	-467	390	-237
934337	-419	437	-298
934665	-404	461	-370
934993	-447	485	-428
935321	-478	503	-493
935649	-467	547	-539
935977	-470	565	-591
936305	-367	608	-597
936633	-266	655	-625
936961	-148	720	-659
937289	-60	775	-689
937617	-65	748	-622
937945	-123	786	-719
938273	-412	667	-713
938601	-605	619	-841
938929	-571	546	-717
939257	-346	515	-596
939585	-285	619	-556
939913	-314	668	-548
940241	-207	768	-557
940569	58	905	-521
940897	319	875	-464
941225	360	848	-467
941553	141	728	-351
941881	-163	530	-286
942209	-681	426	-104
942537	-1155	191	-50
942865	-1368	207	-136
943193	-1474	127	-223
943521	-1415	17	-332
943849	-1324	-110	-294
944177	-1328	-91	-256
944505	-1403	-76	-271
944833	-1483	-133	-287
945161	-1566	-296	-311
945489	-1510	-305	-240
945817	-1488	-285	-241
946145	-1432	-282	-209
946473	-1349	-232	-243
946801	-1301	-329	-271
947129	-1148	-428	-233
947457	-1036	-451	-218
947785	-1024	-486	-212
948113	-934	-506	-240
948441	-780	-479	-231
948769	-616	-557	-162
949097	-477	-485	-250
949425	-453	-556	-255
949753	-465	-636	-260
950081	-610	-712	-217
950409	-726	-745	-174
950737	-738	-782	-159
951065	-627	-771	-181
951393	-456	-821	-203
951721	-209	-892	-211
952049	-4	-907	-153
952377	111	-869	-105
952705	217	-831	-87
953033	352	-856	-133
953361	510	-874	-249
953689	696	-962	-325
954017	713	-1064	-289
954345	734	-1088	-286
954673	746	-1152	-207
955001	862	-1246	-404
955329	996	-1378	-476
955657	1144	-1504	-437
955985	1152	-1498	-413
956313	1191	-1532	-487
956641	1205	-1587	-567
956969	1184	-1701	-682
957297	1166	-1828	-754
957625	1145	-1833	-784
957953	1122	-1842	-817
958281	1020	-1949	-892
958609	918	-2083	-1112
958937	774	-2211	-1280
959265	649	-2284	-1458
959593	460	-2329	-1694
959921	237	-2390	-1931
960249	31	-2448	-2177
960577	-8	-2550	-2451
960905	62	-2484	-2597
961233	184	-2413	-2700
961561	226	-2454	-2873
961889	97	-2445	-2829
962217	206	-2381	-3133
962545	-643	-2253	-2832
962873	-1020	-2287	-2958
963201	-1218	-2150	-2831
963529	-1426	-1852	-2653
963857	-1685	-1716	-2464
964185	-1742	-1369	-2372
964513	-2119	-1598	-2048
964841	-2487	-1449	-1717
965169	-2883	-1233	-1711
965497	-3803	-792	-2038
965825	-4747	-710	-2731
966153	-5534	45	-3240
966481	-6847	112	-3270
966809	-8607	64	-2783
967137	-10899	-568	-1751
967465	-12992	-1028	-881
967793	-14079	-834	-5
968121	-14453	-663	843
968449	-14130	-558	1877
968777	-13406	-294	2477
969105	-12272	-390	2942
969433	-10930	-627	3340
969761	-9968	-1002	3785
970089	-9375	-1195	4255
970417	-8411	-1443	4880
970745	-7295	-1671	5530
971073	-6117	-1602	6087
971401	-5105	-1969	6773
971729	-4608	-1948	7192
972057	-3546	-2546	7767
972385	-2518	-2514	7886
972713	-1982	-2334	8303
973041	-1979	-2045	8719
973369	-2542	-1960	8917
973697	-3186	-1863	9369
974025	-4160	-1746	9689
974353	-5174	-1780	9837
974681	-6479	-1379	10261
975009	-7178	-1261	9882
975337	-8409	-1703	9632
975665	-8514	-1855	9304
975993	-8323	-1965	8437
976321	-8137	-2100	7560
976649	-8052	-2230	6676
976977	-7921	-2209	6101
977305	-7686	-1956	5335
977633	-7469	-1650	4475
977961	-7357	-1131	3626
978289	-7110	-683	2698
978617	-6726	-383	1759
978945	-6250	55	972
979273	-5833	271	394
979601	-5412	691	-341
979929	-5221	738	-1141
980257	-4707	366	-1679
980585	-4244	-44	-1783
980913	-4063	365	-2373
981241	-3964	1440	-2823
981569	-3256	3942	-2979
981897	-3752	5223	-2604
982225	-4696	2073	-2032
982553	-5152	-1341	-2251
982881	-4550	-1366	-2398
983209	-2781	-94	-2531
983537	-553	555	-2679
983865	1558	1463	-2705
984193	2673	2363	-2369
984521	2470	2517	-2186
984849	1253	2057	-2148
985177	-267	1399	-1686
985505	-854	1182	-1724
985833	-1053	1066	-1675
986161	-739	490	-1358
986489	-377	477	-1190
986817	-208	774	-1191
987145	-19	850	-1134
987473	192	884	-1109
987801	58	836	-837
988129	-283	762	-1213
988457	-116	502	-1181
988785	-484	537	-1170
989113	-780	464	-1233
989441	-812	505	-1499
989769	-695	453	-1567
990097	-681	483	-1677
990425	-697	371	-1658
990753	-609	237	-1599
991081	-569	302	-1697
991409	-438	371	-1783
991737	-286	300	-1842
992065	-349	254	-1778
992393	-422	170	-1790
992721	-384	228	-1895
993049	-328	50	-1949
993377	-266	92	-2033
993705	-249	-21	-2018
994033	-119	43	-2112
994361	-54	225	-2237
994689	-54	146	-2266
995017	-64	147	-2362
995345	-144	179	-2419
995673	-178	220	-2527
996001	-210	252	-2523
996329	-234	211	-2615
996657	-215	136	-2648
996985	-290	148	-2777
997313	-407	203	-2956
997641	-401	306	-3222
997969	-335	398	-3478
998297	-279	462	-3678
998625	-199	820	-4028
998953	-163	1082	-4314
999281	-52	1342	-4788
999609	92	1645	-5345
999937	421	1866	-5753
1000265	986	2111	-6175
1000593	1662	2041	-6487
1000921	1462	1947	-6792
1001249	1206	1722	-6916
1001577	457	1169	-7071
1001905	-359	403	-6814
1002233	-1408	-501	-6413
1002561	-2737	-1392	-6019
1002889	-4356	-2147	-5358
1003217	-5787	-2894	-4459
1003545	-7942	-3648	-3080
1003873	-6219	-2705	-2096
1004201	-1648	-865	-684
1004529	-170	-773	597
1004857	14	-2308	1408
1005185	-35	-2785	1737
1005513	839	-2719	2219
1005841	1952	-2860	3178
1006169	2110	-2973	4259
1006497	1543	-3205	5605
1006825	566	-3272	6459
1007153	-287	-3266	7070
1007481	-1367	-3586	8130
1007809	-2375	-3560	8991
1008137	-3533	-3834	9664
1008465	-4520	-3968	10167
1008793	-4983	-4602	10567
1009121	-4859	-4914	10669
1009449	-4535	-4533	10679
1009777	-4365	-4283	10660
1010105	-4056	-3719	10441
1010433	-4193	-3521	10150
1010761	-4227	-3346	9764
1011089	-4130	-3206	9513
1011417	-3875	-2931	9329
1011745	-3627	-2634	8854
1012073	-3725	-2529	8270
1012401	-2973	-2385	7493
1012729	-2437	-2270	6925
1013057	-1987	-1991	6366
1013385	-1777	-1369	5978
1013713	-1880	-809	5196
1014041	-1816	-362	4288
1014369	-1757	72	3484
1014697	-1744	443	2679
1015025	-1975	820	1848
1015353	-2798	872	960
1015681	-3606	598	45
1016009	-4193	382	-566
1016337	-4523	355	-1145
1016665	-5365	913	-1656
1016993	-7501	1622	-2652
1017321	-8405	1677	-3060
1017649	-7750	1716	-2766
1017977	-7563	803	-1842
1018305	-6748	-403	-1056
1018633	-5366	-582	-938
1018961	-4323	226	-1417
1019289	-3151	1191	-1920
1019617	-1093	2369	-2296
1019945	738	3253	-2190
1020273	2114	2978	-2079
1020601	2636	2733	-2042
1020929	2202	2377	-1747
1021257	1175	2009	-1520
1021585	145	1679	-1329
1021913	-473	1429	-1206
1022241	-708	1276	-1040
1022569	-699	913	-848
1022897	-683	521	-835
1023225	-394	458	-896
1023553	248	743	-1011
1023881	669	1093	-1072
1024209	889	1213	-1125
1024537	774	1081	-1099
1024865	410	1122	-1150
1025193	298	913	-1130
1025521	-43	775	-1109
1025849	-315	564	-1100
1026177	-645	414	-1038
1026505	-332	376	-1370
1026833	-331	320	-1238
1027161	-264	573	-1262
1027489	-135	569	-1241
1027817	-3	605	-1234
1028145	27	534	-1194
1028473	94	349	-1174
1028801	117	289	-1274
1029129	160	542	-1337
1029457	267	572	-1334
1029785	277	329	-1241
1030113	206	216	-1373
1030441	183	371	-1453
1030769	74	277	-1458
1031097	83	451	-1643
1031425	75	697	-1760
1031753	-121	389	-1710
1032081	-244	124	-1635
1032409	-386	318	-1717
1032737	-474	348	-1780
1033065	-522	324	-1844
1033393	-688	116	-1839
1033721	-756	97	-1907
1034049	-715	278	-2084
1034377	-755	369	-2148
1034705	-777	401	-2170
1035033	-784	290	-2204
1035361	-676	376	-2300
1035689	-480	427	-2452
1036017	-394	406	-2520
1036345	-277	352	-2586
1036673	-191	461	-2713
1037001	-289	429	-2790
1037329	-257	367	-2873
1037657	-216	342	-2891
1037985	-272	173	-2908
1038313	-216	131	-2975
1038641	-73	238	-3051
1038969	120	303	-3095
1039297	290	392	-3201
1039625	467	432	-3348
1039953	652	453	-3510
1040281	589	650	-3754
1040609	-54	534	-3843
1040937	-585	-132	-4024
1041265	-733	-419	-4477
1041593	-555	-78	-4955
1041921	-444	62	-5328
1042249	-565	11	-5837
1042577	-663	238	-6297
1042905	-700	425	-6676
1043233	-549	621	-7139
1043561	-377	844	-7541
1043889	305	823	-7531
1044217	735	681	-7514
1044545	1408	460	-7214
1044873	2154	38	-6879
1045201	2268	-857	-6887
1045529	1536	-2427	-6839
1045857	-566	-3501	-6725
1046185	-2261	-3670	-6421
1046513	-5000	-3076	-5688
1046841	-6576	-2225	-4648
1047169	-5192	-1450	-2987
1047497	-6757	-2287	-1967
1047825	-7485	-4456	-956
1048153	-5657	-4187	-108
1048481	-3429	-2654	1188
1048809	-1603	-2352	2078
1049137	-47	-2765	2806
1049465	1316	-2853	3107
1049793	2191	-3244	4022
1050121	2900	-3407	5016
1050449	2156	-3635	5450
1050777	1911	-4341	6259
1051105	1268	-4866	6920
1051433	27	-5976	8757
1051761	-1715	-6042	9514
1052089	-3507	-6355	10244
1052417	-4899	-6549	10829
1052745	-4907	-7127	11345
1053073	-4850	-6785	11707
1053401	-4891	-6560	11929
1053729	-4476	-6389	11732
1054057	-5094	-6545	12152
1054385	-5611	-6439	12114
1054713	-6090	-6513	12304
1055041	-6532	-6637	12274
1055369	-7056	-6574	12178
1055697	-7271	-6654	12107
1056025	-7518	-6789	11784
1056353	-7448	-6701	11460
1056681	-6965	-6398	11171
1057009	-7060	-6028	11102
1057337	-7551	-5897	10935
1057665	-7661	-5516	11040
1057993	-7698	-4681	10647
1058321	-7568	-3994	10304
1058649	-7469	-3404	10142
1058977	-7689	-2909	9656
1059305	-7739	-2798	9062
1059633	-7406	-2316	8546
1059961	-6937	-1606	7993
1060289	-6680	-1051	7524
1060617	-6274	-806	7045
1060945	-5943	-976	6449
1061273	-6127	-1172	5960
1061601	-4926	-626	5539
1061929	-5117	-610	4943
1062257	-5977	-981	4740
1062585	-6952	-810	4311
1062913	-7642	-296	3697
1063241	-7887	186	2994
1063569	-7726	453	2506
1063897	-7511	636	2063
1064225	-7434	724	1699
1064553	-7688	824	1316
1064881	-8156	980	939
1065209	-8675	1231	485
1065537	-9235	1185	178
1065865	-9739	1040	-14
1066193	-10221	1060	-192
1066521	-10776	1053	-337
1066849	-10603	1198	-596
1067177	-9684	2210	-726
1067505	-8678	4267	-1304
1067833	-8628	5455	-225
1068161	-10704	1850	1861
1068489	-14074	-3846	1875
1068817	-15591	-6295	709
1069145	-13718	-4824	468
1069473	-9516	-2157	-113
1069801	-6576	1119	-600
1070129	-3870	2421	-1652
1070457	-705	2783	-1909
1070785	2345	3627	-1954
1071113	4299	4444	-2133
1071441	5245	4467	-2305
1071769	5569	4464	-2344
1072097	5777	4735	-2211
1072425	5641	5090	-1937
1072753	5438	5098	-1801
1073081	4256	4221	-1462
1073409	2160	2321	-1453
1073737	-386	573	-835
1074065	-2268	-104	-496
1074393	-3461	-212	-453
1074721	-3556	-8	-412
1075049	-2902	621	-604
1075377	-2113	1029	-691
1075705	-1563	1321	-751
1076033	-1459	1500	-739
1076361	-1599	1441	-744
1076689	-2029	1192	-756
1077017	-2539	977	-811
1077345	-3084	895	-713
1077673	-3398	909	-737
1078001	-3703	911	-721
1078329	-3515	843	-742
1078657	-3217	915	-879
1078985	-2879	691	-868
1079313	-2462	376	-793
1079641	-2349	324	-687
1079969	-2514	190	-557
1080297	-2708	-112	-407
1080625	-2915	21	-353
1080953	-2725	508	-490
1081281	-2569	278	-742
1081609	-1915	436	-1243
1081937	-1292	520	-1412
1082265	-1053	425	-1324
1082593	-1137	494	-1189
1082921	-1584	496	-1089
1083249	-2532	293	-630
1083577	-2504	323	-1043
1083905	-2626	30	-813
1084233	-2800	109	-644
1084561	-2301	20	-680
1084889	-1715	-58	-557
1085217	-1479	73	-583
1085545	-1515	25	-354
1085873	-1593	95	-428
1086201	-1578	47	-234
1086529	-1302	200	-387
1086857	-1020	39	-90
1087185	-539	180	-143
1087513	-41	246	-157
1087841	476	277	-166
1088169	709	298	-133
1088497	844	281	-100
1088825	926	215	-147
1089153	881	169	-210
1089481	762	71	-281
1089809	728	-50	-319
1090137	746	-130	-353
1090465	724	-245	-369
1090793	414	-377	-376
1091121	72	-458	-375
1091449	-167	-489	-398
1091777	-335	-521	-381
1092105	-487	-505	-468
1092433	-603	-522	-572
1092761	-734	-513	-599
1093089	-958	-540	-652
1093417	-1162	-608	-634
1093745	-1268	-708	-608
1094073	-1277	-789	-615
1094401	-1096	-834	-670
1094729	-1000	-809	-789
1095057	-1041	-1089	-486
1095385	-880	-928	-791
1095713	-876	-1094	-792
1096041	-829	-1114	-777
1096369	-644	-1071	-780
1096697	-473	-1031	-726
1097025	-332	-1046	-780
1097353	-133	-1056	-772
1097681	-55	-1012	-717
1098009	-1	-1035	-668
1098337	166	-1104	-664
1098665	244	-1111	-706
1098993	335	-1124	-668
1099321	210	-1275	-670
1099649	397	-1155	-780
1099977	480	-1167	-705
1100305	614	-1215	-746
1100633	696	-1300	-797
1100961	834	-1345	-871
1101289	840	-1430	-948
1101617	780	-1439	-980
1101945	750	-1573	-1003
1102273	818	-1790	-1050
1102601	848	-1930	-1051
1102929	864	-1899	-1125
1103257	909	-1846	-1241
1103585	991	-1810	-1386
1103913	1185	-1803	-1589
1104241	1451	-1814	-1746
1104569	1643	-1775	-1835
1104897	1742	-1780	-1947
1105225	1767	-1837	-2011
1105553	1843	-1847	-2038
1105881	1916	-1962	-2096
1106209	1958	-2079	-2172
1106537	1947	-2267	-2241
1106865	1767	-2454	-2190
1107193	1586	-2789	-2212
1107521	1229	-2932	-2228
1107849	869	-3072	-2092
1108177	807	-3123	-1958
1108505	832	-2949	-1737
1108833	1047	-2845	-1768
1109161	828	-3287	-1406
1109489	923	-3302	-1298
1109817	917	-3507	-1315
1110145	1097	-3564	-1172
1110473	1353	-3505	-1029
1110801	1816	-3405	-803
1111129	2017	-3409	-453
1111457	1990	-3452	58
1111785	1580	-3636	599
1112113	1163	-3868	1136
1112441	833	-4151	1669
1112769	803	-4299	2114
1113097	1361	-4084	2502
1113425	1255	-3704	2687
1113753	1729	-3698	2777
1114081	3338	-3659	2772
1114409	4136	-2871	2765
1114737	4639	-903	2723
1115065	3937	655	2269
1115393	2811	1298	2475
1115721	1844	2396	2604
1116049	401	3120	2755
1116377	-799	3639	2997
1116705	-1385	4324	3082
1117033	-1915	4779	3134
1117361	-2393	5129	3174
1117689	-2472	5720	3243
1118017	-2695	4314	3078
1118345	-1862	4841	2590
1118673	-709	4962	2736
1119001	-11	4820	2384
1119329	279	4394	2047
1119657	6	4508	1754
1119985	-413	4189	1530
1120313	-804	3547	1142
1120641	-992	3292	777
1120969	-922	3435	500
1121297	-764	3459	296
1121625	-738	3313	0
1121953	-748	3377	-378
1122281	-781	3495	-682
1122609	-1210	3402	-873
1122937	-2089	3126	-1056
1123265	-3111	2911	-1254
1123593	-4264	2616	-1309
1123921	-5247	2462	-1326
1124249	-6001	2316	-1406
1124577	-6199	2228	-1451
1124905	-6294	2499	-1337
1125233	-5804	3067	-1428
1125561	-5008	3877	-1387
1125889	-3602	4959	-1355
1126217	-2515	5710	-1338
1126545	-1982	5860	-1204
1126873	-1909	5100	-1165
1127201	-2115	4747	-1086
1127529	-2148	4543	-872
1127857	-1848	4222	-874
1128185	-1414	3612	-816
1128513	-922	3204	-742
1128841	-295	2903	-620
1129169	-95	2456	-603
1129497	-444	1907	-327
1129825	-374	2055	-492
1130153	1	2107	-372
1130481	-353	1960	-86
1130809	-526	1984	-51
1131137	-790	1560	105
1131465	-1304	1186	302
1131793	-1403	1095	212
1132121	-1225	1253	293
1132449	-1064	1048	311
1132777	-1007	496	291
1133105	-654	156	399
1133433	-197	62	396
1133761	282	-103	516
1134089	1600	-362	741
1134417	3296	-315	1047
1134745	4059	-173	1538
1135073	2937	-1262	2552
1135401	2404	-1998	3324
1135729	2038	-967	3657
1136057	1699	661	2946
1136385	585	2298	1586
1136713	-475	1268	884
1137041	149	-1640	1360
1137369	1319	-2653	2030
1137697	2066	-1824	2090
1138025	2083	-1369	2003
1138353	1469	-610	1650
1138681	685	332	1256
1139009	8	327	1038
1139337	-922	-203	1062
1139665	-1869	-719	949
1139993	-2202	-654	993
1140321	-2040	-266	846
1140649	-1828	-103	600
1140977	-1429	-31	422
1141305	-751	87	95
1141633	-324	130	67
1141961	-5	204	120
1142289	148	290	164
1142617	7	389	156
1142945	-246	295	221
1143273	-413	-10	324
1143601	-612	-416	477
1143929	-727	-586	649
1144257	-662	-509	577
1144585	-578	-479	477
1144913	-345	-402	411
1145241	-127	-360	419
1145569	-8	-443	517
1145897	-13	-414	566
1146225	-180	-303	503
1146553	-364	-444	501
1146881	-584	-732	503
1147209	-546	-955	512
1147537	-409	-969	464
1147865	-661	-1094	522
1148193	-449	-858	378
1148521	-349	-644	306
1148849	-254	-493	259
1149177	-212	-425	135
1149505	-47	-629	114
1149833	123	-722	73
1150161	99	-636	24
1150489	-48	-759	-1
1150817	-208	-980	-7
1151145	-314	-1038	-63
1151473	-400	-1156	-23
1151801	-314	-1090	-33
1152129	-259	-753	-91
1152457	-220	-608	-93
1152785	-62	-590	-94
1153113	30	-541	-55
1153441	-54	-765	-15
1153769	-197	-985	68
1154097	-513	-802	33
1154425	-852	-844	6
1154753	-844	-967	-53
1155081	-975	-1031	-60
1155409	-1139	-1230	-78
1155737	-1034	-1323	-14
1156065	-1021	-1003	-92
1156393	-1322	-774	-182
1156721	-1521	-921	-219
1157049	-1405	-981	-317
1157377	-1173	-718	-405
1157705	-822	-441	-536
1158033	-453	-212	-708
1158361	-178	-125	-856
1158689	66	-216	-999
1159017	135	-301	-1021
1159345	115	-394	-1017
1159673	172	-374	-1007
1160001	383	-203	-1151
1160329	877	42	-1387
1160657	1151	239	-1581
1160985	1884	549	-1746
1161313	2125	623	-1850
1161641	2488	1093	-1928
1161969	2209	609	-1994
1162297	1632	477	-2255
1162625	1210	-61	-2201
1162953	995	137	-2120
1163281	985	88	-2177
1163609	996	-25	-2106
1163937	957	-38	-1965
1164265	323	-392	-1771
1164593	481	200	-1698
1164921	1074	906	-1541
1165249	1284	1545	-1625
1165577	1307	2176	-1420
1165905	1561	2704	-1217
1166233	1448	2743	-1005
1166561	1056	2736	-702
1166889	707	3019	-276
1167217	-211	3035	55
1167545	-769	2933	570
1167873	-1197	2755	1159
1168201	-1584	2303	1663
1168529	-2272	1411	2153
1168857	-2496	690	2546
1169185	-1499	249	2797
1169513	-77	154	3053
1169841	1545	873	2943
1170169	1176	1771	2683
1170497	-736	1243	1924
1170825	-2852	-1478	1487
1171153	-3484	-3426	786
1171481	-2624	-2495	735
1171809	-1279	-1343	1161
1172137	-957	-1266	773
1172465	-995	-1675	556
1172793	-1035	-1768	852
1173121	-769	-1533	1041
1173449	-1026	-956	1003
1173777	-1154	-133	894
1174105	-367	260	519
1174433	699	236	543
1174761	1495	496	415
1175089	1869	879	170
1175417	1928	1024	8
1175745	1626	972	-151
1176073	1486	647	-267
1176401	1491	334	-473
1176729	1060	-45	-438
1177057	424	-197	-440
1177385	-259	-179	-361
1177713	-840	-119	-347
1178041	-1519	-180	-137
1178369	-1938	9	-164
1178697	-1965	225	-247
1179025	-1634	332	-363
1179353	-1127	516	-459
1179681	-520	683	-554
1180009	125	802	-652
1180337	393	806	-691
1180665	345	740	-707
1180993	53	582	-620
1181321	-447	509	-487
1181649	-1018	412	-323
1181977	-1490	213	-263
1182305	-1831	152	-229
1182633	-1946	32	-142
1182961	-1677	-105	-135
1183289	-1140	-37	-124
1183617	-676	113	-187
1183945	-204	192	-240
1184273	229	188	-207
1184601	473	216	-195
1184929	526	231	-246
1185257	357	107	-211
1185585	-53	-61	-55
1185913	-362	-118	-32
1186241	-657	17	-11
1186569	-840	189	-21
1186897	-695	417	-129
1187225	-350	205	-297
1187553	148	315	-441
1187881	599	497	-440
1188209	673	505	-365
1188537	409	482	-356
1188865	-44	331	-354
1189193	-464	276	-346
1189521	-687	307	-367
1189849	-589	412	-420
1190177	-313	501	-542
1190505	47	524	-650
1190833	515	725	-662
1191161	751	771	-741
1191489	716	676	-685
1191817	551	501	-676
1192145	272	156	-684
1192473	-154	-116	-548
1192801	-592	-225	-623
1193129	-729	-132	-673
1193457	-570	-31	-659
1193785	-374	3	-735
1194113	-53	25	-804
1194441	202	111	-848
1194769	424	100	-716
1195097	442	118	-554
1195425	276	133	-441
1195753	58	174	-371
1196081	-199	173	-302
1196409	-464	94	-284
1196737	-601	85	-230
1197065	-782	21	-195
1197393	-932	19	-194
1197721	-1016	-25	-193
1198049	-996	-76	-172
1198377	-904	-38	-207
1198705	-831	28	-213
1199033	-692	98	-213
1199361	-565	99	-247
1199689	-456	144	-303
1200017	-405	140	-322
1200345	-409	184	-346
1200673	-469	175	-350
1201001	-560	181	-364
1201329	-646	232	-397
1201657	-668	245	-427
1201985	-749	243	-460
1202313	-786	253	-463
1202641	-690	275	-483
1202969	-522	327	-527
1203297	-393	392	-552
1203625	-280	406	-548
1203953	-161	437	-565
1204281	-64	464	-554
1204609	42	436	-520
1204937	120	392	-482
1205265	100	387	-441
1205593	41	299	-399
1205921	11	226	-347
1206249	24	261	-309
1206577	75	285	-306
1206905	55	203	-284
1207233	13	218	-264
1207561	-98	218	-234
1207889	-166	205	-227
1208217	-226	215	-203
1208545	-306	169	-178
1208873	-323	157	-133
1209201	-319	160	-165
1209529	-372	115	-157
1209857	-408	78	-132
1210185	-428	88	-98
1210513	-403	78	-87
1210841	-406	106	-62
1211169	-409	104	-73
1211497	-383	119	-96
1211825	-395	105	-91
1212153	-407	108	-81
1212481	-420	115	-57
1212809	-431	138	-62
1213137	-496	119	-64
1213465	-522	124	-55
1213793	-547	118	-60
1214121	-552	117	-56
1214449	-543	106	-44
1214777	-490	106	-1
1215105	-510	122	-12
1215433	-487	117	-5
1215761	-470	120	54
1216089	-416	122	-12
1216417	-395	148	14
1216745	-284	159	83
1217073	-258	157	53
1217401	-189	195	86
1217729	-162	161	74
1218057	-152	130	112
1218385	-131	148	97
1218713	-148	158	109
1219041	-196	101	180
1219369	-209	101	122
1219697	-243	103	144
1220025	-226	128	162
1220353	-238	122	131
1220681	-182	128	135
1221009	-176	119	169
1221337	-197	119	115
1221665	-218	151	117
1221993	-209	169	121
1222321	-197	189	113
1222649	-178	238	88
1222977	-155	243	106
1223305	-114	236	110
1223633	-115	239	109
1223961	-133	199	116
1224289	-145	134	104
1224617	-87	115	69
1224945	-50	93	72
1225273	-47	92	51
1225601	-60	108	48
1225929	-120	114	58
1226257	-168	186	50
1226585	-200	223	32
1226913	-179	229	28
1227241	-149	199	25
1227569	-145	206	-1
1227897	-100	176	56
1228225	-34	138	-11
1228553	-15	169	24
1228881	-12	154	32
1229209	-40	124	33
1229537	-60	147	36
1229865	-68	118	29
1230193	-101	68	43
1230521	-109	90	53
1230849	-141	92	53
1231177	-165	112	69
1231505	-208	97	33
1231833	-215	99	57
1232161	-218	99	43
1232489	-227	107	51
1232817	-242	104	48
1233145	-257	108	41
1233473	-287	121	26
1233801	-271	94	62
1234129	-200	112	-3
1234457	-172	132	-31
1234785	-111	107	-75
1235113	-117	108	-80
1235441	-145	134	-82
1235769	-214	120	-48
1236097	-249	98	-96
1236425	-230	95	-125
1236753	-159	123	-163
1237081	-104	137	-184
1237409	-92	121	-207
1237737	-43	106	-220
1238065	85	133	-256
1238393	180	189	-310
1238721	218	196	-356
1239049	193	170	-339
1239377	173	184	-326
1239705	120	176	-339
1240033	109	204	-370
1240361	85	233	-396
1240689	55	252	-385
1241017	-27	215	-360
1241345	-126	184	-323
1241673	-239	187	-312
1242001	-328	193	-306
1242329	-394	194	-304
1242657	-491	194	-282
1242985	-495	173	-289
1243313	-565	172	-283
1243641	-645	145	-247
1243969	-712	142	-245
1244297	-757	168	-232
1244625	-843	134	-224
1244953	-937	113	-193
1245281	-1042	106	-196
1245609	-1121	78	-179
1245937	-1229	70	-190
1246265	-1346	36	-151
1246593	-1448	34	-168
1246921	-1504	40	-149
1247249	-1576	29	-145
1247577	-1588	17	-148
1247905	-1581	9	-174
1248233	-1563	-11	-188
1248561	-1574	-41	-153
1248889	-1584	-64	-119
1249217	-1606	-106	-122
1249545	-1619	-129	-140
1249873	-1655	-131	-140
1250201	-1624	-145	-107
1250529	-1546	-158	-136
1250857	-1479	-144	-76
1251185	-1364	-138	-86
1251513	-1273	-111	-92
1251841	-1136	-108	-106
1252169	-1031	-108	-106
1252497	-950	-97	-91
1252825	-865	-117	-82
1253153	-772	-82	-82
1253481	-664	-75	-72
1253809	-516	-94	-99
1254137	-392	-73	-101
1254465	-234	-55	-81
1254793	-114	-24	-88
1255121	-47	-16	-99
1255449	-38	16	-86
1255777	-30	36	-78
1256105	-89	54	-70
1256433	-167	18	-60
1256761	-236	13	-65
1257089	-279	27	-48
1257417	-258	59	-75
1257745	-230	118	-75
1258073	-191	132	-56
1258401	-160	147	-39
1258729	-171	113	-87
1259057	-99	86	-88
1259385	-62	90	-88
1259713	-17	114	-90
1260041	61	153	-106
1260369	142	200	-68
1260697	175	213	-64
1261025	209	233	-63
1261353	226	237	-74
1261681	235	234	-65
1262009	287	264	-51
1262337	346	278	-17
1262665	406	304	-8
1262993	473	261	-9
1263321	576	272	-11
1263649	659	265	-1
1263977	726	224	5
1264305	800	223	47
1264633	874	219	74
1264961	993	248	85
1265289	1080	237	84
1265617	1135	245	81
1265945	1159	245	72
1266273	1158	229	71
1266601	1117	237	100
1266929	1114	230	112
1267257	1079	222	110
1267585	1081	191	122
1267913	1052	227	101
1268241	985	212	145
1268569	889	191	129
1268897	814	174	168
1269225	760	175	158
1269553	686	184	142
1269881	609	166	137
1270209	468	134	138
1270537	344	84	169
1270865	232	54	150
1271193	107	55	148
1271521	36	49	156
1271849	-30	53	151
1272177	-91	34	155
1272505	-93	2	129
1272833	-131	5	128
1273161	-162	-18	132
1273489	-208	-20	128
1273817	-200	4	108
1274145	-180	14	120
1274473	-141	21	101
1274801	-78	12	31
1275129	-43	41	66
1275457	16	40	64
1275785	80	36	49
1276113	137	62	36
1276441	119	72	33
1276769	133	75	27
1277097	124	66	46
1277425	111	61	35
1277753	117	20	42
1278081	109	46	32
1278409	134	57	-15
1278737	163	68	21
1279065	151	78	6
1279393	142	103	38
1279721	126	97	33
1280049	103	59	41
1280377	53	38	51
1280705	23	28	38
1281033	-25	40	57
1281361	-56	56	46
1281689	-86	61	49
1282017	-64	92	40
1282345	-69	129	27
1282673	-69	119	21
1283001	-83	110	-5
1283329	-110	116	22
1283657	-145	106	13
1283985	-147	116	17
1284313	-152	124	-2
1284641	-119	91	-6
1284969	-110	119	-3
1285297	-91	120	-19
1285625	-64	134	-35
1285953	-13	154	-44
1286281	-2	159	-45
1286609	1	149	-59
1286937	17	163	-71
1287265	20	140	-60
1287593	45	166	-55
1287921	33	181	-53
1288249	-13	158	-76
1288577	-15	152	-77
1288905	-41	163	-69
1289233	-44	159	-80
1289561	-59	170	-78
1289889	-100	172	-59
1290217	-122	178	-71
1290545	-141	181	-55
1290873	-159	200	-62
1291201	-195	184	-55
1291529	-218	176	-56
1291857	-290	165	-34
1292185	-311	136	-36
1292513	-304	138	-14
1292841	-325	129	-12
1293169	-284	117	-6
1293497	-274	141	-6
1293825	-235	141	-1
1294153	-219	155	-11
1294481	-224	156	-3
1294809	-216	144	-1
1295137	-220	137	4
1295465	-183	149	20
1295793	-180	142	17
1296121	-169	144	29
1296449	-139	165	20
1296777	-122	153	16
1297105	-97	176	35
1297433	-61	173	36
1297761	-41	193	40
1298089	-3	178	50
1298417	23	195	52
1298745	54	215	48
1299073	100	197	57
1299401	126	199	57
1299729	140	209	71
1300057	197	186	56
1300385	197	200	90
1300713	289	207	94
1301041	312	201	83
1301369	363	207	110
1301697	350	184	112
1302025	389	176	124
1302353	426	183	118
1302681	450	189	109
1303009	503	167	138
1303337	525	193	122
1303665	594	196	78
1303993	538	129	125
1304321	591	117	110
1304649	626	100	106
1304977	697	136	73
1305305	612	114	143
1305633	552	106	111
1305961	455	108	131
1306289	389	92	96
1306617	340	90	128
1306945	280	92	130
1307273	242	106	139
1307601	219	103	131
1307929	191	101	128
1308257	175	98	107
1308585	128	122	99
1308913	78	116	82
1309241	39	139	85
1309569	-15	139	71
1309897	-39	153	77
1310225	-63	181	67
1310553	-28	208	50
1310881	6	181	30
1311209	10	206	7
1311537	26	214	8
1311865	44	190	13
1312193	2	185	8
1312521	-31	195	10
1312849	-30	173	-41
1313177	-135	151	17
1313505	-141	156	21
1313833	-186	181	16
1314161	-174	152	-5
1314489	-158	154	-11
1314817	-131	186	-2
1315145	-12	208	-27
1315473	83	207	-47
1315801	185	227	-66
1316129	270	208	-75
1316457	367	232	-72
1316785	442	270	-87
1317113	432	257	-116
1317441	473	245	-174
1317769	382	261	-131
1318097	413	283	-174
1318425	347	341	-219
1318753	346	378	-256
1319081	408	399	-354
1319409	497	461	-401
1319737	560	466	-456
1320065	619	512	-472
1320393	698	553	-501
1320721	799	629	-609
1321049	813	701	-707
1321377	804	741	-745
1321705	803	764	-812
1322033	767	808	-870
1322361	768	898	-989
1322689	768	1035	-1165
1323017	713	1138	-1259
1323345	710	1251	-1379
1323673	612	1478	-1563
1324001	408	1507	-1647
1324329	104	1585	-1693
1324657	-262	1683	-1973
1324985	-623	1847	-2084
1325313	-1040	2018	-2262
1325641	-1356	2146	-2384
1325969	-1866	2063	-2492
1326297	-2150	1854	-2965
1326625	-2181	1916	-3393
1326953	-1877	1949	-3529
1327281	-1698	1897	-3675
1327609	-2035	2126	-3761
1327937	-1819	2556	-3941
1328265	-2132	2837	-4001
1328593	-2380	2916	-3878
1328921	-2706	2641	-3853
1329249	-3063	1780	-3974
1329577	-2672	1300	-4354
1329905	-1877	901	-5020
1330233	-1800	-154	-4023
1330561	-1484	-728	-3365
1330889	-473	-689	-2805
1331217	418	218	-2582
1331545	527	2039	-2504
1331873	111	3379	-2593
1332201	-102	3615	-2326
1332529	215	2991	-2310
1332857	776	2038	-2145
1333185	809	1046	-1760
1333513	1015	483	-1600
1333841	1750	1160	-899
1334169	1774	1870	8
1334497	883	480	1469
1334825	217	-1016	2715
1335153	-159	-2055	3799
1335481	-686	-3457	4851
1335809	-441	-4595	5172
1336137	980	-4543	5254
1336465	2102	-4339	6000
1336793	2734	-3128	5828
1337121	4141	-2873	5827
1337449	5197	-4229	6191
1337777	5917	-5255	6063
1338105	5703	-7563	6881
1338433	7916	-8893	6924
1338761	8453	-11121	8421
1339089	4649	-13155	8311
1339417	-3490	-9237	6521
1339745	-8672	-5062	4284
1340073	-8993	-999	1600
1340401	-5208	1690	-598
1340729	-1087	1792	-1341
1341057	2581	1349	-1015
1341385	5492	1223	-800
1341713	7163	791	-828
1342041	7577	1269	-34
1342369	7638	1960	-5
1342697	6687	2186	-298
1343025	5526	1916	-387
1343353	5003	1387	-787
1343681	4632	947	-608
1344009	3933	796	-275
1344337	2985	447	-251
1344665	1935	468	-326
1344993	1417	817	-718
1345321	1499	1359	-1253
1345649	1388	1931	-1670
1345977	1279	1752	-2220
1346305	864	1168	-2656
1346633	434	-997	-2995
1346961	2752	-10	-2552
1347289	1133	4858	-6288
1347617	-1967	13674	-13768
1347945	-354	28584	-13779
1348273	1966	22156	-9572
1348601	2901	1271	8781
1348929	4418	10446	7810
1349257	-4003	8148	-628
1349585	-16008	-18550	-2704
1349913	-27638	-21671	-16525
1350241	-20791	-20765	-6980
1350569	-9224	-10743	2365
1350897	-71	1244	1749
1351225	5812	2565	3246
1351553	8347	1916	3977
1351881	8820	5830	2389
1352209	7902	7652	1349
1352537	7424	3931	3563
1352865	7262	1457	3753
1353193	6588	-1276	3958
1353521	5374	-4323	3887
1353849	3939	-6058	2332
1354177	1196	-4519	2686
1354505	-3599	-7908	3611
1354833	-5826	-11858	4034
1355161	-7445	-8890	2768
1355489	-8219	-4594	3088
1355817	-8812	-1468	3441
1356145	-8172	-529	2540
1356473	-7078	-252	2481
1356801	-5471	136	2589
1357129	-3912	1057	3098
1357457	-3879	1367	2376
1357785	-2666	744	2593
1358113	-3024	1127	1967
1358441	-3436	3646	881
1358769	-2233	6018	-722
1359097	-1992	-3060	185
1359425	-1375	-7566	3047
1359753	216	-3724	4406
1360081	1950	-3004	3210
1360409	1842	-1673	932
1360737	1242	64	-917
1361065	273	728	-787
1361393	620	823	-42
1361721	1220	436	157
1362049	1382	-64	162
1362377	1788	-69	176
1362705	1734	275	189
1363033	1765	594	82
1363361	1695	1199	35
1363689	1049	1173	317
1364017	-207	550	544
1364345	-1208	-414	1102
1364673	-2432	-814	1159
1365001	-2971	-1388	1392
1365329	-3157	-1254	1397
1365657	-2489	-831	1218
1365985	-1984	-410	1214
1366313	-1157	-364	1037
1366641	167	-207	131
1366969	443	-44	97
1367297	733	-232	472
1367625	1325	235	430
1367953	1488	141	580
1368281	1264	425	237
1368609	1057	346	195
1368937	711	167	88
1369265	512	392	-64
1369593	451	234	21
1369921	490	402	-165
1370249	467	506	-239
1370577	555	505	-328
1370905	742	460	-194
1371233	762	494	-96
1371561	902	636	-165
1371889	708	615	-230
1372217	484	609	-284
1372545	183	656	-216
1372873	6	587	-126
1373201	-215	570	-96
1373529	-476	471	-38
1373857	-654	282	16
1374185	-767	205	-5
1374513	-771	212	-28
1374841	-772	149	-54
1375169	-643	234	-100
1375497	-549	386	-80
1375825	-418	406	-50
1376153	-401	287	-26
1376481	-392	215	-26
1376809	-406	161	-3
1377137	-420	129	22
1377465	-398	-50	139
1377793	-317	-149	142
1378121	-238	-53	64
1378449	-63	77	-6
1378777	92	76	6
1379105	96	160	-36
1379433	30	107	-36
1379761	-71	101	-58
1380089	-163	168	-23
1380417	-274	186	-9
1380745	-308	119	-17
1381073	-250	120	-10
1381401	-169	143	-42
1381729	-112	93	-91
1382057	-103	116	-151
1382385	-103	121	-132
1382713	-68	178	-124
1383041	-74	261	-149
1383369	-80	229	-167
1383697	-148	224	-187
1384025	-223	233	-175
1384353	-338	231	-194
1384681	-432	224	-170
1385009	-434	297	-227
1385337	-467	268	-220
1385665	-498	234	-249
1385993	-606	214	-265
1386321	-630	208	-258
1386649	-657	172	-245
1386977	-569	267	-284
1387305	-473	277	-270
1387633	-324	250	-344
1387961	-216	273	-356
1388289	-121	267	-345
1388617	-65	301	-334
1388945	-25	277	-314
1389273	-17	309	-314
1389601	-31	288	-348
1389929	-13	220	-336
1390257	21	178	-351
1390585	102	189	-325
1390913	-25	125	-254
1391241	-79	120	-320
1391569	-320	49	-151
1391897	-218	210	-263
1392225	-347	-86	-264
1392553	-328	131	-261
1392881	-256	233	-352
1393209	-307	160	-352
1393537	-272	115	-308
1393865	-233	181	-368
1394193	-258	171	-335
1394521	-193	251	-375
1394849	-231	223	-384
1395177	-227	199	-410
1395505	-146	262	-445
1395833	-94	191	-428
1396161	-57	228	-433
1396489	-46	220	-430
1396817	-67	196	-420
1397145	-74	274	-462
1397473	-72	280	-450
1397801	16	303	-482
1398129	209	367	-551
1398457	487	549	-667
1398785	658	679	-680
1399113	999	613	-638
1399441	917	908	-566
1399769	797	798	-462
1400097	601	526	-349
1400425	362	522	-338
1400753	177	327	-240
1401081	23	300	-117
1401409	-197	166	95
1401737	-312	143	257
1402065	-481	328	355
1402393	-580	414	296
1402721	-305	140	253
1403049	69	163	67
1403377	426	310	47
1403705	728	435	112
1404033	782	574	72
1404361	503	529	38
1404689	291	445	-2
1405017	285	512	44
1405345	195	292	33
1405673	58	83	-6
1406001	133	51	-60
1406329	-25	-271	-74
1406657	-126	-467	-124
1406985	-378	-407	-132
1407313	-589	-442	-115
1407641	-631	-251	-214
1407969	-374	85	-310
1408297	106	308	-256
1408625	539	375	-134
1408953	825	283	-162
1409281	1110	378	-220
1409609	1255	336	-239
1409937	1117	357	-239
1410265	785	405	-230
1410593	292	385	-155
1410921	-127	266	-127
1411249	-421	241	-102
1411577	-560	233	-77
1411905	-571	269	-66
1412233	-503	246	-73
1412561	-349	263	-24
1412889	-145	327	14
1413217	-61	341	23
1413545	10	318	4
1413873	0	275	36
1414201	43	246	36
1414529	138	227	44
1414857	276	204	78
1415185	369	181	98
1415513	482	145	47
1415841	500	139	93
1416169	444	144	78
1416497	406	123	102
1416825	400	129	81
1417153	419	121	61
1417481	406	126	67
1417809	394	82	84
1418137	355	78	82
1418465	268	112	113
1418793	190	159	85
1419121	161	181	88
1419449	156	147	121
1419777	38	55	127
1420105	60	46	92
1420433	93	78	93
1420761	147	54	68
1421089	140	23	106
1421417	113	60	113
1421745	32	72	110
1422073	-41	82	111
1422401	-79	76	100
1422729	-111	46	87
1423057	-121	83	74
1423385	-130	89	78
1423713	-132	91	65
1424041	-184	86	64
1424369	-232	89	52
1424697	-279	79	63
1425025	-310	90	51
1425353	-300	110	77
1425681	-296	70	47
1426009	-303	43	69
1426337	-342	30	66
1426665	-302	77	72
1426993	-234	116	56
1427321	-191	92	25
1427649	-113	67	5
1427977	-21	66	65
1428305	20	58	17
1428633	77	41	35
1428961	99	36	31
1429289	131	30	20
1429617	148	25	-19
1429945	176	20	24
1430273	230	8	26
1430601	220	10	56
1430929	245	37	16
1431257	193	35	33
1431585	179	35	34
1431913	150	11	36
1432241	82	-3	53
1432569	44	-7	54
1432897	8	-27	66
1433225	-14	-38	51
1433553	-25	-64	87
1433881	-101	-82	114
1434209	-141	-91	111
1434537	-180	-40	109
1434865	-218	-13	126
1435193	-211	-48	108
1435521	-184	-17	98
1435849	-179	-26	82
1436177	-211	-82	101
1436505	-265	-83	101
1436833	-348	-114	109
1437161	-431	-99	126
1437489	-444	-79	77
1437817	-449	-53	62
1438145	-385	-47	68
1438473	-364	-38	26
1438801	-259	26	-17
1439129	-191	44	-7
1439457	-189	3	-25
1439785	-173	20	-58
1440113	-238	40	-25
1440441	-262	44	-55
1440769	-286	93	-67
1441097	-308	124	-66
1441425	-278	114	-79
1441753	-254	122	-93
1442081	-231	151	-93
1442409	-196	143	-91
1442737	-140	119	-55
1443065	-167	77	-22
1443393	-161	40	-21
1443721	-103	-19	-10
1444049	-18	-2	14
1444377	16	15	51
1444705	18	-14	47
1445033	18	-23	46
1445361	56	8	39
1445689	67	55	47
1446017	64	96	31
1446345	56	100	2
1446673	48	57	-30
1447001	25	18	-57
1447329	-33	7	-69
1447657	-72	-8	-106
1447985	-121	14	-117
1448313	-219	34	-144
1448641	-262	92	-198
1448969	-304	61	-176
1449297	-315	106	-225
1449625	-362	134	-251
1449953	-492	125	-279
1450281	-605	144	-247
1450609	-771	168	-260
1450937	-914	156	-255
1451265	-1009	176	-281
1451593	-1000	191	-306
1451921	-935	211	-323
1452249	-820	246	-342
1452577	-689	286	-348
1452905	-565	326	-336
1453233	-418	321	-328
1453561	-329	313	-317
1453889	-249	316	-272
1454217	-159	307	-272
1454545	-88	321	-251
1454873	21	317	-240
1455201	121	301	-224
1455529	204	292	-206
1455857	245	280	-194
1456185	268	265	-189
1456513	274	248	-177
1456841	264	223	-143
1457169	246	201	-121
1457497	232	209	-100
1457825	205	183	-76
1458153	144	137	-118
1458481	115	100	-48
1458809	124	84	-70
1459137	137	53	-68
1459465	167	34	-60
1459793	201	75	-63
1460121	180	86	-71
1460449	184	66	-69
1460777	197	52	-64
1461105	278	32	-59
1461433	407	52	-131
1461761	500	101	-153
1462089	557	116	-88
1462417	585	143	-135
1462745	570	162	-134
1463073	610	134	-136
1463401	700	163	-181
1463729	825	238	-216
1464057	847	233	-183
1464385	894	175	-219
1464713	900	234	-298
1465041	866	188	-241
1465369	820	215	-272
1465697	752	200	-279
1466025	682	197	-254
1466353	628	206	-263
1466681	565	229	-262
1467009	543	267	-250
1467337	482	243	-244
1467665	370	221	-262
1467993	291	243	-242
1468321	253	306	-244
1468649	229	363	-280
1468977	306	455	-298
1469305	306	526	-358
1469633	326	510	-322
1469961	272	507	-290
1470289	183	539	-314
1470617	-7	652	-379
1470945	-238	813	-397
1471273	-569	981	-430
1471601	-666	924	-480
1471929	-780	830	-470
1472257	-940	585	-388
1472585	-1085	268	-204
1472913	-1361	-55	28
1473241	-1818	-551	165
1473569	-2823	-1203	129
1473897	-3167	-2230	-31
1474225	-2527	-2854	-98
1474553	-2785	-3585	197
1474881	-3176	-4724	386
1475209	-3341	-5065	483
1475537	-3245	-4175	620
1475865	-3396	-3216	521
1476193	-3519	-2831	565
1476521	-2915	-2498	407
1476849	-1714	-1923	121
1477177	602	-891	-160
1477505	3392	-249	-760
1477833	6697	-315	-965
1478161	9741	1	-2024
1478489	11935	359	-2311
1478817	13208	660	-2786
1479145	13707	852	-3010
1479473	13652	865	-2934
1479801	13166	704	-2900
1480129	12233	245	-2637
1480457	10907	-525	-2253
1480785	9360	-1202	-1970
1481113	7644	-1496	-1901
1481441	6152	-1704	-1869
1481769	5359	-1746	-1730
1482097	4734	-1710	-1557
1482425	4188	-1767	-1411
1482753	3845	-1606	-1372
1483081	3456	-1522	-1394
1483409	2963	-1585	-1346
1483737	2183	-1533	-1175
1484065	1338	-1445	-1023
1484393	494	-1509	-856
1484721	-513	-1594	-675
1485049	-1399	-1549	-645
1485377	-2121	-1515	-650
1485705	-2808	-1379	-401
1486033	-3502	-1068	87
1486361	-4528	-552	547
1486689	-5571	-84	745
1487017	-6181	358	783
1487345	-6374	373	791
1487673	-6000	957	793
1488001	-5421	3085	116
1488329	-2072	5321	-1190
1488657	1310	6412	-2110
1488985	4540	6183	-2113
1489313	9042	5993	-2117
1489641	10886	5674	-2127
1489969	9932	5914	-813
1490297	8642	5673	-506
1490625	5392	5339	-101
1490953	-1141	4405	191
1491281	-7165	1480	927
1491609	-11672	-1622	1378
1491937	-13741	-2980	1581
1492265	-13312	-2463	1511
1492593	-11182	-1875	1567
1492921	-8527	-1462	1545
1493249	-5702	-443	1323
1493577	-3396	198	932
1493905	-1593	1045	744
1494233	-707	1644	569
1494561	-728	2035	507
1494889	-1661	2057	490
1495217	-2770	1794	523
1495545	-3589	1400	740
1495873	-3996	1343	885
1496201	-3826	1272	979
1496529	-3397	1320	983
1496857	-2746	886	902
1497185	-1859	752	838
1497513	-1033	904	970
1497841	-812	703	1027
1498169	-930	268	1090
1498497	-1147	278	972
1498825	-1304	346	883
1499153	-1506	357	795
1499481	-1888	192	760
1499809	-1955	110	642
1500137	-1380	112	539
1500465	-1141	610	430
1500793	-1059	516	416
1501121	-1003	315	335
1501449	-1023	413	335
1501777	-1011	448	289
1502105	-1101	323	230
1502433	-1282	287	249
1502761	-1266	309	226
1503089	-1269	281	288
1503417	-1289	229	290
1503745	-1231	202	326
1504073	-901	151	276
1504401	-532	311	202
1504729	-224	429	211
1505057	109	304	175
1505385	427	220	187
1505713	720	196	289
1506041	1100	103	199
1506369	1015	113	217
1506697	710	39	288
1507025	313	-230	320
1507353	-1	-345	315
1507681	-215	-278	262
1508009	-270	-292	206
1508337	-75	-236	55
1508665	98	-232	-133
1508993	335	-266	-210
1509321	463	-293	-282
1509649	486	-271	-342
1509977	471	-266	-414
1510305	315	-314	-475
1510633	203	-394	-532
1510961	122	-514	-564
1511289	142	-674	-562
1511617	227	-720	-599
1511945	320	-629	-687
1512273	616	-707	-786
1512601	1022	-791	-878
1512929	1199	-856	-887
1513257	1312	-1050	-839
1513585	1406	-1237	-835
1513913	1396	-1108	-856
1514241	1426	-1162	-895
1514569	1607	-1297	-995
1514897	1846	-1322	-1113
1515225	1911	-1274	-1134
1515553	2119	-1286	-1117
1515881	2300	-1475	-1091
1516209	2098	-1655	-1076
1516537	1812	-1908	-940
1516865	1513	-2181	-882
1517193	1249	-2296	-734
1517521	1134	-2291	-688
1517849	1128	-2167	-591
1518177	1511	-1935	-543
1518505	2179	-1887	-590
1518833	2337	-1788	-595
1519161	2297	-1907	-582
1519489	2377	-1899	-795
1519817	2302	-1670	-766
1520145	2330	-1554	-913
1520473	2561	-1331	-1036
1520801	3211	-1024	-1247
1521129	3815	-864	-1413
1521457	4404	-661	-1440
1521785	4760	-497	-1429
1522113	4637	-624	-1437
1522441	4095	-1091	-1442
1522769	3516	-1403	-1345
1523097	3230	-1047	-1321
1523425	3245	-491	-1137
1523753	3428	-95	-1034
1524081	3381	-21	-945
1524409	3017	-225	-768
1524737	2502	-548	-475
1525065	1630	-729	-30
1525393	250	-552	362
1525721	-970	-230	594
1526049	-1707	-95	676
1526377	-1920	-122	671
1526705	-1728	-32	625
1527033	-1313	218	533
1527361	-802	444	509
1527689	-362	597	536
1528017	-193	753	493
1528345	85	488	504
1528673	0	368	477
1529001	-339	226	458
1529329	-759	111	510
1529657	-1017	107	552
1529985	-1201	196	546
1530313	-1267	398	554
1530641	-1290	609	543
1530969	-1121	749	522
1531297	-953	760	508
1531625	-665	755	417
1531953	-596	487	293
1532281	-576	347	272
1532609	-679	269	365
1532937	-934	286	392
1533265	-1075	463	547
1533593	-1069	431	538
1533921	-861	177	390
1534249	-570	205	266
1534577	-483	178	218
1534905	-629	148	247
1535233	-856	45	276
1535561	-1161	-47	309
1535889	-1361	-189	296
1536217	-1480	-78	269
1536545	-1519	-1	213
1536873	-1270	-47	132
1537201	-990	118	41
1537529	-649	150	-66
1537857	-285	109	-133
1538185	-38	60	-225
1538513	8	72	-231
1538841	-176	60	-213
1539169	-221	-24	-272
1539497	-333	20	-311
1539825	-371	106	-348
1540153	-309	140	-391
1540481	-365	81	-409
1540809	-377	-36	-402
1541137	-459	-34	-481
1541465	-406	23	-614
1541793	-240	92	-755
1542121	-78	91	-829
1542449	-49	46	-811
1542777	21	49	-799
1543105	138	73	-824
1543433	-9	40	-776
1543761	-120	-34	-704
1544089	-295	-51	-663
1544417	-382	18	-679
1544745	-304	68	-680
1545073	16	80	-736
1545401	390	220	-751
1545729	799	338	-818
1546057	1300	277	-820
1546385	1394	238	-783
1546713	1444	121	-724
1547041	1384	44	-671
1547369	1184	29	-589
1547697	1052	3	-500
1548025	940	-118	-484
1548353	680	-194	-447
1548681	440	-197	-383
1549009	293	-111	-390
1549337	224	-97	-375
1549665	115	-110	-370
1549993	106	-92	-399
1550321	226	-98	-402
1550649	290	-105	-376
1550977	297	-86	-388
1551305	303	-80	-370
1551633	254	-116	-377
1551961	88	-78	-420
1552289	-236	95	-454
1552617	-536	112	-503
1552945	-271	341	-563
1553273	158	558	-496
1553601	640	627	-626
1553929	1466	618	-688
1554257	1873	455	-923
1554585	2385	579	-971
1554913	2870	459	-900
1555241	3132	632	-846
1555569	3674	847	-555
1555897	4618	1074	-264
1556225	5654	1252	-253
1556553	6680	1273	-346
1556881	7756	1343	-455
1557209	8809	1663	-369
1557537	9326	1876	-243
1557865	9449	2189	-268
1558193	9667	2525	-406
1558521	10319	2941	-407
1558849	11299	3294	-398
1559177	12298	3543	-327
1559505	14615	3550	-277
1559833	16460	3580	-121
1560161	17305	3494	246
1560489	17268	3440	523
1560817	17040	3991	586
1561145	16820	5032	520
1561473	16761	5983	589
1561801	17543	6171	532
1562129	19064	5645	323
1562457	19666	4498	271
1562785	20566	4657	791
1563113	21025	5420	733
1563441	19818	3393	825
1563769	17961	1324	835
1564097	15305	1334	365
1564425	10708	1246	-28
1564753	4703	697	52
1565081	-552	161	30
1565409	-2035	1273	-92
1565737	-2470	3802	-1568
1566065	-3260	3898	-3400
1566393	-4165	3861	-4045
1566721	-3409	4817	-5223
1567049	-1910	7040	-4628
1567377	-902	6884	-2331
1567705	490	3818	-1705
1568033	1136	3860	-2477
1568361	1384	5985	-3900
1568689	876	4381	-5214
1569017	550	2251	-5716
1569345	59	1422	-4970
1569673	-1399	3237	-4141
1570001	-3070	5914	-3695
1570329	-3136	4510	-2908
1570657	-1683	452	-2539
1570985	467	389	-2309
1571313	2635	662	-2228
1571641	3370	824	-1537
1571969	3066	1505	-1278
1572297	1613	1595	-712
1572625	-278	1426	-330
1572953	-2109	1332	110
1573281	-3367	1839	-103
1573609	-4664	1355	1163
1573937	-4288	-1908	107
1574265	-3962	-4088	615
1574593	-2984	-3769	31
1574921	-2349	-2262	68
1575249	-1513	-796	38
1575577	-811	-706	141
1575905	-238	-587	339
1576233	-82	0	528
1576561	-138	198	599
1576889	-375	-50	432
1577217	-803	-472	492
1577545	-1092	-814	744
1577873	-1124	-1095	980
1578201	-835	-1264	985
1578529	-521	-1119	836
1578857	-364	-1329	887
1579185	-227	-1476	806
1579513	-49	-1347	634
1579841	-256	-1115	681
1580169	-304	-919	685
1580497	-332	-1154	661
1580825	-324	-796	588
1581153	-295	-338	411
1581481	-628	-159	350
1581809	-821	195	162
1582137	-989	601	115
1582465	-1142	349	186
1582793	-952	1	67
1583121	-900	151	-99
1583449	-346	158	-336
1583777	201	204	-717
1584105	475	177	-1004
1584433	414	171	-1174
1584761	702	643	-1366
1585089	730	1231	-1732
1585417	600	1466	-2078
1585745	1693	1717	-2252
1586073	1993	2196	-2407
1586401	1088	2419	-2603
1586729	1679	2381	-2831
1587057	1995	2204	-3026
1587385	2054	2169	-3218
1587713	2195	2016	-3266
1588041	2172	2404	-3424
1588369	2346	3141	-4126
1588697	2063	3417	-3840
1589025	2380	3313	-4027
1589353	1724	3026	-3804
1589681	53	3783	-3770
1590009	-1872	3961	-4013
1590337	-3685	2493	-3524
1590665	-4335	1772	-3450
1590993	-4990	1897	-3673
1591321	-5195	1921	-3970
1591649	-5120	1368	-4290
1591977	-4504	1570	-4405
1592305	-4153	2308	-4467
1592633	-3957	2116	-4286
1592961	-3529	2177	-4244
1593289	-3465	3273	-3721
1593617	-3059	3448	-3534
1593945	-2599	3019	-3314
1594273	-1707	2954	-3011
1594601	-1506	2928	-2987
1594929	-1761	2391	-3031
1595257	-1162	1790	-2623
1595585	-1240	2586	-2283
1595913	-1211	2490	-2250
1596241	-1144	2253	-2202
1596569	-690	2296	-2175
1596897	-76	2591	-2045
1597225	311	3011	-1921
1597553	374	2960	-1832
1597881	317	2719	-1637
1598209	294	2633	-1556
1598537	395	2579	-1583
1598865	571	2564	-1586
1599193	931	2603	-1482
1599521	2383	2855	-1695
1599849	1459	2945	-1207
1600177	1315	2441	-875
1600505	2047	3125	-1172
1600833	2925	2938	-1230
1601161	4539	3307	-1649
1601489	4147	2718	-1266
1601817	3595	1775	-1769
1602145	1801	485	-1949
1602473	529	1187	-1652
1602801	665	-185	-1953
1603129	578	-72	-1983
1603457	473	127	-2269
1603785	178	-319	-2330
1604113	-797	-780	-1894
1604441	-438	49	-2411
1604769	17	189	-2475
1605097	89	116	-2407
1605425	17	-187	-2801
1605753	-8	-734	-2853
1606081	643	-1063	-2944
1606409	1507	-709	-3148
1606737	1786	232	-3213
1607065	2230	988	-3431
1607393	2976	1881	-4633
1607721	2885	2725	-4477
1608049	2494	4766	-4088
1608377	2465	5546	-3952
1608705	2265	4070	-3099
1609033	1580	1434	-2068
1609361	1375	-5	-782
1609689	2234	-1340	215
1610017	4442	-1369	395
1610345	7024	297	601
1610673	10255	2556	490
1611001	12561	5055	51
1611329	12993	5156	-138
1611657	13133	3310	-134
1611985	13506	2499	-121
1612313	13303	2464	107
1612641	12581	3131	-340
1612969	10321	4228	-1287
1613297	7094	2932	-1881
1613625	4341	-565	-1808
1613953	2871	-2568	-1353
1614281	2310	-1572	-1188
1614609	3097	237	-892
1614937	4003	1355	-980
1615265	3799	1841	-826
1615593	2710	1108	-200
1615921	1192	-764	293
1616249	142	-2038	367
1616577	-670	-1454	120
1616905	-1123	146	20
1617233	-877	1261	-93
1617561	-792	1300	-249
1617889	-1099	992	-263
1618217	-1027	775	-247
1618545	-1267	202	-268
1618873	-1568	-414	-203
1619201	-1687	-572	-282
1619529	-1574	-591	-385
1619857	-1151	-497	-597
1620185	-650	-248	-765
1620513	-55	32	-659
1620841	353	223	-605
1621169	579	274	-715
1621497	679	383	-895
1621825	731	482	-987
1622153	555	585	-1033
1622481	301	1042	-1116
1622809	-310	1229	-1185
1623137	-1053	851	-1169
1623465	-1604	592	-1105
1623793	-2222	725	-1097
1624121	-3136	717	-999
1624449	-4428	-39	-973
1624777	-6135	-1238	-863
1625105	-7631	-2223	-668
1625433	-8613	-2606	-375
1625761	-9611	-3014	-242
1626089	-10075	-3520	-175
1626417	-10143	-3679	-144
1626745	-10114	-3663	-12
1627073	-10238	-3689	34
1627401	-10172	-4062	123
1627729	-9871	-4201	210
1628057	-9792	-3985	318
1628385	-10265	-4365	476
1628713	-10831	-5383	622
1629041	-11330	-5764	804
1629369	-12087	-5674	1070
1629697	-12550	-6124	1231
1630025	-12527	-6377	1278
1630353	-11487	-5582	1422
1630681	-9718	-4140	1369
1631009	-7911	-2818	1196
1631337	-6259	-1723	927
1631665	-4263	-1054	850
1631993	-2122	-563	959
1632321	-653	-1201	1610
1632649	613	-2361	2800
1632977	1456	-3304	4002
1633305	2795	-3001	4600
1633633	4325	-2284	4968
1633961	5696	-1303	4855
1634289	7526	-259	4751
1634617	9332	1696	4619
1634945	9889	4290	4359
1635273	9639	7159	4128
1635601	9549	12325	2991
1635929	10207	18061	2874
1636257	4753	5998	4763
1636585	-1202	-2976	3937
1636913	-6084	-7258	474
1637241	-6387	-7131	-466
1637569	-4540	-6186	1032
1637897	-2788	-6700	2603
1638225	349	-3865	2978
1638553	1870	1200	2888
1638881	2110	3917	2940
1639209	487	1946	2882
1639537	-1739	-968	2532
1639865	-3396	-3041	2548
1640193	-4122	-3587	2270
1640521	-4155	-3931	2608
1640849	-3613	-3407	2822
1641177	-2759	-2293	2791
1641505	-2019	-1620	2580
1641833	-1716	-1066	2166
1642161	-2005	-737	1770
1642489	-2718	-825	1364
1642817	-3609	-1044	831
1643145	-4447	-714	480
1643473	-5660	-402	165
1643801	-6523	-523	32
1644129	-6801	-689	-342
1644457	-6483	-574	-595
1644785	-5654	-536	-951
1645113	-4560	-713	-1272
1645441	-4385	-737	-1912
1645769	-4048	-1550	-2483
1646097	-3579	-2642	-3171
1646425	-4974	-3654	-3278
1646753	-7200	-4502	-3338
1647081	-8681	-5234	-2877
1647409	-9973	-5691	-2480
1647737	-10790	-6219	-2201
1648065	-11747	-7055	-2295
1648393	-12841	-8451	-2487
1648721	-14387	-10548	-3256
1649049	-16358	-12579	-4034
1649377	-19174	-14369	-4420
1649705	-22112	-16685	-4085
1650033	-25006	-18414	-4140
1650361	-26579	-19141	-4598
1650689	-28092	-20006	-4594
1651017	-28903	-20050	-4387
1651345	-29307	-20521	-4996
1651673	-28098	-20093	-4874
1652001	-26618	-20354	-4780
1652329	-23546	-19271	-4295
1652657	-20661	-17264	-4385
1652985	-17891	-14813	-4064
1653313	-15191	-11380	-4022
1653641	-13421	-8205	-3883
1653969	-11824	-6675	-3529
1654297	-10426	-6865	-3070
1654625	-9829	-8447	-2597
1654953	-8644	-8499	-2735
1655281	-6729	-7772	-2551
1655609	-4919	-6654	-1723
1655937	-2475	-5127	-1345
1656265	146	-2970	-1212
1656593	2752	-539	-1107
1656921	4739	997	-1053
1657249	5453	386	-1003
1657577	4952	-652	-959
1657905	3923	-1868	-560
1658233	2385	-2501	-974
1658561	1109	-5415	1156
1658889	-1573	-6152	1745
1659217	-3079	-4273	1667
1659545	-3466	-6297	1755
1659873	-3865	-5748	1784
1660201	-4163	-4852	1866
1660529	-4510	-5323	1976
1660857	-3998	-4951	1037
1661185	-3938	-5318	1336
1661513	-4591	-5420	1289
1661841	-5254	-5325	899
1662169	-4260	-4911	335
1662497	-2884	-3894	-364
1662825	-1456	-3037	-1294
1663153	-1054	-3034	-2074
1663481	-1524	-3695	-2058
1663809	-2248	-4583	-1328
1664137	-3478	-5237	131
1664465	-4734	-4773	-159
1664793	-7270	-4061	1045
1665121	-9110	-3812	1898
1665449	-9700	-3370	2935
1665777	-8278	-2257	4056
1666105	-5949	-368	3976
1666433	-4344	1601	2114
1666761	-2988	1855	764
1667089	-2516	314	889
1667417	-2231	-655	2033
1667745	-2117	-348	3016
1668073	-3452	626	3428
1668401	-4640	1542	3489
1668729	-4122	2142	3614
1669057	-2205	3025	3295
1669385	-506	3066	3073
1669713	1064	3249	2507
1670041	1750	4421	1709
1670369	1681	6204	977
1670697	-160	5189	834
1671025	-3010	156	734
1671353	-5603	-4049	1190
1671681	-6179	-3081	946
1672009	-6045	-1902	1335
1672337	-5859	-1316	1768
1672665	-4487	-311	1465
1672993	-2831	-21	1642
1673321	-1376	792	1590
1673649	-692	1286	1650
1673977	-930	794	1783
1674305	-1998	-190	1965
1674633	-2998	-673	1818
1674961	-3800	-705	1962
1675289	-4400	-540	2056
1675617	-4180	-332	1753
1675945	-3460	-387	1452
1676273	-2671	-588	1280
1676601	-1889	-540	1234
1676929	-1694	-511	1307
1677257	-2122	-592	1388
1677585	-2703	-780	1355
1677913	-3000	-1167	1480
1678241	-3527	-1145	1567
1678569	-3840	-1225	1449
1678897	-4017	-1024	1226
1679225	-4178	-585	955
1679553	-4275	-48	469
1679881	-3660	261	-184
1680209	-3245	168	-618
1680537	-2990	-296	-899
1680865	-2551	-666	-950
1681193	-2156	-373	-770
1681521	-1024	121	-548
1681849	24	339	-550
1682177	17	286	-335
1682505	-156	308	-401
1682833	-399	-34	-184
1683161	-744	-709	-108
1683489	-552	-848	-207
1683817	66	-461	-101
1684145	507	-273	-90
1684473	1052	22	-88
1684801	1238	145	-10
1685129	1431	152	-72
1685457	1434	200	-141
1685785	1099	179	-267
1686113	607	-53	-255
1686441	380	-192	-125
1686769	0	-447	-144
1687097	31	-618	-115
1687425	281	-482	-272
1687753	452	-346	-338
1688081	873	-306	-423
1688409	1142	-241	-331
1688737	1115	-366	-242
1689065	1287	-537	-264
1689393	1356	-439	-344
1689721	1174	-351	-380
1690049	1367	-267	-517
1690377	1295	-75	-820
1690705	984	-590	-680
1691033	1031	-882	-560
1691361	1106	-572	-727
1691689	1215	-475	-910
1692017	1403	-506	-1002
1692345	1797	-615	-1115
1692673	2332	-611	-1416
1693001	2850	-380	-1862
1693329	3190	-276	-2237
1693657	3666	-330	-2459
1693985	4069	-153	-2819
1694313	3955	-62	-2974
1694641	3967	-89	-3332
1694969	3872	2	-3857
1695297	3688	32	-4406
1695625	3405	163	-4890
1695953	2856	321	-5517
1696281	2074	124	-6144
1696609	1345	-176	-6809
1696937	758	-487	-7494
1697265	21	-746	-8185
1697593	-1139	-848	-8967
1697921	-2340	-881	-9775
1698249	-3024	-879	-10708
1698577	-2078	-588	-11064
1698905	-2911	-1124	-10727
1699233	-4111	-2199	-9586
1699561	-4832	-3921	-9105
1699889	-5700	-4566	-9038
1700217	-9331	-4117	-9442
1700545	-13289	-4368	-9395
1700873	-16726	-6553	-7903
1701201	-19586	-8706	-4886
1701529	-18826	-7177	-2736
1701857	-16394	-4855	-872
1702185	-14944	-3797	2576
1702513	-14698	-2786	5135
1702841	-12801	-3974	6808
1703169	-8145	-5135	7604
1703497	-4177	-5125	8313
1703825	-371	-5307	10150
1704153	2589	-5424	12308
1704481	4495	-5363	13834
1704809	5732	-5167	14616
1705137	7439	-3967	15492
1705465	8542	-2869	15996
1705793	7858	-2029	17561
1706121	6907	-2217	17513
1706449	5865	-3379	18395
1706777	3947	-4016	20071
1707105	2081	-3689	20764
1707433	-1159	-5057	21980
1707761	-2807	-6710	21707
1708089	-4305	-8627	22625
1708417	-5050	-9413	23406
1708745	-4191	-8284	22825
1709073	-3625	-8336	21639
1709401	-3683	-9633	20055
1709729	-4129	-11119	18706
1710057	-3144	-11239	16429
1710385	-819	-10969	13382
1710713	688	-11056	10929
1711041	637	-9626	8261
1711369	-1310	-6175	4196
1711697	-2784	-4124	895
1712025	-2971	-1760	-2192
1712353	-3525	2714	-6097
1712681	-9304	7687	-10777
1713009	-13378	11977	-13179
1713337	-17124	14596	-15378
1713665	-12666	16823	-14588
1713993	-10166	9383	-7096
1714321	-10381	-6680	-2611
1714649	-9854	-12977	-4697
1714977	-6850	-8805	-6023
1715305	-6551	-1133	-4667
1715633	-3937	3625	-4638
1715961	-3059	7486	-4714
1716289	-4309	7943	-4518
1716617	-4311	6413	-3604
1716945	-2876	4241	-2884
1717273	-1375	2653	-3057
1717601	-383	2617	-2988
1717929	1514	3771	-2819
1718257	2939	5259	-2196
1718585	3488	5710	-2010
1718913	3154	4363	-1732
1719241	3027	3384	-1679
1719569	2665	3361	-1801
1719897	1885	2569	-1380
1720225	1319	1927	-1088
1720553	755	1199	-851
1720881	678	1029	-606
1721209	542	1074	-575
1721537	993	935	-664
1721865	1315	937	-697
1722193	1727	722	-695
1722521	1472	1094	-531
1722849	1160	1170	-169
1723177	518	777	-64
1723505	410	-155	277
1723833	530	149	481
1724161	684	-226	579
1724489	271	-207	670
1724817	-21	-308	659
1725145	-130	-423	615
1725473	-299	-1324	755
1725801	-243	-1474	940
1726129	-410	-1785	1161
1726457	-396	-1442	1276
1726785	-323	-1364	1394
1727113	-371	-1442	1513
1727441	-645	-1554	1644
1727769	-828	-1789	1815
1728097	-1046	-1921	2157
1728425	-629	-1753	2182
1728753	-126	-1548	2241
1729081	252	-1714	2317
1729409	70	-2074	2450
1729737	-413	-3030	2919
1730065	-1085	-4010	3380
1730393	-1089	-4317	3352
1730721	-1313	-4585	3561
1731049	-1155	-4977	4231
1731377	-327	-4998	4582
1731705	611	-4430	4708
1732033	1371	-4309	5057
1732361	2247	-4164	5603
1732689	3424	-3660	5805
1733017	5420	-3159	5900
1733345	7725	-2869	6137
1733673	10149	-2169	5948
1734001	12013	-1227	6027
1734329	14748	-1147	5538
1734657	16968	-984	5380
1734985	18882	-753	5355
1735313	19491	-458	5138
1735641	18409	1419	4338
1735969	15458	4359	1901
1736297	12487	2593	-363
1736625	10957	-250	-1858
1736953	11392	165	-2609
1737281	13211	1524	-2958
1737609	14328	2365	-3587
1737937	14723	2115	-4228
1738265	14307	1184	-5211
1738593	13245	-555	-5947
1738921	11817	-2321	-6421
1739249	9327	-3490	-6575
1739577	6335	-4391	-6813
1739905	2979	-5307	-6776
1740233	619	-5981	-7367
1740561	-753	-6823	-7401
1740889	-932	-5573	-7302
1741217	91	-3956	-7402
1741545	1809	-2864	-7265
1741873	3407	-2881	-7323
1742201	4843	-3117	-7420
1742529	6331	-3131	-7452
1742857	7716	-3198	-7074
1743185	8784	-3082	-6547
1743513	9364	-3175	-5847
1743841	9550	-3204	-5086
1744169	10106	-3109	-4443
1744497	10496	-2851	-3838
1744825	11008	-2997	-3479
1745153	11740	-2690	-3156
1745481	12581	-2068	-2772
1745809	13485	-1599	-2538
1746137	14484	-1181	-2659
1746465	14834	-1122	-3014
1746793	14429	-1346	-3053
1747121	13426	-1474	-2831
1747449	12601	-1250	-2818
1747777	10841	-1421	-2860
1748105	8612	-1705	-3090
1748433	6600	-2163	-3212
1748761	4573	-2116	-3517
1749089	3736	-956	-3806
1749417	2971	-1049	-4304
1749745	1197	-1996	-4540
1750073	-1031	-1974	-4405
1750401	-2577	-166	-4235
1750729	-3277	1077	-5018
1751057	-1953	1036	-5553
1751385	-2960	6467	-5789
1751713	-3942	10203	-4927
1752041	-887	11735	-2442
1752369	8800	19104	-3913
1752697	3379	9644	-2474
1753025	161	-4881	-4399
1753353	861	-5513	-683
1753681	5124	-2769	984
1754009	4235	1795	79
1754337	1514	3212	-577
1754665	836	4082	-706
1754993	933	5168	-863
1755321	1086	5346	336
1755649	1044	6275	290
1755977	1935	7021	112
1756305	1614	11979	-1468
1756633	1983	18354	-3530
1756961	3035	12503	-2944
1757289	2243	1937	-928
1757617	2639	-910	-1229
1757945	1774	-2333	-898
1758273	2122	-1780	126
1758601	2291	917	1022
1758929	1474	3725	-464
1759257	660	4932	-767
1759585	227	5587	-1559
1759913	-332	6069	-2176
1760241	-259	4814	-2040
1760569	793	4143	-1950
1760897	882	4696	-2115
1761225	1051	5034	-2680
1761553	1442	5181	-3354
1761881	1107	4093	-3118
1762209	709	3287	-2873
1762537	382	3229	-2855
1762865	-720	2831	-3373
1763193	-3482	257	-3275
1763521	-5540	-1213	-3861
1763849	-7742	540	-3764
1764177	-8211	2074	-3873
1764505	-7904	1142	-3937
1764833	-6928	1535	-3994
1765161	-6115	1654	-4098
1765489	-3786	2818	-4492
1765817	-1792	3677	-4589
1766145	-159	4641	-4366
1766473	-221	4052	-4063
1766801	-1619	2462	-3430
1767129	-2368	1483	-2587
1767457	-2720	1271	-2028
1767785	-2085	1677	-1819
1768113	-1584	1328	-1648
1768441	-115	1576	-1740
1768769	1457	2858	-1622
1769097	2352	2758	-1500
1769425	2733	3414	-1491
1769753	2997	3906	-1329
1770081	3223	4224	-1138
1770409	3204	3843	-878
1770737	3418	3917	-787
1771065	3085	3685	-723
1771393	2688	3247	-502
1771721	2583	3086	-219
1772049	2622	3277	-98
1772377	2937	3709	2
1772705	3247	4131	20
1773033	3577	4054	-31
1773361	4159	4156	-223
1773689	4617	4117	-143
1774017	4381	3877	184
1774345	4661	3870	-201
1774673	4503	3584	250
1775001	4131	3506	398
1775329	4028	3448	358
1775657	3954	2865	622
1775985	4514	2710	498
1776313	4393	2487	623
1776641	4116	2343	452
1776969	5529	2645	1327
1777297	3114	358	-938
1777625	2334	-138	240
1777953	2669	-1563	-581
1778281	2458	-2562	-784
1778609	2311	-4324	-1082
1778937	5096	-4215	-1786
1779265	9639	-764	-2563
1779593	13317	4460	-3923
1779921	14467	6266	-4065
1780249	11933	3688	-3832
1780577	7474	1485	-2872
1780905	3637	1101	-2300
1781233	1466	1760	-2578
1781561	894	2183	-3426
1781889	447	1652	-3477
1782217	339	1625	-4236
1782545	74	1065	-4782
1782873	-445	450	-4858
1783201	-832	597	-5144
1783529	-735	809	-5183
1783857	-722	911	-5115
1784185	-815	571	-4695
1784513	-352	692	-4617
1784841	1	867	-4369
1785169	0	926	-4145
1785497	-462	689	-3782
1785825	-680	331	-3488
1786153	-577	324	-2958
1786481	-159	677	-2633
1786809	267	722	-2467
1787137	694	676	-2154
1787465	1270	781	-2097
1787793	1792	614	-1519
1788121	2382	797	-1403
1788449	2604	1172	-933
1788777	2644	1157	-853
1789105	2901	946	-727
1789433	2982	819	-640
1789761	2982	227	-610
1790089	2522	183	-774
1790417	2246	190	-578
1790745	2020	-495	-685
1791073	1724	-1041	-1215
1791401	1417	-1181	-1033
1791729	742	-1112	-968
1792057	-1	-1367	-904
1792385	-853	-1396	-915
1792713	-1267	-1229	-1396
1793041	-1303	-1252	-1894
1793369	-1308	-1402	-2472
1793697	-1446	-1200	-2988
1794025	-1683	-1063	-3642
1794353	-1642	-1163	-4246
1794681	-782	-165	-5017
1795009	-324	1571	-5903
1795337	-884	2144	-6432
1795665	43	2644	-7422
1795993	-267	3126	-8114
1796321	488	2861	-9082
1796649	-693	1103	-9265
1796977	-1259	-421	-8321
1797305	-1664	-1009	-7211
1797633	-2450	-2089	-6552
1797961	-5008	-1508	-5203
1798289	-4960	2347	-3493
1798617	-5194	3850	-708
1798945	-5215	2707	1822
1799273	-4224	257	3968
1799601	-3201	-1184	5350
1799929	-538	-1005	6855
1800257	2148	-1615	7861
1800585	4588	-2062	8666
1800913	5219	-2338	9858
1801241	5330	-3437	11709
1801569	5025	-3402	12905
1801897	4759	-3543	13234
1802225	2622	-4082	14305
1802553	840	-4321	15371
1802881	-428	-4618	16083
1803209	-1379	-5469	16662
1803537	-1906	-6095	16930
1803865	-2200	-6092	17217
1804193	-2559	-6422	17298
1804521	-2824	-6920	17294
1804849	-3116	-7600	17592
1805177	-2867	-8156	17277
1805505	-2273	-8190	16636
1805833	-1978	-8226	17551
1806161	-1499	-7798	16853
1806489	-1003	-6541	16302
1806817	-982	-6699	15915
1807145	-521	-7420	15046
1807473	-323	-6734	13078
1807801	402	-5916	12005
1808129	2105	-4310	10853
1808457	3486	-3057	10150
1808785	4282	-1446	8299
1809113	5287	-718	6408
1809441	5867	243	3950
1809769	5618	492	1977
1810097	4997	335	383
1810425	4373	940	-717
1810753	4040	1641	-1984
1811081	2748	1950	-2900
1811409	765	3099	-3657
1811737	-1258	3773	-4605
1812065	-2814	3672	-5171
1812393	-4455	4272	-5983
1812721	-6237	6245	-7018
1813049	-5875	6061	-7941
1813377	-3310	1593	-5723
1813705	-634	249	-4349
1814033	71	-244	-3471
1814361	88	-1079	-3406
1814689	-566	-1129	-3949
1815017	-1743	197	-4274
1815345	-2690	2314	-4306
1815673	-3731	4998	-4559
1816001	-4310	5638	-4740
1816329	-3413	4177	-5229
1816657	-2639	3305	-5438
1816985	-1100	2642	-4966
1817313	442	2431	-4860
1817641	934	2731	-4842
1817969	-88	2870	-4459
1818297	-1112	2837	-4222
1818625	-1971	2826	-4211
1818953	-2930	2966	-4101
1819281	-4236	2746	-4269
1819609	-5490	1836	-4233
1819937	-6090	742	-3970
1820265	-5757	173	-3763
1820593	-5168	742	-3514
1820921	-4694	885	-3622
1821249	-4211	760	-3355
1821577	-3203	1770	-3473
1821905	-1968	2040	-3439
1822233	-908	1918	-3223
1822561	-534	1787	-2856
1822889	-752	1695	-2491
1823217	-843	1531	-2091
1823545	-610	1844	-1910
1823873	-55	1974	-1984
1824201	1045	2309	-2150
1824529	2284	2913	-2319
1824857	2751	3392	-2362
1825185	2659	3501	-2343
1825513	2382	3212	-2197
1825841	2379	3212	-2109
1826169	2223	3137	-1974
1826497	1987	2647	-1922
1826825	1867	2275	-1899
1827153	1643	2224	-1838
1827481	1906	1595	-1485
1827809	1670	1849	-1739
1828137	1654	1832	-1972
1828465	1831	2000	-1834
1828793	2051	2269	-1657
1829121	2671	2827	-1942
1829449	2873	3039	-2043
1829777	3153	3505	-2407
1830105	3744	3483	-2661
1830433	4065	3206	-2703
1830761	4115	3089	-2949
1831089	4042	2841	-2847
1831417	4648	2368	-2770
1831745	4238	2915	-2989
1832073	4662	2643	-3223
1832401	4775	2344	-3244
1832729	5581	2831	-3467
1833057	6501	3964	-3338
1833385	7204	4707	-3217
1833713	7739	4735	-3310
1834041	8225	4755	-3538
1834369	8066	4512	-3722
1834697	7478	4445	-3895
1835025	7806	4006	-3945
1835353	7692	4226	-3974
1835681	7328	4361	-4178
1836009	6837	4175	-4394
1836337	6448	4064	-4800
1836665	5957	3399	-4993
1836993	6347	2743	-5108
1837321	6271	3201	-5514
1837649	6742	3710	-5747
1837977	7181	3884	-5822
1838305	7281	3628	-6066
1838633	6906	2812	-6163
1838961	5882	1845	-6066
1839289	5178	842	-5697
1839617	4462	-137	-5256
1839945	2481	-1913	-4276
1840273	657	-3237	-3417
1840601	335	-3267	-2699
1840929	985	-3023	-1153
1841257	2884	-852	-829
1841585	5146	721	-554
1841913	6133	823	-483
1842241	6457	729	-381
1842569	6716	843	-109
1842897	6391	569	351
1843225	5475	-376	916
1843553	5109	-984	995
1843881	4927	-1104	1289
1844209	4861	-675	1711
1844537	5227	183	2088
1844865	6423	1755	2137
1845193	6885	2521	2112
1845521	7345	2082	1874
1845849	7575	1520	1629
1846177	7673	1355	1732
1846505	8047	1467	1957
1846833	8629	2055	2140
1847161	8081	2871	2211
1847489	7225	2744	1912
1847817	6598	2200	1528
1848145	5188	1698	1014
1848473	3040	498	768
1848801	382	-1527	489
1849129	-2238	-4456	810
1849457	-3481	-4597	1743
1849785	-3490	-1444	2059
1850113	-2506	1209	2004
1850441	-1931	1593	1644
1850769	-1454	509	1504
1851097	-498	-62	1285
1851425	254	213	1220
1851753	497	798	1180
1852081	881	1444	945
1852409	1017	2057	499
1852737	858	1692	165
1853065	843	1201	-6
1853393	388	983	162
1853721	-263	640	426
1854049	-546	384	629
1854377	-586	502	722
1854705	-391	664	683
1855033	78	820	468
1855361	358	841	288
1855689	646	918	356
1856017	821	1082	406
1856345	763	1104	535
1856673	788	1084	679
1857001	651	808	704
1857329	630	576	667
1857657	691	456	545
1857985	716	429	365
1858313	931	472	178
1858641	1146	501	86
1858969	1250	502	-3
1859297	1312	373	-242
1859625	1345	193	-437
1859953	1692	82	-577
1860281	1459	67	-723
1860609	965	-15	-669
1860937	1519	-399	-621
1861265	1626	-486	-707
1861593	1919	-301	-781
1861921	2308	-4	-853
1862249	3062	212	-800
1862577	3906	555	-757
1862905	5150	852	-602
1863233	6749	1001	-389
1863561	8128	1608	-392
1863889	9529	2224	-535
1864217	11292	2904	-786
1864545	12635	3030	-537
1864873	13029	3089	396
1865201	12883	3605	957
1865529	13139	4416	1013
1865857	14395	5782	688
1866185	16102	7290	360
1866513	18454	8446	274
1866841	20783	9734	-384
1867169	23934	10225	-2476
1867497	26815	9642	-4618
1867825	26670	8349	-6942
1868153	25383	7228	-8728
1868481	21807	6702	-9720
1868809	16380	6395	-9731
1869137	10790	5345	-9818
1869465	6542	4360	-9539
1869793	3758	4116	-9112
1870121	1933	3986	-8922
1870449	1312	3879	-8825
1870777	2250	3767	-8579
1871105	3710	3737	-8029
1871433	5476	4055	-7563
1871761	7115	4343	-6837
1872089	8800	4764	-5947
1872417	10456	5213	-5031
1872745	11898	5915	-4308
1873073	13518	6236	-3565
1873401	14996	6535	-2994
1873729	16623	6768	-2368
1874057	17969	6748	-1830
1874385	18752	6732	-1120
1874713	18915	6965	-609
1875041	18881	6707	-170
1875369	18505	6743	-41
1875697	17701	6755	-17
1876025	17309	6273	46
1876353	17014	6347	1
1876681	15816	5700	-264
1877009	14736	4615	-711
1877337	13252	4349	-925
1877665	11896	3747	-1206
1877993	11294	3494	-1421
1878321	10527	3056	-1580
1878649	9206	2229	-1453
1878977	8963	2914	-1450
1879305	7823	3353	-2722
1879633	7541	4105	-2773
1879961	7551	5871	-2353
1880289	6766	5049	-2675
1880617	7494	4130	-3544
1880945	6521	2486	-3215
1881273	4346	5070	-2584
1881601	-686	8014	-2759
1881929	-2341	4577	-1431
1882257	-2184	2833	-1141
1882585	-269	1957	-1535
1882913	1102	2238	-1389
1883241	2331	1923	-1879
1883569	2422	1258	-2128
1883897	1572	1164	-2296
1884225	793	360	-2209
1884553	388	327	-1491
1884881	-495	712	-1127
1885209	-1032	1619	-1088
1885537	-1103	2363	-725
1885865	-738	2517	-432
1886193	-183	2264	84
1886521	1086	1807	360
1886849	2376	2185	152
1887177	3349	6161	-959
1887505	2578	15037	-1502
1887833	688	13592	-596
1888161	-748	-974	1104
1888489	404	-4527	-196
1888817	1288	-3057	592
1889145	2441	-116	712
1889473	3698	1844	299
1889801	4233	2836	-372
1890129	4811	3994	-706
1890457	5861	4210	-1069
1890785	7088	3609	-1840
1891113	9328	4343	-3172
1891441	11636	5043	-4175
1891769	13049	5443	-4720
1892097	13340	5672	-4781
1892425	12979	5661	-5042
1892753	10562	4743	-4300
1893081	7879	4747	-4328
1893409	4873	4554	-3823
1893737	1148	3713	-2976
1894065	-613	4213	-2758
1894393	-2288	5436	-3087
1894721	-4614	2504	-1818
1895049	-3839	801	-2072
1895377	-1733	2121	-3300
1895705	-944	2308	-3439
1896033	-1423	2380	-3537
1896361	-1932	2478	-3474
1896689	-2922	2768	-3879
1897017	-3924	3914	-4053
1897345	-4927	5525	-4642
1897673	-6772	4082	-4292
1898001	-8089	1200	-3877
1898329	-8366	622	-3103
1898657	-7427	456	-2819
1898985	-5766	1214	-2781
1899313	-3746	2456	-2909
1899641	-2057	3317	-2907
1899969	-826	3279	-3097
1900297	45	3457	-3393
1900625	231	3095	-3303
1900953	231	2866	-3109
1901281	-262	3014	-2733
1901609	-771	2767	-2438
1901937	-783	2685	-2073
1902265	-557	2813	-1922
1902593	-461	2681	-1754
1902921	-190	2498	-1688
1903249	338	2850	-1642
1903577	979	3159	-1641
1903905	1515	3320	-1692
1904233	2258	3602	-1744
1904561	2627	3922	-1914
1904889	2753	4047	-1838
1905217	3176	4246	-1924
1905545	3403	4409	-2028
1905873	3862	4085	-2037
1906201	4363	3407	-1975
1906529	4604	3696	-2126
1906857	4577	3339	-2228
1907185	4720	3395	-2356
1907513	4612	3429	-2284
1907841	4440	3441	-2155
1908169	4006	3452	-2116
1908497	3729	3481	-1926
1908825	3881	3330	-1862
1909153	4327	3408	-1921
1909481	4750	3216	-2085
1909809	5330	3172	-2131
1910137	5648	3361	-2085
1910465	6265	3653	-2181
1910793	6994	4014	-2333
1911121	8149	4657	-2242
1911449	10139	5392	-2215
1911777	12400	6324	-1958
1912105	14983	7637	-1678
1912433	17525	9113	-1737
1912761	19510	10176	-1996
1913089	20581	10100	-2370
1913417	21170	10024	-2722
1913745	20313	9580	-2648
1914073	18908	8291	-2352
1914401	17867	6930	-1721
1914729	16335	6127	-1123
1915057	14542	5667	-582
1915385	12360	4876	-335
1915713	10321	3396	-297
1916041	7776	898	-70
1916369	5459	-1378	-144
1916697	3046	-3196	-22
1917025	1052	-4224	226
1917353	-216	-4491	278
1917681	-41	-3319	1115
1918009	765	-1944	1545
1918337	2004	-1356	1514
1918665	3053	-1183	1230
1918993	4308	-836	712
1919321	5242	-226	311
1919649	5345	-127	-69
1919977	4691	-881	-143
1920305	3189	-1574	14
1920633	1033	-1512	201
1920961	-621	-1574	201
1921289	-1280	-2182	190
1921617	-1654	-2357	120
1921945	-1671	-1989	105
1922273	-1459	-1495	125
1922601	-1135	-1295	93
1922929	-624	-884	44
1923257	-206	-127	-192
1923585	70	277	-488
1923913	41	-17	-711
1924241	-73	-542	-742
1924569	-391	-868	-722
1924897	-881	-986	-627
1925225	-1466	-1176	-603
1925553	-1978	-1197	-610
1925881	-2556	-955	-743
1926209	-3025	-872	-863
1926537	-3571	-1163	-850
1926865	-4112	-1602	-816
1927193	-4760	-1960	-925
1927521	-5496	-2293	-1145
1927849	-6295	-2569	-1204
1928177	-7044	-2609	-1306
1928505	-7847	-2615	-1252
1928833	-8861	-2904	-1252
1929161	-9924	-3740	-1076
1929489	-10512	-4536	-994
1929817	-10452	-4624	-1102
1930145	-10500	-4597	-1202
1930473	-10634	-4647	-1398
1930801	-11417	-5165	-1320
1931129	-12754	-6649	-764
1931457	-13639	-7726	-358
1931785	-14347	-7943	353
1932113	-14694	-8076	905
1932441	-14634	-8088	1408
1932769	-14244	-7820	1822
1933097	-13166	-6987	2119
1933425	-12354	-5925	2368
1933753	-11538	-5650	2570
1934081	-10099	-5448	2787
1934409	-7898	-4810	3148
1934737	-5050	-2900	3410
1935065	-2002	-1478	3904
1935393	1187	-140	4331
1935721	3975	1126	4989
1936049	6919	2780	5170
1936377	9637	4066	4814
1936705	11720	5099	4381
1937033	13082	6679	4337
1937361	14018	10498	3168
1937689	14680	12489	2947
1938017	9346	6135	3534
1938345	407	-2018	2020
1938673	-5906	-5916	2202
1939001	-7067	-4998	2217
1939329	-5917	-3867	2853
1939657	-3565	-3473	2923
1939985	-786	-1293	1919
1940313	778	1751	1465
1940641	791	3778	1321
1940969	-599	2082	1501
1941297	-2681	-345	1518
1941625	-4487	-1335	1249
1941953	-5492	-2112	1180
1942281	-5683	-2437	1146
1942609	-4906	-1883	942
1942937	-3815	-996	525
1943265	-3104	-629	255
1943593	-2430	-275	-166
1943921	-2212	-119	-672
1944249	-2680	-782	-903
1944577	-3211	-1492	-922
1944905	-4072	-1812	-712
1945233	-4919	-1835	-606
1945561	-5134	-1734	-573
1945889	-5207	-1686	-958
1946217	-5357	-2138	-1172
1946545	-5199	-2342	-1545
1946873	-4992	-2109	-1892
1947201	-5128	-2308	-1765
1947529	-5055	-2487	-1949
1947857	-4717	-2531	-2129
1948185	-4812	-2691	-2174
1948513	-4858	-2782	-2131
1948841	-4925	-2472	-2029
1949169	-5145	-2737	-2042
1949497	-4924	-2642	-2150
1949825	-4759	-2446	-2384
1950153	-4789	-2604	-2591
1950481	-5057	-3186	-2670
1950809	-5170	-3460	-2721
1951137	-5510	-3743	-2542
1951465	-5236	-3574	-2722
1951793	-4605	-3510	-2971
1952121	-4151	-3776	-3251
1952449	-3719	-3565	-3496
1952777	-3757	-3966	-3706
1953105	-4014	-4574	-3822
1953433	-4685	-5307	-3850
1953761	-5980	-6505	-3692
1954089	-7230	-7484	-3550
1954417	-8044	-7312	-3416
1954745	-8853	-7564	-3072
1955073	-9734	-8333	-2787
1955401	-9557	-8386	-2783
1955729	-8462	-8265	-2609
1956057	-7290	-7601	-2556
1956385	-5720	-6613	-2251
1956713	-3642	-5150	-2015
1957041	-1769	-3976	-1779
1957369	-501	-3648	-1505
1957697	600	-3535	-1149
1958025	1305	-3155	-817
1958353	2095	-2261	-705
1958681	2817	-1629	-810
1959009	3212	-1288	-1115
1959337	2807	-1460	-1074
1959665	1738	-2359	-986
1959993	904	-3042	-956
1960321	408	-3627	-949
1960649	298	-3948	-986
1960977	700	-3584	-1110
1961305	1454	-2625	-1603
1961633	1805	-2373	-2156
1961961	1242	-3021	-2660
1962289	-39	-4176	-3434
1962617	-1958	-5490	-4108
1962945	-4760	-7486	-4630
1963273	-8141	-10246	-4763
1963601	-11465	-12620	-5083
1963929	-13554	-13380	-5679
1964257	-13969	-11686	-6547
1964585	-13492	-10051	-7328
1964913	-12929	-9110	-8860
1965241	-11176	-9139	-9861
1965569	-9869	-7956	-10257
1965897	-10906	-7472	-11483
1966225	-6751	-7190	-9741
1966553	-9245	-6775	-8358
1966881	-15793	-9792	-6436
1967209	-18238	-9434	-4246
1967537	-18094	-6538	-2305
1967865	-15463	-5196	-396
1968193	-12965	-5141	2424
1968521	-10255	-4320	3995
1968849	-6270	-5104	4840
1969177	-1233	-6905	5205
1969505	3080	-6943	5994
1969833	5539	-6657	7248
1970161	6924	-6986	8857
1970489	7079	-6840	10198
1970817	6554	-6854	12202
1971145	5798	-6719	13346
1971473	4215	-6920	14697
1971801	2194	-7160	15946
1972129	488	-7758	17786
1972457	-352	-7890	18450
1972785	-397	-7514	19234
1973113	-171	-6457	19961
1973441	701	-5742	19125
1973769	1939	-6138	19711
1974097	2819	-6423	20052
1974425	3165	-5802	19521
1974753	3937	-7079	21074
1975081	3072	-6502	20575
1975409	1977	-6769	20139
1975737	225	-8366	20832
1976065	-2763	-9222	21416
1976393	-4226	-8740	20107
1976721	-3802	-8226	18556
1977049	-2952	-8747	17307
1977377	-3153	-7516	15718
1977705	-3779	-6782	13734
1978033	-3625	-6759	11680
1978361	-2536	-6203	8047
1978689	-1466	-5408	5761
1979017	-284	-4169	3361
1979345	-112	-2929	1196
1979673	-261	-2953	-792
1980001	898	-1104	-2323
1980329	-3340	6069	-5668
1980657	-6806	7195	-12253
1980985	-10212	5202	-12377
1981313	-11784	9425	-12938
1981641	-10304	9877	-11204
1981969	-7365	11150	-7466
1982297	-5028	9191	-5553
1982625	-4252	3515	-6319
1982953	-6022	-232	-6368
1983281	-6408	-1757	-5640
1983609	-5374	-3203	-5544
1983937	-6415	-3301	-5545
1984265	-9066	1505	-4388
1984593	-11134	5217	-3303
1984921	-9687	6875	-2484
1985249	-7197	5024	-2705
1985577	-3538	3661	-2881
1985905	-921	4010	-3134
1986233	1528	4161	-3404
1986561	2208	3761	-2866
1986889	1683	3557	-2227
1987217	1246	3890	-2022
1987545	718	3936	-1897
1987873	305	2944	-1528
1988201	-486	2401	-1079
1988529	-840	2275	-973
1988857	-326	2308	-965
1989185	193	2240	-878
1989513	384	1891	-718
1989841	571	1679	-710
1990169	695	1545	-510
1990497	348	1253	-264
1990825	-142	693	-77
1991153	-487	414	-180
1991481	-639	584	32
1991809	-1020	629	96
1992137	-1074	843	-12
1992465	-1208	567	-61
1992793	-1226	-306	-25
1993121	-998	-676	-200
1993449	-707	-600	-150
1993777	-478	-620	-26
1994105	-316	-624	138
1994433	-298	-883	301
1994761	0	-711	326
1995089	-32	-1095	584
1995417	-251	-1827	958
1995745	-305	-1864	1065
1996073	-218	-2017	1339
1996401	-64	-1972	1566
1996729	256	-2215	1807
1997057	536	-2690	2167
1997385	585	-3064	2419
1997713	773	-3339	2911
1998041	1391	-3069	3363
1998369	1871	-3323	3686
1998697	1985	-3810	4405
1999025	2455	-3768	4416
1999353	2941	-3706	5160
1999681	3386	-3886	5713
2000009	4278	-3507	6091
2000337	5031	-3110	6704
2000665	6328	-3035	6977
2000993	7780	-2490	6952
2001321	9631	-2270	7036
2001649	11643	-2126	7321
2001977	13700	-1571	6565
2002305	15535	-373	6186
2002633	16199	-640	6380
2002961	16682	-2473	5774
2003289	17332	-2740	4429
2003617	17168	259	2684
2003945	13680	2276	367
2004273	9188	2314	-1962
2004601	8139	3100	-4085
2004929	8546	2873	-5219
2005257	9752	1181	-5639
2005585	10873	-660	-5863
2005913	11488	-1747	-5642
2006241	11545	-2853	-5562
2006569	10477	-4396	-5951
2006897	8413	-6081	-5999
2007225	5217	-8498	-5708
2007553	1479	-10845	-4976
2007881	-2217	-9852	-4330
2008209	-3428	-6297	-3695
2008537	-3235	-3541	-3366
2008865	-2052	-2871	-3565
2009193	-56	-2631	-3887
2009521	2440	-2330	-4359
2009849	4793	-2481	-4805
2010177	6916	-2023	-4738
2010505	8871	-1394	-4619
2010833	10110	-761	-4311
2011161	10860	-461	-4166
2011489	10879	-351	-4186
2011817	10450	-226	-4183
2012145	10307	-339	-4022
2012473	9657	-499	-3528
2012801	8360	-560	-3604
2013129	7463	-1027	-3559
2013457	6025	-1085	-3369
2013785	4307	-124	-3306
2014113	3184	399	-3928
2014441	2114	10	-4118
2014769	882	230	-3096
2015097	1132	1827	-1988
2015425	1593	3720	-2102
2015753	1372	5543	-2469
2016081	-672	8008	-2254
2016409	-1078	10456	-2953
2016737	-1199	5306	-3216
2017065	-1756	2103	-3014
2017393	-1751	1021	-3808
2017721	-488	-126	-3929
2018049	147	-643	-2803
2018377	842	436	-2247
2018705	1100	1536	-2566
2019033	1757	1910	-3015
2019361	1074	4358	-4374
2019689	-1205	9656	-5553
2020017	-2926	14411	-6357
2020345	-3280	8492	-6217
2020673	-4092	-2945	-4818
2021001	-3802	-5505	-4725
2021329	-2504	-3010	-3955
2021657	-2269	-468	-3807
2021985	-2013	2063	-4659
2022313	-1697	6043	-5080
2022641	-1449	7736	-5911
2022969	-1631	4530	-5212
2023297	-1688	1406	-4795
2023625	-1781	1037	-4391
2023953	-1690	1365	-3971
2024281	-875	2469	-3274
2024609	-183	3455	-3131
2024937	429	4277	-2839
2025265	1251	5248	-2771
2025593	1837	5682	-2636
2025921	2094	6503	-2631
2026249	2890	6709	-2856
2026577	3359	6202	-2675
2026905	2563	5618	-2356
2027233	986	4033	-1634
2027561	-299	3063	-1295
2027889	-1601	3788	-1439
2028217	-3165	5115	-2228
2028545	-4245	5394	-2667
2028873	-5176	4456	-2785
2029201	-5377	3442	-2618
2029529	-5015	2738	-2326
2029857	-4461	2498	-2568
2030185	-4056	1876	-2619
2030513	-3627	1517	-2779
2030841	-3601	832	-2608
2031169	-4123	113	-2377
2031497	-4717	-974	-2105
2031825	-4913	-1991	-2001
2032153	-5521	-2672	-1941
2032481	-5887	-2613	-1871
2032809	-5867	-2788	-1736
2033137	-5277	-2308	-1903
2033465	-4970	-2139	-1950
2033793	-4690	-2109	-1493
2034121	-4912	-1462	-1215
2034449	-5449	-1409	-957
2034777	-5069	-1121	-755
2035105	-4685	-750	-671
2035433	-4027	-397	-473
2035761	-2958	547	-438
2036089	-2167	1077	-259
2036417	-1010	1627	-257
2036745	552	2327	-360
2037073	2016	2285	-312
2037401	2633	2919	-504
2037729	3100	3789	-813
2038057	4018	4504	-794
2038385	8302	5838	-330
2038713	6766	6527	-1338
2039041	4659	4280	-786
2039369	5655	5525	-693
2039697	6992	6797	-807
2040025	7379	6690	-728
2040353	7709	6764	-1082
2040681	7808	6645	-1066
2041009	7626	5647	-1393
2041337	7073	4981	-1779
2041665	6290	4383	-1855
2041993	4847	4031	-1843
2042321	3837	3613	-2088
2042649	4369	4025	-2267
2042977	6045	4900	-2489
2043305	8381	5839	-2543
2043633	11173	7289	-2605
2043961	12705	8371	-2665
2044289	13767	8902	-3141
2044617	14332	9325	-3318
2044945	15100	9977	-3713
2045273	15471	10124	-3914
2045601	15405	10286	-4408
2045929	14961	10086	-4688
2046257	13567	9081	-4841
2046585	12188	7577	-4916
2046913	10182	6042	-4696
2047241	7750	4575	-4486
2047569	5421	3201	-4300
2047897	3852	2365	-3853
2048225	3157	1465	-3190
2048553	3165	128	-2881
2048881	3420	-309	-2768
2049209	3949	23	-2292
2049537	3967	409	-2491
2049865	3510	-216	-2518
2050193	2719	-1445	-2307
2050521	1555	-2364	-2112
2050849	815	-3019	-1751
2051177	-410	-3817	-1438
2051505	-1808	-5188	-1199
2051833	-3095	-6694	-1262
2052161	-4205	-7707	-1462
2052489	-5112	-8414	-1244
2052817	-4911	-7986	-1169
2053145	-4476	-6451	-1257
2053473	-4314	-5533	-1636
2053801	-4967	-5431	-2270
2054129	-5525	-6164	-2752
2054457	-5568	-5759	-3271
2054785	-5322	-5496	-3550
2055113	-4534	-5508	-4098
2055441	-2460	-4409	-4811
2055769	-1121	-2052	-6111
2056097	-1985	-2839	-7068
2056425	-3334	-4849	-7963
2056753	-2743	-4963	-9484
2057081	-2119	-2595	-10762
2057409	-4626	-2423	-10441
2057737	-11799	-7156	-8731
2058065	-17199	-6580	-7179
2058393	-19961	-4761	-5081
2058721	-21819	-2280	-1708
2059049	-18369	-351	2349
2059377	-12871	306	4998
2059705	-5723	883	6927
2060033	851	1990	8416
2060361	6605	1136	8975
2060689	10580	87	9506
2061017	10904	603	11038
2061345	11477	1039	11978
2061673	10223	1887	13669
2062001	7439	892	15274
2062329	2451	-2082	16837
2062657	-2695	-4486	19425
2062985	-6907	-6140	21211
2063313	-9009	-7561	22794
2063641	-8806	-7770	23851
2063969	-7363	-8554	24144
2064297	-5141	-10620	24820
2064625	-1631	-11666	23950
2064953	2328	-10788	22461
2065281	5737	-8447	21434
2065609	8534	-8422	22681
2065937	10296	-6715	22016
2066265	10400	-5221	21548
2066593	10984	-4407	20990
2066921	11574	-4327	19750
2067249	11116	-3695	18402
2067577	10479	-2244	16669
2067905	9256	-1529	15756
2068233	7790	-1055	13013
2068561	6208	-296	10958
2068889	5266	1233	8903
2069217	5949	1161	6143
2069545	6409	633	3301
2069873	6147	964	685
2070201	4992	1332	-1710
2070529	3452	1305	-4027
2070857	1152	1116	-6174
2071185	709	1227	-7948
2071513	-1459	2005	-10005
2071841	-5859	1920	-12033
2072169	-8231	3849	-12109
2072497	-9755	4923	-11433
2072825	-5927	6579	-9236
2073153	-3128	5157	-8129
2073481	-1755	5148	-6109
2073809	-767	7278	-8452
2074137	-2426	-3083	-9845
2074465	-6633	-15629	-8150
2074793	-7766	-6176	-5688
2075121	-7726	-1287	-4235
2075449	-7935	-968	-3926
2075777	-7450	2902	-5446
2076105	-8145	7500	-5458
2076433	-7908	8302	-6895
2076761	-5334	7012	-8299
2077089	-324	6783	-7725
2077417	3899	6286	-7554
2077745	4925	3736	-6647
2078073	4686	3025	-5332
2078401	2665	3179	-4086
2078729	450	3018	-3530
2079057	-505	2689	-3130
2079385	-1204	2379	-2945
2079713	-1713	738	-2819
2080041	-1778	340	-2903
2080369	-1423	545	-2875
2080697	-1807	488	-2675
2081025	-1990	102	-2583
2081353	-2084	-15	-2485
2081681	-1697	420	-2396
2082009	-1633	-55	-2034
2082337	-1474	-491	-1770
2082665	-569	719	-1933
2082993	-588	-362	-1110
2083321	-500	-578	-698
2083649	199	178	-1256
2083977	1664	960	-1166
2084305	3474	825	-1331
2084633	4458	2067	-1515
2084961	5993	3625	-1709
2085289	7577	4922	-1820
2085617	8747	5836	-1724
2085945	10239	7329	-2080
2086273	11622	7240	-2048
2086601	12844	8035	-913
2086929	13934	8087	-763
2087257	14682	7216	-829
2087585	14600	7007	-132
2087913	15412	6849	-1133
2088241	14497	5537	-777
2088569	13708	4505	-946
2088897	16317	5596	-350
2089225	21912	8132	713
2089553	28711	12081	1531
2089881	32767	15696	1417
2090209	32767	17595	841
2090537	32767	19424	-538
2090865	32767	21310	-1490
2091193	32767	20345	-1752
2091521	32767	17274	-759
2091849	32767	15363	-473
2092177	31176	13301	409
2092505	30186	12585	1371
2092833	30138	12963	1993
2093161	31936	13726	1706
2093489	32767	13143	1029
2093817	32767	10808	-1675
2094145	32767	7184	-3327
2094473	32767	5110	-3817
2094801	26805	3755	-2435
2095129	19054	2751	-937
2095457	12637	3835	-2002
2095785	7827	4139	1055
2096113	5122	6086	3674
2096441	3962	6353	5052
2096769	4581	4870	5141
2097097	6217	3445	5247
2097425	7367	2827	3144
2097753	7303	3746	1540
2098081	5383	4104	1898
2098409	1753	4792	2145
2098737	-1322	5096	1989
2099065	-3043	3854	1878
2099393	-2704	168	2422
2099721	-2270	594	2404
2100049	-2090	1537	1400
2100377	-747	2640	-442
2100705	848	2487	-1044
2101033	1928	1998	-974
2101361	1883	1062	-997
2101689	1479	56	-783
2102017	687	150	-1138
2102345	500	-145	-1324
2102673	302	127	-1459
2103001	-14	-62	-1659
2103329	-110	-351	-1867
2103657	36	-178	-2200
2103985	250	88	-2376
2104313	538	277	-2328
2104641	738	404	-2279
2104969	428	-692	-1767
2105297	846	-1503	-1838
2105625	1002	-1916	-1880
2105953	348	-2655	-1576
2106281	-784	-3588	-1644
2106609	-1695	-4685	-1768
2106937	-2968	-5208	-1866
2107265	-4688	-5307	-1851
2107593	-6332	-5028	-1842
2107921	-7567	-4594	-1602
2108249	-8448	-4498	-1546
2108577	-9381	-5148	-1092
2108905	-9116	-4728	-505
2109233	-8888	-3664	-346
2109561	-8416	-2853	39
2109889	-7567	-2195	683
2110217	-6470	-660	1127
2110545	-5532	1175	1230
2110873	-4027	3810	813
2111201	-1220	6384	174
2111529	1043	7165	-801
2111857	2159	3263	-1301
2112185	2166	-139	-1214
2112513	1964	-2088	-1882
2112841	-659	-2717	-1534
2113169	-1847	-1428	85
2113497	-3032	449	405
2113825	-2129	859	656
2114153	-1905	357	601
2114481	-1945	16	242
2114809	-1281	-64	21
2115137	-523	-117	334
2115465	-341	37	424
2115793	-794	-410	770
2116121	-1103	-503	905
2116449	-1572	-626	973
2116777	-1796	-646	1065
2117105	-1503	-520	1117
2117433	-1114	-61	1042
2117761	-548	74	1140
2118089	-377	-229	1126
2118417	-15	-408	891
2118745	380	-366	907
2119073	669	-558	987
2119401	785	-207	1153
2119729	634	185	1336
2120057	474	468	1350
2120385	260	393	1408
2120713	-97	343	1326
2121041	-151	308	1245
2121369	-331	65	1225
2121697	-340	-74	1102
2122025	-58	162	1029
2122353	392	241	1109
2122681	757	291	1180
2123009	865	472	1112
2123337	891	514	1053
2123665	904	411	1081
2123993	740	437	1086
2124321	546	275	1075
2124649	651	383	996
2124977	729	467	890
2125305	896	643	930
2125633	950	762	895
2125961	924	723	935
2126289	528	879	901
2126617	325	1080	890
2126945	113	1128	847
2127273	-216	858	745
2127601	-321	661	478
2127929	144	626	247
2128257	304	433	16
2128585	324	249	-11
2128913	304	209	-140
2129241	268	359	-260
2129569	14	183	-274
2129897	122	117	-276
2130225	59	14	-297
2130553	-134	-235	-274
2130881	-385	-509	-301
2131209	-689	-715	-326
2131537	-691	-1150	-243
2131865	-475	-1175	-187
2132193	-212	-811	-304
2132521	-221	-851	-257
2132849	-309	-1322	-170
2133177	49	-1842	-18
2133505	474	-2085	232
2133833	806	-1764	97
2134161	895	-1609	140
2134489	767	-1825	280
2134817	885	-1787	407
2135145	1249	-1726	533
2135473	1509	-1486	640
2135801	1356	-1423	726
2136129	1286	-1605	897
2136457	1078	-1602	1025
2136785	855	-1627	1206
2137113	837	-1858	1292
2137441	530	-2278	1221
2137769	179	-2536	1497
2138097	118	-2414	1609
2138425	112	-2503	1748
2138753	349	-2685	1764
2139081	466	-3002	1832
2139409	808	-3110	1967
2139737	688	-3208	2131
2140065	824	-3137	2196
2140393	1358	-2861	1902
2140721	1926	-2686	1974
2141049	2414	-2383	2299
2141377	3589	-2264	2165
2141705	4573	-2170	2252
2142033	5450	-1749	2563
2142361	5545	-712	2829
2142689	6715	547	2955
2143017	8012	1800	2797
2143345	10255	2629	2331
2143673	10447	3374	1992
2144001	10004	3563	1621
2144329	10510	2875	534
2144657	11078	2094	26
2144985	11206	1330	-631
2145313	11103	964	-1414
2145641	11070	80	-1650
2145969	11075	-663	-1527
2146297	10923	-1246	-1688
2146625	10617	-2712	-1362
2146953	9881	-4416	-889
2147281	8390	-6157	-600
2147609	6456	-7125	-97
2147937	4960	-6784	427
2148265	4217	-5657	954
2148593	4557	-4643	746
2148921	4824	-4304	444
2149249	5170	-3832	251
2149577	5704	-3582	-82
2149905	6153	-2512	-246
2150233	6475	-2299	-545
2150561	7257	-1853	-1144
2150889	7278	-1229	-1389
2151217	6736	-987	-1824
2151545	6291	-598	-2153
2151873	5503	-301	-2403
2152201	4155	-52	-2860
2152529	3307	-23	-3151
2152857	2710	-209	-3482
2153185	2472	-166	-3669
2153513	2939	307	-4171
2153841	2013	742	-4775
2154169	-694	-362	-5115
2154497	-2258	316	-4027
