Time Stamp	Gyroscope X	Gyroscope Y	Gyroscope Z
RAW	RAW	RAW	RAW
no units	no units	no units	no units
4738484	-6	178	-32
4738812	-3	173	-33
4739140	3	177	-30
4739468	-3	181	-43
4739796	-12	175	-32
4740124	4	202	-41
4740452	5	196	-40
4740780	18	168	-59
4741108	40	188	-71
4741436	26	194	-64
4741764	16	165	-48
4742092	8	173	-33
4742420	-24	187	-15
4742748	-11	167	-24
4743076	-12	149	-28
4743404	-17	153	-31
4743732	-30	149	-19
4744060	-46	143	-22
4744388	-44	135	-17
4744716	-57	143	-24
4745044	-48	150	-18
4745372	-41	157	-27
4745700	-40	139	-21
4746028	-49	150	-22
4746356	-46	130	-20
4746684	-58	140	-26
4747012	-61	142	-11
4747340	-56	129	-22
4747668	-68	140	-14
4747996	-60	151	-11
4748324	-68	124	-15
4748652	-80	127	-3
4748980	-58	123	-8
4749308	-56	124	1
4749636	-50	119	-8
4749964	-51	131	-1
4750292	-59	141	3
4750620	-67	116	-7
4750948	-88	114	11
4751276	-118	103	13
4751604	-115	105	14
4751932	-112	104	23
4752260	-105	104	33
4752588	-94	103	14
4752916	-87	115	6
4753244	-89	122	15
4753572	-91	97	19
4753900	-105	109	28
4754228	-114	115	22
4754556	-126	121	4
4754884	-118	121	7
4755212	-94	114	1
4755540	-99	119	7
4755868	-101	120	-5
4756196	-107	99	-1
4756524	-127	111	9
4756852	-120	102	6
4757180	-108	129	-10
4757508	-76	123	-28
4757836	-77	125	-15
4758164	-63	105	-28
4758492	-63	125	-8
4758820	-92	117	-14
4759148	-101	127	-26
4759476	-87	122	-7
4759804	-81	123	-27
4760132	-63	127	-30
4760460	-67	126	-23
4760788	-68	122	-12
4761116	-61	133	-20
4761444	-63	125	-40
4761772	-66	141	-41
4762100	-72	127	-14
4762428	-85	125	-33
4762756	-90	131	-30
4763084	-80	127	-24
4763412	-90	136	-24
4763740	-67	131	-33
4764068	-54	133	-41
4764396	-61	147	-28
4764724	-83	128	-24
4765052	-80	138	-17
4765380	-105	118	-32
4765708	-100	125	-15
4766036	-94	122	-16
4766364	-76	124	-21
4766692	-80	131	-27
4767020	-92	127	-29
4767348	-91	131	-22
4767676	-98	124	-8
4768004	-90	118	-14
4768332	-98	127	-8
4768660	-76	124	-10
4768988	-80	133	-10
4769316	-66	119	-14
4769644	-86	122	-9
4769972	-87	126	-5
4770300	-84	119	6
4770628	-71	111	6
4770956	-56	128	-11
4771284	-71	120	-19
4771612	-69	127	-14
4771940	-71	114	-8
4772268	-89	104	-3
4772596	-90	109	2
4772924	-88	114	1
4773252	-74	124	2
4773580	-59	125	-2
4773908	-57	110	-5
4774236	-70	124	9
4774564	-61	129	4
4774892	-55	132	-8
4775220	-45	130	-7
4775548	-35	136	-16
4775876	-33	124	1
4776204	-46	133	-11
4776532	-43	131	-15
4776860	-54	126	-19
4777188	-34	123	-19
4777516	-59	122	-12
4777844	-64	134	-16
4778172	-50	116	-26
4778500	-49	131	-18
4778828	-66	133	-25
4779156	-73	118	-44
4779484	-74	127	-28
4779812	-84	123	-31
4780140	-88	131	-27
4780468	-89	137	-42
4780796	-78	136	-53
4781124	-88	131	-48
4781452	-82	136	-42
4781780	-77	130	-42
4782108	-73	132	-35
4782436	-74	139	-38
4782764	-64	146	-34
4783092	-71	121	-33
4783420	-51	125	-44
4783748	-45	129	-26
4784076	-61	141	-33
4784404	-65	121	-27
4784732	-70	128	-24
4785060	-75	128	-31
4785388	-69	111	-38
4785716	-77	125	-29
4786044	-63	119	-37
4786372	-62	128	-31
4786700	-69	117	-29
4787028	-51	136	-30
4787356	-69	120	-35
4787684	-46	126	-54
4788012	-49	134	-51
4788340	-76	133	-39
4788668	-64	144	-37
4788996	-71	139	-37
4789324	-43	136	-62
4789652	-37	131	-35
4789980	-18	133	-37
4790308	4	152	-53
4790636	8	160	-64
4790964	7	142	-68
4791292	-3	148	-65
4791620	-16	154	-54
4791948	-10	141	-48
4792276	-35	155	-42
4792604	-34	154	-53
4792932	-36	146	-53
4793260	-20	147	-49
4793588	-15	155	-57
4793916	-26	143	-57
4794244	-59	139	-37
4794572	-64	129	-34
4794900	-59	156	-27
4795228	-34	142	-38
4795556	-20	148	-56
4795884	-31	143	-49
4796212	-63	129	-36
4796540	-71	139	-18
4796868	-80	142	-13
4797196	-44	154	-27
4797524	-20	160	-44
4797852	-14	151	-52
4798180	-50	134	-40
4798508	-69	121	-13
4798836	-79	148	-28
4799164	-73	165	-23
4799492	-43	146	-38
4799820	-45	148	-52
4800148	-77	121	-45
4800476	-116	141	-35
4800804	-160	132	-26
4801132	-174	129	-31
4801460	-166	134	-34
4801788	-166	126	-15
4802116	-155	110	-37
4802444	-133	122	-27
4802772	-123	133	-50
4803100	-120	136	-40
4803428	-136	131	-44
4803756	-139	155	-42
4804084	-118	160	-43
4804412	-113	147	-48
4804740	-97	160	-31
4805068	-92	149	-34
4805396	-104	154	-28
4805724	-107	158	-36
4806052	-108	153	-17
4806380	-95	154	-21
4806708	-85	138	-24
4807036	-70	141	-25
4807364	-49	158	-29
4807692	-55	143	-40
4808020	-51	144	-25
4808348	-70	142	-25
4808676	-97	146	-36
4809004	-103	138	-11
4809332	-101	134	-28
4809660	-85	133	-26
4809988	-60	151	-43
4810316	-32	149	-31
4810644	-48	141	-36
4810972	-72	141	-23
4811300	-74	146	-19
4811628	-76	137	-11
4811956	-86	148	-16
4812284	-57	146	-33
4812612	-27	145	-28
4812940	-25	152	-45
4813268	-35	136	-46
4813596	-83	146	-40
4813924	-99	139	-34
4814252	-106	158	-28
4814580	-80	137	-54
4814908	-63	149	-44
4815236	-34	144	-58
4815564	-30	123	-49
4815892	-32	124	-35
4816220	-50	101	-39
4816548	-60	114	-32
4816876	-38	114	-26
4817204	-30	127	-45
4817532	-6	107	-48
4817860	-31	113	-35
4818188	-33	112	-32
4818516	-21	136	-16
4818844	-17	111	-48
4819172	-2	128	-59
4819500	6	106	-51
4819828	-10	107	-56
4820156	-22	117	-44
4820484	-42	113	-48
4820812	-52	99	-54
4821140	-50	116	-63
4821468	-11	101	-60
4821796	-17	114	-63
4822124	-2	103	-58
4822452	17	105	-61
4822780	-12	104	-79
4823108	-21	116	-60
4823436	-28	127	-57
4823764	-14	121	-66
4824092	-20	115	-63
4824420	-22	111	-73
4824748	-32	101	-67
4825076	-56	103	-48
4825404	-62	110	-67
4825732	-56	116	-56
4826060	-68	106	-58
4826388	-59	115	-62
4826716	-50	106	-59
4827044	-64	103	-54
4827372	-37	113	-69
4827700	-22	130	-62
4828028	-6	134	-75
4828356	0	129	-76
4828684	12	144	-78
4829012	-5	149	-62
4829340	-3	135	-59
4829668	-9	135	-55
4829996	-8	137	-71
4830324	-14	144	-56
4830652	3	130	-51
4830980	-9	143	-46
4831308	-14	139	-48
4831636	-8	136	-39
4831964	-13	152	-40
4832292	-7	141	-50
4832620	0	140	-31
4832948	-3	130	-28
4833276	-4	131	-24
4833604	-2	141	-33
4833932	-20	134	-17
4834260	-18	149	-31
4834588	-41	140	-29
4834916	-38	122	-27
4835244	-56	130	-23
4835572	-73	143	-33
4835900	-89	150	-27
4836228	-94	125	-25
4836556	-92	127	-29
4836884	-59	136	-23
4837212	-37	124	-45
4837540	-63	131	-38
4837868	-68	126	-21
4838196	-94	123	-13
4838524	-102	132	-8
4838852	-91	135	-17
4839180	-66	128	-19
4839508	-54	128	-16
4839836	-32	131	-30
4840164	-55	136	-18
4840492	-74	151	-12
4840820	-89	136	-8
4841148	-107	137	3
4841476	-103	121	-6
4841804	-81	135	-3
4842132	-65	116	-7
4842460	-65	126	-12
4842788	-68	128	-14
4843116	-90	124	-18
4843444	-110	119	-17
4843772	-132	134	-6
4844100	-131	122	-7
4844428	-128	120	-21
4844756	-109	132	-24
4845084	-96	128	-10
4845412	-89	122	-35
4845740	-107	118	-18
4846068	-119	127	-11
4846396	-120	139	-19
4846724	-102	135	-36
4847052	-70	129	-27
4847380	-74	125	-31
4847708	-70	126	-32
4848036	-76	127	-39
4848364	-79	134	-20
4848692	-83	133	-14
4849020	-74	127	-20
4849348	-62	130	-22
4849676	-67	134	-22
4850004	-60	123	-28
4850332	-50	130	-14
4850660	-53	125	-17
4850988	-64	137	-29
4851316	-87	132	-11
4851644	-108	125	-14
4851972	-98	138	-29
4852300	-114	137	-25
4852628	-125	152	-17
4852956	-105	139	-13
4853284	-91	145	-19
4853612	-85	144	-31
4853940	-76	153	-27
4854268	-80	135	-16
4854596	-84	151	-18
4854924	-85	148	-9
4855252	-68	147	-24
4855580	-48	150	-27
4855908	-47	163	-22
4856236	-58	147	-11
4856564	-48	131	-7
4856892	-44	153	-25
4857220	-28	166	-18
4857548	-41	152	-27
4857876	-15	160	-2
4858204	-28	150	-18
4858532	-32	173	-9
4858860	-20	153	-25
4859188	-29	155	-15
4859516	-39	152	-6
4859844	-45	149	-15
4860172	-63	149	-2
4860500	-49	154	4
4860828	-53	140	-7
4861156	-69	151	-2
4861484	-74	144	-12
4861812	-84	152	-3
4862140	-81	151	2
4862468	-99	145	3
4862796	-93	152	-10
4863124	-72	149	-9
4863452	-68	151	-6
4863780	-67	137	4
4864108	-58	159	-8
4864436	-47	150	-10
4864764	-76	161	-9
4865092	-66	151	1
4865420	-56	154	-16
4865748	-59	145	-10
4866076	-54	158	-25
4866404	-58	159	-15
4866732	-76	147	-7
4867060	-89	148	-4
4867388	-79	157	-4
4867716	-70	156	-25
4868044	-66	143	-19
4868372	-79	147	-18
4868700	-70	144	-16
4869028	-55	138	-10
4869356	-64	151	-12
4869684	-66	151	-17
4870012	-56	135	-20
4870340	-64	151	-22
4870668	-72	131	-9
4870996	-80	153	-17
4871324	-88	156	-31
4871652	-104	153	-22
4871980	-96	134	-8
4872308	-98	138	-9
4872636	-92	141	-21
4872964	-101	145	-20
4873292	-105	147	-20
4873620	-106	132	-15
4873948	-113	127	-15
4874276	-103	149	-7
4874604	-93	145	-24
4874932	-94	155	-29
4875260	-101	156	-22
4875588	-101	147	-14
4875916	-93	135	-14
4876244	-95	160	-24
4876572	-78	163	-30
4876900	-74	151	-20
4877228	-86	160	-4
4877556	-111	161	-24
4877884	-127	143	-13
4878212	-103	157	-6
4878540	-101	160	-8
4878868	-92	152	-12
4879196	-70	150	-14
4879524	-60	168	-6
4879852	-60	162	1
4880180	-58	150	-5
4880508	-61	145	6
4880836	-63	163	-6
4881164	-59	157	0
4881492	-68	160	3
4881820	-54	165	-12
4882148	-33	156	-19
4882476	-58	164	-19
4882804	-74	152	-1
4883132	-61	159	-15
4883460	-89	165	-7
4883788	-56	169	-17
4884116	-43	166	-33
4884444	-72	161	-26
4884772	-64	158	-26
4885100	-65	161	-18
4885428	-74	153	-12
4885756	-57	146	-15
4886084	-75	140	-13
4886412	-95	142	-12
4886740	-94	144	-3
4887068	-109	135	-5
4887396	-98	155	-1
4887724	-99	161	-1
4888052	-82	148	-1
4888380	-83	149	-6
4888708	-96	155	-10
4889036	-78	139	5
4889364	-69	152	17
4889692	-81	153	25
4890020	-78	158	-5
4890348	-50	164	1
4890676	-56	156	14
4891004	-59	151	7
4891332	-68	151	8
4891660	-57	156	3
4891988	-61	150	5
4892316	-54	159	-9
4892644	-41	162	-10
4892972	-49	160	-3
4893300	-58	163	-5
4893628	-61	139	-12
4893956	-68	138	-12
4894284	-94	142	-2
4894612	-79	146	-15
4894940	-96	138	0
4895268	-76	146	3
4895596	-65	154	-14
4895924	-38	157	-1
4896252	-37	159	-4
4896580	-51	165	-5
4896908	-65	158	7
4897236	-42	146	3
4897564	-26	157	9
4897892	-8	186	23
4898220	24	174	2
4898548	43	172	1
4898876	31	183	7
4899204	44	160	11
4899532	34	179	19
4899860	24	175	13
4900188	31	191	16
4900516	51	187	24
4900844	43	179	16
4901172	37	170	22
4901500	-5	158	35
4901828	-10	165	33
4902156	-13	179	38
4902484	6	165	51
4902812	8	159	37
4903140	13	145	54
4903468	21	169	41
4903796	21	169	33
4904124	-25	173	41
4904452	-5	157	51
4904780	0	191	63
4905108	8	128	41
4905436	48	172	61
4905764	35	161	58
4906092	34	158	49
4906420	19	163	58
4906748	-13	144	64
4907076	-45	145	85
4907404	-62	140	63
4907732	-93	158	80
4908060	-105	130	85
4908388	-86	142	90
4908716	-109	123	82
4909044	-106	131	93
4909372	-91	124	89
4909700	-145	132	92
4910028	-194	109	106
4910356	-192	114	100
4910684	-217	90	107
4911012	-191	127	107
4911340	-174	111	103
4911668	-193	89	105
4911996	-199	111	113
4912324	-217	95	110
4912652	-212	96	116
4912980	-234	87	112
4913308	-234	82	113
4913636	-203	98	97
4913964	-223	81	100
4914292	-181	126	96
4914620	-191	101	64
4914948	-190	89	82
4915276	-164	121	57
4915604	-175	116	39
4915932	-185	120	49
4916260	-161	125	39
4916588	-160	132	25
4916916	-171	129	8
4917244	-185	143	14
4917572	-185	130	2
4917900	-199	125	0
4918228	-187	130	-1
4918556	-176	118	-16
4918884	-186	130	-15
4919212	-183	128	-3
4919540	-172	141	-20
4919868	-162	151	-16
4920196	-166	137	-16
4920524	-173	118	-22
4920852	-188	125	-20
4921180	-149	139	-13
4921508	-146	150	-24
4921836	-146	157	-20
4922164	-138	165	-25
4922492	-143	145	-26
4922820	-136	155	-9
4923148	-125	157	-1
4923476	-97	165	-18
4923804	-94	159	-17
4924132	-78	162	-20
4924460	-80	147	-13
4924788	-84	153	-17
4925116	-56	142	-1
4925444	-46	158	-5
4925772	-49	145	-16
4926100	-39	169	-13
4926428	-59	154	-23
4926756	-77	156	1
4927084	-76	159	-11
4927412	-86	161	-2
4927740	-80	157	-9
4928068	-94	161	-11
4928396	-112	166	-16
4928724	-100	150	0
4929052	-98	169	8
4929380	-100	171	8
4929708	-108	156	-16
4930036	-78	171	-19
4930364	-71	167	-16
4930692	-101	174	-15
4931020	-103	163	4
4931348	-107	149	-6
4931676	-103	182	-13
4932004	-84	181	-11
4932332	-62	177	-5
4932660	-48	165	-14
4932988	-49	160	-16
4933316	-77	178	-12
4933644	-87	157	-11
4933972	-77	166	2
4934300	-59	181	1
4934628	-60	164	-27
4934956	-48	168	-15
4935284	-76	166	-16
4935612	-87	171	-3
4935940	-112	179	-13
4936268	-91	187	-21
4936596	-73	178	-22
4936924	-54	171	-14
4937252	-43	161	-13
4937580	-76	169	-11
4937908	-81	166	-2
4938236	-107	171	1
4938564	-86	170	10
4938892	-89	156	-1
4939220	-77	173	8
4939548	-73	170	9
4939876	-71	176	9
4940204	-82	156	23
4940532	-105	163	14
4940860	-115	166	21
4941188	-105	156	21
4941516	-84	164	23
4941844	-64	162	23
4942172	-56	149	22
4942500	-61	156	39
4942828	-71	154	32
4943156	-106	172	31
4943484	-117	161	42
4943812	-118	167	23
4944140	-99	177	29
4944468	-73	164	2
4944796	-40	190	18
4945124	-52	171	15
4945452	-47	188	15
4945780	-39	189	16
4946108	-34	201	15
4946436	-18	199	-3
4946764	-18	183	2
4947092	-26	183	-5
4947420	-62	192	15
4947748	-51	179	4
4948076	-39	172	21
4948404	-16	180	37
4948732	-22	171	25
4949060	-38	174	40
4949388	-72	167	61
4949716	-43	168	70
4950044	-51	183	73
4950372	-56	168	58
4950700	-32	162	73
4951028	-63	162	93
4951356	-60	162	105
4951684	-32	167	125
4952012	-31	187	115
4952340	-19	155	116
4952668	7	179	135
4952996	16	168	132
4953324	29	177	131
4953652	14	168	129
4953980	3	155	143
4954308	8	171	118
4954636	9	152	144
4954964	22	161	155
4955292	20	135	141
4955620	18	145	151
4955948	39	158	159
4956276	37	152	135
4956604	37	163	111
4956932	65	142	120
4957260	56	158	109
4957588	47	132	100
4957916	41	143	90
4958244	20	144	116
4958572	-7	129	116
4958900	39	144	101
4959228	35	140	71
4959556	60	162	77
4959884	72	128	81
4960212	64	127	103
4960540	5	117	71
4960868	-7	109	97
4961196	-20	124	86
4961524	-14	139	88
4961852	49	111	91
4962180	36	109	83
4962508	33	111	88
4962836	-15	77	93
4963164	-54	90	106
4963492	-82	47	102
4963820	-87	97	89
4964148	-71	73	88
4964476	-70	60	85
4964804	-95	40	88
4965132	-109	20	99
4965460	-128	40	104
4965788	-93	72	102
4966116	-61	50	97
4966444	-23	84	77
4966772	7	67	70
4967100	32	118	69
4967428	83	79	88
4967756	85	110	64
4968084	120	99	65
4968412	153	123	66
4968740	194	152	52
4969068	261	134	71
4969396	277	152	62
4969724	329	126	46
4970052	366	148	53
4970380	364	135	48
4970708	376	126	56
4971036	395	141	68
4971364	380	121	83
4971692	400	170	60
4972020	429	156	75
4972348	436	145	57
4972676	420	157	72
4973004	457	129	79
4973332	376	113	109
4973660	373	104	103
4973988	353	93	91
4974316	303	98	74
4974644	267	87	99
4974972	315	105	103
4975300	282	72	88
4975628	299	91	66
4975956	302	82	72
4976284	309	110	54
4976612	267	93	46
4976940	246	103	65
4977268	236	112	50
4977596	247	128	43
4977924	319	131	-1
4978252	342	146	-33
4978580	303	132	-47
4978908	294	107	-49
4979236	242	132	-55
4979564	189	142	-71
4979892	176	157	-88
4980220	163	140	-88
4980548	106	107	-110
4980876	73	142	-131
4981204	30	125	-121
4981532	-35	125	-154
4981860	-91	112	-155
4982188	-110	129	-164
4982516	-167	120	-186
4982844	-224	114	-177
4983172	-250	128	-183
4983500	-311	119	-172
4983828	-338	130	-193
4984156	-350	146	-194
4984484	-381	145	-206
4984812	-415	134	-205
4985140	-449	107	-211
4985468	-491	98	-184
4985796	-532	120	-170
4986124	-526	139	-176
4986452	-525	128	-156
4986780	-530	101	-152
4987108	-572	105	-138
4987436	-575	77	-114
4987764	-586	111	-105
4988092	-580	100	-122
4988420	-587	126	-117
4988748	-569	114	-129
4989076	-595	109	-114
4989404	-635	89	-94
4989732	-622	121	-95
4990060	-620	109	-94
4990388	-626	115	-113
4990716	-625	131	-135
4991044	-618	111	-141
4991372	-667	92	-121
4991700	-692	110	-122
4992028	-647	132	-134
4992356	-624	133	-156
4992684	-669	87	-185
4993012	-636	141	-177
4993340	-647	75	-166
4993668	-697	85	-168
4993996	-669	94	-159
4994324	-658	127	-182
4994652	-672	127	-195
4994980	-662	97	-207
4995308	-694	89	-205
4995636	-715	78	-167
4995964	-720	95	-166
4996292	-693	99	-167
4996620	-674	111	-193
4996948	-636	128	-197
4997276	-615	101	-198
4997604	-589	118	-196
4997932	-580	119	-187
4998260	-559	140	-210
4998588	-562	124	-182
4998916	-520	135	-175
4999244	-511	139	-174
4999572	-465	143	-167
4999900	-409	169	-174
5000228	-353	186	-191
5000556	-311	153	-179
5000884	-303	152	-150
5001212	-275	188	-149
5001540	-252	168	-144
5001868	-205	216	-159
5002196	-157	202	-149
5002524	-142	180	-146
5002852	-132	163	-104
5003180	-151	172	-84
5003508	-131	184	-83
5003836	-109	169	-94
5004164	-111	169	-83
5004492	-125	171	-73
5004820	-136	144	-67
5005148	-141	156	-49
5005476	-122	150	-50
5005804	-88	168	-57
5006132	-45	179	-64
5006460	1	191	-55
5006788	37	190	-59
5007116	69	174	-52
5007444	64	214	-48
5007772	71	205	-42
5008100	71	203	-39
5008428	65	185	-24
5008756	71	196	-29
5009084	82	201	-30
5009412	118	218	-28
5009740	137	203	-14
5010068	126	205	-3
5010396	126	198	0
5010724	118	208	0
5011052	103	218	3
5011380	115	216	-8
5011708	150	217	11
5012036	170	240	1
5012364	167	211	21
5012692	161	206	34
5013020	136	186	47
5013348	141	213	51
5013676	131	198	49
5014004	114	195	41
5014332	96	171	51
5014660	82	176	66
5014988	68	171	63
5015316	41	162	68
5015644	36	181	54
5015972	45	207	42
5016300	3	188	60
5016628	22	187	51
5016956	22	184	63
5017284	-1	160	46
5017612	39	209	44
5017940	62	182	33
5018268	34	211	44
5018596	37	205	29
5018924	40	217	18
5019252	36	220	17
5019580	-1	201	-4
5019908	2	172	-6
5020236	-7	199	-4
5020564	-25	199	-3
5020892	-43	207	-17
5021220	-54	196	-22
5021548	-88	194	0
5021876	-74	191	-11
5022204	-75	216	-9
5022532	-67	202	-23
5022860	-41	216	-19
5023188	-54	197	-24
5023516	-51	190	-9
5023844	-64	212	-21
5024172	-75	195	-5
5024500	-93	225	-10
5024828	-105	192	-22
5025156	-93	222	-5
5025484	-78	201	-16
5025812	-99	216	-8
5026140	-87	201	-25
5026468	-67	227	-29
5026796	-91	202	-25
5027124	-89	214	-31
5027452	-103	221	-20
5027780	-120	204	-24
5028108	-103	220	-29
5028436	-89	228	-58
5028764	-86	213	-59
5029092	-95	207	-57
5029420	-104	204	-63
5029748	-140	199	-56
5030076	-159	192	-65
5030404	-171	184	-47
5030732	-164	186	-52
5031060	-161	192	-75
5031388	-137	204	-67
5031716	-139	202	-84
5032044	-142	218	-89
5032372	-153	192	-62
5032700	-168	201	-75
5033028	-165	215	-90
5033356	-127	232	-82
5033684	-87	226	-85
5034012	-66	245	-98
5034340	-25	224	-72
5034668	-67	223	-86
5034996	-73	213	-60
5035324	-83	219	-53
5035652	-98	209	-49
5035980	-56	222	-36
5036308	-27	212	-45
5036636	-15	195	-39
5036964	-20	203	-33
5037292	-41	195	-36
5037620	-67	206	-16
5037948	-124	186	-11
5038276	-133	185	-10
5038604	-111	187	18
5038932	-84	217	-4
5039260	-63	197	-8
5039588	-24	207	-8
5039916	-47	191	4
5040244	-32	209	-3
5040572	-51	224	5
5040900	-20	224	10
5041228	-9	213	-4
5041556	32	197	-3
5041884	24	204	5
5042212	-20	189	37
5042540	-2	207	50
5042868	-12	199	47
5043196	19	194	41
5043524	36	182	50
5043852	67	182	40
5044180	64	199	49
5044508	28	196	45
5044836	18	178	56
5045164	28	175	71
5045492	41	205	62
5045820	49	206	50
5046148	99	208	32
5046476	166	215	20
5046804	171	215	-19
5047132	140	220	-33
5047460	160	227	-35
5047788	139	220	-60
5048116	153	241	-82
5048444	158	232	-98
5048772	136	237	-113
5049100	108	207	-127
5049428	70	209	-135
5049756	54	200	-159
5050084	6	180	-171
5050412	-12	176	-176
5050740	-24	165	-184
5051068	13	179	-212
5051396	17	154	-220
5051724	19	141	-214
5052052	-23	128	-213
5052380	-54	130	-230
5052708	-60	129	-239
5053036	-46	132	-232
5053364	-14	139	-267
5053692	-13	107	-261
5054020	-15	127	-266
5054348	-42	100	-272
5054676	-101	100	-249
5055004	-123	105	-249
5055332	-120	97	-265
5055660	-118	83	-256
5055988	-112	61	-243
5056316	-103	81	-223
5056644	-63	75	-237
5056972	-38	75	-238
5057300	-17	60	-240
5057628	-38	35	-215
5057956	-59	37	-207
5058284	-68	39	-196
5058612	-40	42	-198
5058940	-32	34	-191
5059268	-2	24	-177
5059596	2	28	-170
5059924	-60	-18	-160
5060252	-98	-15	-115
5060580	-89	-4	-103
5060908	-97	-7	-116
5061236	-56	-6	-102
5061564	-34	-32	-112
5061892	-55	-33	-86
5062220	-87	-49	-74
5062548	-80	-44	-42
5062876	-81	-37	-44
5063204	-80	-54	-53
5063532	-65	-67	-41
5063860	-73	-72	-12
5064188	-79	-79	8
5064516	-80	-85	11
5064844	-88	-85	28
5065172	-68	-82	47
5065500	-26	-91	52
5065828	6	-98	57
5066156	9	-114	85
5066484	28	-91	86
5066812	28	-98	112
5067140	22	-109	112
5067468	57	-89	106
5067796	74	-94	109
5068124	19	-98	113
5068452	-3	-114	147
5068780	-37	-97	155
5069108	-40	-97	163
5069436	-13	-79	147
5069764	36	-74	153
5070092	51	-95	161
5070420	15	-140	157
5070748	1	-102	163
5071076	12	-106	177
5071404	4	-129	158
5071732	26	-128	143
5072060	62	-83	121
5072388	113	-47	116
5072716	152	-6	113
5073044	173	8	99
5073372	188	-17	97
5073700	191	6	90
5074028	197	-40	87
5074356	212	-14	108
5074684	205	-67	100
5075012	256	-72	80
5075340	270	-115	72
5075668	313	-112	60
5075996	339	-142	40
5076324	334	-111	27
5076652	336	-84	22
5076980	353	-80	19
5077308	357	-36	-1
5077636	341	-33	4
5077964	346	-33	-7
5078292	347	-1	-29
5078620	373	0	-35
5078948	337	-17	-27
5079276	353	14	-27
5079604	373	29	-34
5079932	383	36	-28
5080260	391	24	-16
5080588	367	-4	-38
5080916	359	-69	-23
5081244	335	-67	-13
5081572	308	-90	-29
5081900	283	-76	-23
5082228	269	-104	-16
5082556	231	-134	-27
5082884	193	-115	-36
5083212	216	-99	-24
5083540	193	-110	-81
5083868	167	-139	-90
5084196	131	-235	-74
5084524	124	-242	-79
5084852	98	-147	-118
5085180	60	-139	-122
5085508	13	-100	-127
5085836	85	-126	-142
5086164	113	-49	-141
5086492	130	-64	-163
5086820	205	31	-172
5087148	237	18	-180
5087476	236	65	-189
5087804	238	74	-189
5088132	243	107	-166
5088460	203	115	-162
5088788	167	145	-144
5089116	237	219	-145
5089444	291	237	-139
5089772	319	199	-147
5090100	401	216	-168
5090428	375	225	-157
5090756	329	203	-128
5091084	304	241	-137
5091412	222	216	-116
5091740	182	203	-113
5092068	168	239	-111
5092396	135	204	-109
5092724	135	239	-105
5093052	161	232	-79
5093380	155	204	-53
5093708	197	190	-31
5094036	248	134	-34
5094364	306	94	-17
5094692	366	97	-12
5095020	381	72	1
5095348	372	82	19
5095676	304	213	48
5096004	297	241	95
5096332	348	287	85
5096660	394	342	69
5096988	458	340	49
5097316	462	332	62
5097644	454	360	87
5097972	450	388	110
5098300	423	405	131
5098628	391	408	122
5098956	357	429	133
5099284	357	455	168
5099612	386	483	172
5099940	402	489	182
5100268	394	497	150
5100596	389	453	156
5100924	281	443	172
5101252	234	436	187
5101580	198	471	174
5101908	120	412	184
5102236	4	396	180
5102564	-48	373	199
5102892	-39	362	211
5103220	-26	373	207
5103548	-18	372	186
5103876	38	382	160
5104204	59	357	129
5104532	43	379	115
5104860	5	334	92
5105188	-28	343	98
5105516	-135	313	81
5105844	-260	286	93
5106172	-340	263	87
5106500	-358	230	99
5106828	-410	286	56
5107156	-409	256	38
5107484	-366	243	32
5107812	-309	262	23
5108140	-248	241	-4
5108468	-252	248	-7
5108796	-261	262	-6
5109124	-265	253	-21
5109452	-224	242	4
5109780	-193	280	-8
5110108	-156	256	-4
5110436	-129	276	-3
5110764	-139	277	-24
5111092	-192	258	-6
5111420	-259	244	-8
5111748	-273	250	31
5112076	-263	283	13
5112404	-255	294	-2
5112732	-203	284	-12
5113060	-154	271	-6
5113388	-93	288	-16
5113716	-101	276	-9
5114044	-121	282	29
5114372	-125	272	49
5114700	-126	304	52
5115028	-100	299	38
5115356	-24	316	30
5115684	11	295	21
5116012	69	320	6
5116340	93	313	20
5116668	117	309	2
5116996	75	295	-7
5117324	36	314	-5
5117652	-16	283	12
5117980	-40	303	-26
5118308	-25	292	-20
5118636	-20	293	-9
5118964	-45	298	-14
5119292	-107	252	-27
5119620	-142	266	-29
5119948	-184	252	-26
5120276	-220	248	-34
5120604	-216	245	-36
5120932	-217	252	-55
5121260	-204	215	-49
5121588	-202	227	-37
5121916	-200	233	-41
5122244	-197	242	-49
5122572	-206	223	-52
5122900	-234	225	-52
5123228	-229	216	-53
5123556	-235	221	-56
5123884	-221	204	-62
5124212	-246	212	-62
5124540	-271	181	-75
5124868	-272	209	-71
5125196	-270	194	-59
5125524	-248	214	-80
5125852	-219	209	-81
5126180	-186	215	-84
5126508	-163	199	-81
5126836	-155	212	-90
5127164	-167	204	-90
5127492	-174	217	-84
5127820	-173	178	-78
5128148	-185	174	-74
5128476	-176	188	-70
5128804	-154	193	-71
5129132	-105	186	-47
5129460	-63	196	-64
5129788	-44	190	-53
5130116	-38	207	-51
5130444	-62	187	-33
5130772	-86	183	-39
5131100	-105	181	-30
5131428	-113	177	-20
5131756	-117	183	-8
5132084	-115	191	4
5132412	-104	174	0
5132740	-104	159	6
5133068	-119	164	13
5133396	-120	152	17
5133724	-133	157	13
5134052	-133	157	17
5134380	-125	152	15
5134708	-141	150	27
5135036	-154	163	21
5135364	-158	146	28
5135692	-151	156	23
5136020	-135	158	30
5136348	-150	167	28
5136676	-130	151	32
5137004	-108	152	34
5137332	-103	154	20
5137660	-121	149	19
5137988	-120	155	16
5138316	-132	174	23
5138644	-114	134	37
5138972	-86	154	36
5139300	-88	141	25
5139628	-91	144	24
5139956	-74	129	22
5140284	-84	138	5
5140612	-74	149	12
5140940	-82	150	5
5141268	-75	145	10
5141596	-70	139	-14
5141924	-88	136	6
5142252	-91	144	-8
5142580	-94	161	0
5142908	-87	144	3
5143236	-95	152	-21
5143564	-98	155	-19
5143892	-81	141	-23
5144220	-91	145	-10
5144548	-80	130	-25
5144876	-86	127	-36
5145204	-107	141	-35
5145532	-94	138	-22
5145860	-78	137	-22
5146188	-70	154	-44
5146516	-74	141	-51
5146844	-83	167	-49
5147172	-96	149	-59
5147500	-99	157	-74
5147828	-115	145	-68
5148156	-115	148	-69
5148484	-118	143	-72
5148812	-119	140	-70
5149140	-129	136	-69
5149468	-132	151	-69
5149796	-95	141	-61
5150124	-66	150	-56
5150452	-51	139	-68
5150780	-63	136	-63
5151108	-79	133	-57
5151436	-87	124	-61
5151764	-105	131	-67
5152092	-102	120	-53
5152420	-70	123	-60
5152748	-72	123	-62
5153076	-68	119	-63
5153404	-77	135	-58
5153732	-80	120	-59
5154060	-74	124	-58
5154388	-67	122	-50
5154716	-72	122	-60
5155044	-59	116	-54
5155372	-70	126	-68
5155700	-67	132	-67
5156028	-82	117	-64
5156356	-64	108	-75
5156684	-56	112	-54
5157012	-57	113	-65
5157340	-60	116	-66
5157668	-54	117	-74
5157996	-67	124	-83
5158324	-57	105	-79
5158652	-80	112	-55
5158980	-73	119	-63
5159308	-46	116	-68
5159636	-38	121	-69
5159964	-56	113	-66
5160292	-39	117	-78
5160620	-35	126	-63
5160948	-31	122	-83
5161276	-16	118	-75
5161604	-2	123	-94
5161932	25	109	-83
5162260	37	111	-69
5162588	38	133	-89
5162916	54	104	-66
5163244	62	135	-94
5163572	68	115	-82
5163900	60	127	-97
5164228	55	128	-90
5164556	43	112	-78
5164884	67	112	-82
5165212	73	91	-87
5165540	70	97	-90
5165868	62	114	-73
5166196	68	91	-84
5166524	14	87	-81
5166852	3	88	-73
5167180	6	99	-70
5167508	7	78	-74
5167836	-3	81	-68
5168164	-7	70	-58
5168492	-19	66	-56
5168820	-38	70	-64
5169148	-31	60	-51
5169476	-49	58	-48
5169804	-48	57	-53
5170132	-54	65	-54
5170460	-66	57	-40
5170788	-43	54	-31
5171116	-31	58	-37
5171444	-9	67	-45
5171772	-12	60	-35
5172100	4	55	-18
5172428	1	45	-35
5172756	-7	53	-21
5173084	-5	49	-17
5173412	-6	45	-28
5173740	-3	47	-15
5174068	-10	53	-17
5174396	-20	54	-5
5174724	-12	47	-5
5175052	-11	48	-11
5175380	-27	37	2
5175708	-26	43	4
5176036	-42	40	5
5176364	-31	43	-8
5176692	-24	36	-19
5177020	-22	39	1
5177348	-19	56	-2
5177676	-37	35	-4
5178004	-52	44	-15
5178332	-57	27	0
5178660	-45	34	-2
5178988	-49	42	-1
5179316	-37	37	2
5179644	-46	45	-5
5179972	-49	53	1
5180300	-34	54	-8
5180628	-28	52	-15
5180956	-18	65	-9
5181284	-36	57	-2
5181612	-49	38	-12
5181940	-48	53	-12
5182268	-46	67	-18
5182596	-58	60	-36
5182924	-70	69	-27
5183252	-61	43	-31
5183580	-69	35	-30
5183908	-88	60	-46
5184236	-98	38	-33
5184564	-104	60	-36
5184892	-107	45	-21
5185220	-105	40	-4
5185548	-98	32	-10
5185876	-89	32	18
5186204	-86	24	25
5186532	-84	25	29
5186860	-116	27	26
5187188	-135	17	37
5187516	-141	11	44
5187844	-174	18	50
5188172	-175	36	62
5188500	-171	27	53
5188828	-221	6	39
5189156	-206	19	60
5189484	-201	19	60
5189812	-207	25	39
5190140	-189	55	22
5190468	-180	36	40
5190796	-176	35	21
5191124	-220	38	40
5191452	-209	41	38
5191780	-181	53	25
5192108	-187	47	32
5192436	-193	54	28
5192764	-183	58	32
5193092	-151	59	34
5193420	-187	81	19
5193748	-192	60	12
5194076	-197	105	6
5194404	-178	95	7
5194732	-195	97	20
5195060	-182	99	24
5195388	-148	98	52
5195716	-126	107	52
5196044	-128	111	53
5196372	-100	109	42
5196700	-107	103	54
5197028	-90	112	58
5197356	-88	107	58
5197684	-100	107	55
5198012	-133	124	49
5198340	-140	118	46
5198668	-121	119	54
5198996	-130	137	46
5199324	-121	130	40
5199652	-101	134	38
5199980	-93	139	58
5200308	-82	141	50
5200636	-111	129	45
5200964	-103	127	67
5201292	-108	120	71
5201620	-115	120	66
5201948	-103	139	62
5202276	-87	123	52
5202604	-62	142	46
5202932	-52	126	59
5203260	-56	145	75
5203588	-60	139	87
5203916	-43	158	68
5204244	-59	140	76
5204572	-62	149	80
5204900	-39	150	96
5205228	-52	148	87
5205556	-55	143	91
5205884	-69	148	93
5206212	-88	140	87
5206540	-111	148	84
5206868	-153	139	96
5207196	-152	165	91
5207524	-112	153	109
5207852	-98	147	112
5208180	-84	146	83
5208508	-71	166	108
5208836	-76	152	110
5209164	-96	151	117
5209492	-71	170	119
5209820	-65	158	108
5210148	-72	156	100
5210476	-74	158	120
5210804	-58	148	118
5211132	-47	168	116
5211460	-30	175	124
5211788	-28	171	137
5212116	-49	155	120
5212444	-41	173	113
5212772	-34	172	149
5213100	-56	169	150
5213428	-62	165	138
5213756	-88	158	148
5214084	-76	178	142
5214412	-86	163	152
5214740	-93	171	157
5215068	-99	175	184
5215396	-99	185	158
5215724	-133	161	157
5216052	-109	186	157
5216380	-109	161	152
5216708	-119	171	174
5217036	-105	175	171
5217364	-103	161	167
5217692	-94	187	188
5218020	-82	214	165
5218348	-73	197	162
5218676	-94	211	168
5219004	-104	196	164
5219332	-77	211	145
5219660	-123	211	155
5219988	-143	217	140
5220316	-156	227	133
5220644	-160	227	134
5220972	-171	237	129
5221300	-169	231	134
5221628	-140	224	131
5221956	-110	256	105
5222284	-129	230	105
5222612	-133	256	94
5222940	-126	245	96
5223268	-122	257	86
5223596	-101	236	80
5223924	-78	249	87
5224252	-72	234	59
5224580	-75	247	69
5224908	-68	252	75
5225236	-55	254	65
5225564	-60	237	68
5225892	-46	246	65
5226220	-75	225	65
5226548	-86	238	62
5226876	-89	234	63
5227204	-100	233	54
5227532	-123	241	50
5227860	-144	232	36
5228188	-153	227	30
5228516	-171	209	51
5228844	-185	242	52
5229172	-157	244	37
5229500	-147	235	34
5229828	-149	247	19
5230156	-135	258	31
5230484	-138	227	27
5230812	-116	253	25
5231140	-121	222	39
5231468	-121	241	24
5231796	-114	257	7
5232124	-124	242	15
5232452	-108	247	14
5232780	-82	250	3
5233108	-115	250	11
5233436	-118	223	19
5233764	-102	247	21
5234092	-99	251	14
5234420	-120	239	-8
5234748	-139	243	0
5235076	-113	241	4
5235404	-113	241	11
5235732	-126	214	11
5236060	-104	247	19
5236388	-75	247	26
5236716	-63	238	11
5237044	-87	216	8
5237372	-93	232	2
5237700	-113	231	0
5238028	-141	227	-3
5238356	-149	221	0
5238684	-135	228	-6
5239012	-138	229	-11
5239340	-138	240	-14
5239668	-140	232	-13
5239996	-134	218	-11
5240324	-159	226	-3
5240652	-170	211	6
5240980	-160	222	4
5241308	-168	196	7
5241636	-170	231	19
5241964	-143	218	33
5242292	-142	210	35
5242620	-150	197	55
5242948	-175	200	80
5243276	-200	201	87
5243604	-217	205	87
5243932	-263	233	60
5244260	-222	231	75
5244588	-174	239	61
5244916	-171	250	63
5245244	-140	224	47
5245572	-114	253	33
5245900	-119	243	33
5246228	-112	260	11
5246556	-137	253	4
5246884	-131	244	17
5247212	-128	264	11
5247540	-103	256	0
5247868	-90	277	-3
5248196	-91	248	9
5248524	-99	260	4
5248852	-118	229	9
5249180	-98	257	15
5249508	-87	255	13
5249836	-77	263	5
5250164	-54	260	24
5250492	-42	251	26
5250820	-74	243	23
5251148	-109	235	48
5251476	-98	211	46
5251804	-172	220	47
5252132	-177	230	34
5252460	-194	211	31
5252788	-203	223	26
5253116	-182	208	27
5253444	-210	204	24
5253772	-243	193	28
5254100	-255	195	30
5254428	-270	195	9
5254756	-242	205	-11
5255084	-191	222	-15
5255412	-131	227	-15
5255740	-92	226	-33
5256068	-75	228	-32
5256396	-42	235	-44
5256724	-1	221	-55
5257052	27	235	-66
5257380	29	243	-72
5257708	51	226	-73
5258036	52	220	-73
5258364	45	203	-79
5258692	32	210	-81
5259020	-23	204	-85
5259348	-33	195	-80
5259676	-71	207	-99
5260004	-86	179	-97
5260332	-101	191	-90
5260660	-85	208	-86
5260988	-67	217	-107
5261316	-19	190	-112
5261644	-9	186	-121
5261972	-9	192	-120
5262300	-37	174	-127
5262628	-42	178	-137
5262956	-55	183	-148
5263284	-38	185	-159
5263612	-23	176	-163
5263940	3	157	-157
5264268	-17	154	-165
5264596	-59	153	-180
5264924	-58	164	-176
5265252	-72	157	-189
5265580	-68	162	-204
5265908	-72	132	-204
5266236	-113	117	-211
5266564	-124	138	-206
5266892	-124	127	-219
5267220	-101	145	-216
5267548	-51	126	-227
5267876	-42	138	-228
5268204	-15	121	-228
5268532	2	144	-234
5268860	-5	138	-244
5269188	8	159	-258
5269516	42	149	-263
5269844	59	154	-281
5270172	33	137	-310
5270500	29	138	-300
5270828	16	145	-306
5271156	7	159	-334
5271484	46	148	-350
5271812	44	134	-345
5272140	59	128	-362
5272468	58	110	-356
5272796	43	123	-365
5273124	57	150	-378
5273452	56	125	-392
5273780	70	128	-414
5274108	70	122	-415
5274436	56	130	-408
5274764	22	137	-414
5275092	53	136	-429
5275420	54	115	-424
5275748	75	115	-427
5276076	86	92	-424
5276404	98	128	-419
5276732	98	116	-422
5277060	133	114	-418
5277388	122	85	-415
5277716	88	86	-411
5278044	99	71	-396
5278372	94	61	-373
5278700	106	41	-368
5279028	204	35	-352
5279356	342	98	-336
5279684	431	59	-324
5280012	492	94	-293
5280340	537	87	-281
5280668	584	127	-280
5280996	557	98	-266
5281324	547	71	-249
5281652	509	64	-238
5281980	484	50	-217
5282308	479	69	-212
5282636	470	60	-201
5282964	443	67	-194
5283292	445	57	-177
5283620	440	41	-144
5283948	485	123	-141
5284276	540	81	-117
5284604	538	79	-108
5284932	479	25	-97
5285260	408	39	-82
5285588	315	55	-89
5285916	251	29	-83
5286244	166	-2	-94
5286572	67	-20	-101
5286900	41	-66	-69
5287228	11	-73	-79
5287556	-63	-59	-105
5287884	-141	-58	-106
5288212	-144	-19	-116
5288540	-149	-26	-113
5288868	-97	-6	-118
5289196	-54	-11	-118
5289524	-44	12	-118
5289852	-74	11	-146
5290180	-79	1	-148
5290508	-101	17	-132
5290836	-66	48	-134
5291164	-52	59	-119
5291492	-17	48	-142
5291820	-1	61	-114
5292148	-23	51	-123
5292476	-12	83	-112
5292804	-13	73	-128
5293132	-13	75	-107
5293460	-26	75	-111
5293788	-45	73	-110
5294116	-68	37	-111
5294444	-77	50	-105
5294772	-120	61	-99
5295100	-100	54	-101
5295428	-79	66	-83
5295756	-31	53	-91
5296084	8	77	-93
5296412	37	63	-69
5296740	47	68	-51
5297068	79	54	-59
5297396	112	69	-62
5297724	110	65	-53
5298052	120	58	-49
5298380	130	36	-45
5298708	128	29	-36
5299036	119	44	-42
5299364	131	48	-42
5299692	144	61	-33
5300020	158	38	-45
5300348	165	51	-47
5300676	164	66	-65
5301004	150	71	-51
5301332	156	64	-61
5301660	158	64	-54
5301988	176	51	-62
5302316	167	63	-69
5302644	168	56	-59
5302972	130	62	-66
5303300	111	44	-53
5303628	73	45	-57
5303956	61	55	-45
5304284	79	51	-26
5304612	76	37	-18
5304940	55	55	-34
5305268	26	24	-26
5305596	19	25	-15
5305924	-30	36	-21
5306252	-34	12	-24
5306580	-37	26	-11
5306908	-31	8	0
5307236	-32	22	-16
5307564	-21	22	-6
5307892	3	14	8
5308220	15	39	7
5308548	13	32	-12
5308876	-1	36	-6
5309204	5	28	-10
5309532	14	40	-2
5309860	0	55	-9
5310188	38	50	-13
5310516	55	61	-15
5310844	45	50	-13
5311172	9	60	-24
5311500	-30	57	-18
5311828	-22	50	-9
5312156	-42	60	-28
5312484	-46	68	-35
5312812	-59	55	-32
5313140	-47	82	-25
5313468	-47	75	-27
5313796	-50	85	-26
5314124	-52	78	-36
5314452	-63	74	-27
5314780	-64	73	-35
5315108	-58	89	-31
5315436	-60	78	-30
5315764	-25	81	-30
5316092	-16	91	-38
5316420	-5	67	-29
5316748	-7	83	-35
5317076	-3	94	-39
5317404	-26	69	-28
5317732	-32	83	-27
5318060	-38	92	-24
5318388	-20	79	-25
5318716	-41	82	-12
5319044	-45	85	-8
5319372	-40	69	-13
5319700	-51	89	-21
5320028	-58	82	-11
5320356	-46	98	-13
5320684	-67	63	-14
5321012	-61	87	-21
5321340	-65	73	-9
5321668	-57	83	-15
5321996	-65	92	0
5322324	-54	96	-15
5322652	-61	105	-22
5322980	-49	90	-15
5323308	-63	93	-10
5323636	-92	87	-11
5323964	-113	83	-1
5324292	-111	84	-14
5324620	-115	99	0
5324948	-110	76	0
5325276	-143	89	17
5325604	-117	92	36
5325932	-121	85	26
5326260	-104	78	36
5326588	-119	87	23
5326916	-113	96	28
5327244	-128	84	17
5327572	-128	84	19
5327900	-116	71	36
5328228	-142	83	39
5328556	-105	84	33
5328884	-133	89	31
5329212	-95	93	33
5329540	-65	94	25
5329868	-73	96	20
5330196	-94	78	15
5330524	-81	95	14
5330852	-81	107	6
5331180	-80	87	7
5331508	-46	124	18
5331836	-37	102	25
5332164	-50	114	15
5332492	-44	110	16
5332820	-83	99	7
5333148	-119	84	18
5333476	-128	84	29
5333804	-120	75	41
5334132	-106	72	34
5334460	-104	78	31
5334788	-98	74	32
5335116	-104	86	42
5335444	-110	95	37
5335772	-111	90	39
5336100	-110	102	41
5336428	-89	107	36
5336756	-75	116	30
5337084	-67	109	28
5337412	-63	116	33
5337740	-60	103	33
5338068	-45	118	40
5338396	-42	121	23
5338724	-13	117	18
5339052	17	126	30
5339380	13	117	27
5339708	9	136	1
5340036	4	137	2
5340364	-38	137	-7
5340692	-43	148	-15
5341020	-82	135	2
5341348	-89	122	-14
5341676	-82	134	7
5342004	-90	116	-13
5342332	-89	133	-2
5342660	-101	122	14
5342988	-78	102	7
5343316	-102	103	0
5343644	-104	84	0
5343972	-92	96	13
5344300	-85	96	7
5344628	-92	97	3
5344956	-87	117	9
5345284	-80	95	21
5345612	-59	121	19
5345940	-54	106	17
5346268	-61	105	13
5346596	-74	123	-1
5346924	-82	112	2
5347252	-85	115	24
5347580	-101	125	20
5347908	-75	116	23
5348236	-61	124	23
5348564	-55	122	14
5348892	-52	121	16
5349220	-68	123	19
5349548	-72	122	25
5349876	-91	129	19
5350204	-88	144	22
5350532	-90	134	7
5350860	-92	103	24
5351188	-95	90	20
5351516	-103	115	30
5351844	-109	106	42
5352172	-109	112	35
5352500	-98	101	49
5352828	-71	122	35
5353156	-51	115	32
5353484	-57	125	12
5353812	-25	118	31
5354140	-38	124	10
5354468	-63	147	-4
5354796	-60	149	-14
5355124	-78	128	-16
5355452	-61	165	-36
5355780	-71	143	-35
5356108	-39	143	-31
5356436	-58	137	-8
5356764	-60	147	4
5357092	-63	146	-5
5357420	-61	135	0
5357748	-26	155	-13
5358076	-41	145	-9
5358404	-62	160	-4
5358732	-74	150	1
5359060	-89	154	9
5359388	-72	147	1
5359716	-58	153	0
5360044	-63	153	-7
5360372	-58	159	-6
5360700	-75	152	-8
5361028	-68	131	8
5361356	-80	156	-5
5361684	-77	158	0
5362012	-75	152	2
5362340	-89	136	-7
5362668	-72	145	2
5362996	-80	137	3
5363324	-97	127	20
5363652	-92	131	2
5363980	-82	124	23
5364308	-79	137	22
5364636	-81	133	24
5364964	-98	111	24
5365292	-106	130	12
5365620	-102	130	24
5365948	-98	119	14
5366276	-120	110	14
5366604	-116	126	27
5366932	-127	108	33
5367260	-135	112	17
5367588	-133	131	22
5367916	-103	125	18
5368244	-96	125	11
5368572	-88	121	17
5368900	-109	121	27
5369228	-125	126	16
5369556	-119	121	14
5369884	-118	138	13
5370212	-123	137	20
5370540	-105	126	17
5370868	-109	125	23
5371196	-93	115	27
5371524	-81	95	43
5371852	-95	138	17
5372180	-78	130	18
5372508	-61	130	15
5372836	-48	136	20
5373164	-57	125	18
5373492	-42	123	15
5373820	-50	129	10
5374148	-55	149	-1
5374476	-66	140	-5
5374804	-42	136	5
5375132	-49	139	9
5375460	-49	144	7
5375788	-20	154	6
5376116	-26	164	0
5376444	-22	154	-9
5376772	-27	153	-9
5377100	-38	153	-5
5377428	-58	145	10
5377756	-71	139	11
5378084	-56	151	4
5378412	-41	152	1
5378740	-18	146	0
5379068	3	147	-6
5379396	-22	164	-11
5379724	-19	155	23
5380052	-9	152	15
5380380	-3	170	15
5380708	24	154	23
5381036	49	158	14
5381364	59	150	14
5381692	55	168	18
5382020	38	165	28
5382348	15	158	8
5382676	7	176	24
5383004	-15	161	7
5383332	-21	164	13
5383660	-34	174	-3
5383988	-45	159	8
5384316	-21	155	11
5384644	-29	159	15
5384972	-40	160	15
5385300	-15	153	16
5385628	-33	150	21
5385956	-20	146	23
5386284	-24	158	27
5386612	-32	129	34
5386940	-63	133	35
5387268	-57	155	41
5387596	-64	142	33
5387924	-74	156	15
5388252	-56	145	24
5388580	-36	139	21
5388908	-56	150	26
5389236	-45	157	33
5389564	-71	149	34
5389892	-63	145	29
5390220	-58	146	24
5390548	-32	143	22
5390876	-34	131	32
5391204	-25	141	41
5391532	-19	146	34
5391860	-26	142	41
5392188	-42	146	30
5392516	-35	142	22
5392844	-63	137	33
5393172	-68	139	38
5393500	-84	135	26
5393828	-87	136	9
5394156	-99	127	18
5394484	-105	146	10
5394812	-115	139	18
5395140	-115	138	16
5395468	-107	129	4
5395796	-115	136	8
5396124	-122	133	13
5396452	-121	134	12
5396780	-109	123	20
5397108	-79	137	17
5397436	-61	133	27
5397764	-47	136	11
5398092	-32	148	17
5398420	-40	136	10
5398748	-57	129	14
5399076	-85	130	25
5399404	-82	131	23
5399732	-66	141	11
5400060	-57	144	-5
5400388	-36	131	7
5400716	-17	145	-2
5401044	-29	148	11
5401372	-46	142	-6
5401700	-78	146	-4
5402028	-54	145	-13
5402356	-73	132	-17
5402684	-37	156	-7
5403012	-29	152	-20
5403340	-3	165	-13
5403668	16	154	-14
5403996	15	157	-15
5404324	17	175	-19
5404652	7	168	-23
5404980	-5	162	-17
5405308	-32	166	-31
5405636	-37	157	-44
5405964	-15	149	-34
5406292	-12	154	-12
5406620	-27	147	-33
5406948	-4	138	-30
5407276	9	145	-33
5407604	-8	150	-39
5407932	-16	128	-43
5408260	-20	149	-47
5408588	-49	141	-46
5408916	-54	145	-55
5409244	-54	150	-50
5409572	-73	161	-57
5409900	-89	144	-57
5410228	-95	128	-53
5410556	-125	139	-25
5410884	-134	151	-51
5411212	-153	152	-41
5411540	-143	146	-43
5411868	-126	149	-49
5412196	-141	148	-42
5412524	-140	163	-44
5412852	-149	149	-36
5413180	-171	162	-49
5413508	-173	148	-35
5413836	-160	164	-32
5414164	-167	182	-52
5414492	-146	169	-46
5414820	-130	159	-45
5415148	-128	170	-45
5415476	-142	172	-49
5415804	-138	167	-51
5416132	-147	173	-47
5416460	-114	167	-54
5416788	-103	168	-53
5417116	-107	169	-59
5417444	-83	174	-50
5417772	-51	172	-58
5418100	-49	167	-43
5418428	-43	178	-45
5418756	-37	174	-47
5419084	-35	175	-35
5419412	-34	158	-38
5419740	-26	177	-43
5420068	-25	171	-42
5420396	-26	168	-35
5420724	-28	172	-23
5421052	-30	164	-37
5421380	-47	161	-37
5421708	-53	158	-44
5422036	-69	153	-41
5422364	-58	156	-48
5422692	-87	160	-42
5423020	-64	162	-48
5423348	-54	170	-55
5423676	-60	170	-53
5424004	-57	172	-42
5424332	-61	171	-58
5424660	-65	167	-61
5424988	-73	163	-59
5425316	-85	156	-55
5425644	-79	156	-73
5425972	-72	155	-57
5426300	-77	148	-65
5426628	-71	141	-52
5426956	-85	148	-56
5427284	-83	139	-45
5427612	-90	144	-50
5427940	-85	150	-45
5428268	-102	131	-36
5428596	-101	138	-49
5428924	-100	132	-41
5429252	-88	135	-46
5429580	-93	131	-36
5429908	-77	136	-40
5430236	-101	131	-46
5430564	-101	128	-29
5430892	-114	108	-34
5431220	-114	112	-31
5431548	-110	122	-24
5431876	-105	125	-20
5432204	-100	130	-33
5432532	-111	126	-28
5432860	-110	128	-21
5433188	-104	134	-24
5433516	-102	141	-22
5433844	-102	126	-22
5434172	-132	130	-28
5434500	-123	126	-22
5434828	-131	131	-30
5435156	-134	127	-19
5435484	-103	126	-26
5435812	-102	122	-27
5436140	-90	124	-21
5436468	-111	126	-33
5436796	-115	132	-31
5437124	-118	116	-18
5437452	-91	133	-17
5437780	-89	118	-27
5438108	-95	129	-27
5438436	-110	120	-26
5438764	-94	117	-17
5439092	-107	129	-15
5439420	-83	138	-16
5439748	-67	141	-18
5440076	-66	131	-16
5440404	-63	120	-17
5440732	-77	126	-17
5441060	-61	126	-24
5441388	-65	122	-5
5441716	-46	133	-16
5442044	-37	128	-5
5442372	-20	133	-20
5442700	-10	132	-17
5443028	-26	131	-20
5443356	-26	135	-19
5443684	-35	137	-27
5444012	-29	144	-39
5444340	-34	140	-42
5444668	-35	130	-44
5444996	-35	140	-31
5445324	-40	132	-36
5445652	-39	140	-42
5445980	-32	142	-39
5446308	-62	131	-38
5446636	-62	140	-59
5446964	-75	133	-34
5447292	-65	147	-57
5447620	-85	118	-36
5447948	-72	136	-43
5448276	-71	111	-54
5448604	-78	122	-61
5448932	-111	136	-70
5449260	-123	115	-57
5449588	-146	125	-72
5449916	-128	126	-69
5450244	-127	130	-56
5450572	-125	105	-60
5450900	-111	132	-55
5451228	-110	110	-54
5451556	-107	128	-58
5451884	-110	109	-71
5452212	-113	115	-68
5452540	-138	126	-68
5452868	-139	129	-73
5453196	-111	124	-90
5453524	-118	136	-79
5453852	-111	134	-73
5454180	-86	136	-71
5454508	-59	145	-66
5454836	-63	145	-63
5455164	-56	132	-53
5455492	-66	142	-43
5455820	-71	136	-37
5456148	-76	128	-42
5456476	-69	145	-25
5456804	-53	142	-26
5457132	-33	134	-12
5457460	-24	128	-7
5457788	-19	138	-17
5458116	-9	133	-8
5458444	-23	129	-16
5458772	-48	155	-10
5459100	-39	144	-6
5459428	-30	141	-25
5459756	-16	146	-20
5460084	-2	146	-42
5460412	-25	135	-38
5460740	-12	144	-51
5461068	-27	146	-50
5461396	-41	128	-61
5461724	-43	160	-57
5462052	1	146	-54
5462380	9	155	-59
5462708	4	144	-57
5463036	-34	142	-43
5463364	-37	141	-47
5463692	-46	152	-50
5464020	-40	146	-48
5464348	-54	137	-52
5464676	-62	143	-44
5465004	-71	154	-48
5465332	-85	154	-41
5465660	-80	148	-44
5465988	-84	163	-45
5466316	-91	152	-40
5466644	-82	153	-53
5466972	-78	162	-53
5467300	-85	170	-63
5467628	-71	158	-74
5467956	-95	173	-83
5468284	-72	183	-73
5468612	-74	182	-70
5468940	-51	183	-70
5469268	-48	176	-86
5469596	-63	181	-70
5469924	-68	165	-77
5470252	-118	174	-81
5470580	-127	172	-73
5470908	-137	161	-75
5471236	-144	157	-78
5471564	-156	162	-75
5471892	-160	160	-58
5472220	-156	168	-59
5472548	-162	184	-52
5472876	-145	176	-45
5473204	-147	161	-61
5473532	-166	158	-76
5473860	-201	140	-75
5474188	-229	155	-53
5474516	-215	158	-55
5474844	-225	162	-70
5475172	-231	149	-92
5475500	-225	143	-91
5475828	-264	30	-91
5476156	-339	-146	-96
5476484	-394	-126	-119
5476812	-354	-49	-135
5477140	-378	1	-144
5477468	-405	21	-147
5477796	-404	68	-129
5478124	-471	28	-135
5478452	-489	-127	-119
5478780	-567	-660	-114
5479108	-647	-921	-91
5479436	-664	-1021	-97
5479764	-693	-1064	-137
5480092	-786	-1604	-160
5480420	-700	-1273	-231
5480748	-789	-1210	-434
5481076	-755	-1183	-600
5481404	-586	-926	-835
5481732	-372	-888	-1057
5482060	-256	-732	-1337
5482388	-17	-585	-1605
5482716	297	-637	-1835
5483044	384	-339	-1996
5483372	242	105	-2150
5483700	59	373	-2308
5484028	-328	789	-2411
5484356	-728	1207	-2566
5484684	-1301	1540	-2749
5485012	-1420	1774	-2971
5485340	-1219	2130	-3300
5485668	-947	2200	-3544
5485996	-780	2276	-3366
5486324	-442	1982	-3291
5486652	-229	1907	-2999
5486980	-718	1398	-3180
5487308	-1533	1224	-2893
5487636	-2310	539	-3166
5487964	-2790	-201	-3224
5488292	-3108	-374	-2707
5488620	-3476	-18	-2136
5488948	-3274	736	-914
5489276	-2406	1241	-310
5489604	-365	1412	624
5489932	1921	2495	2025
5490260	2952	3701	3712
5490588	2716	3021	4867
5490916	1414	1237	4286
5491244	995	-170	2679
5491572	1131	1404	1729
5491900	1793	5074	1878
5492228	3278	4971	2627
5492556	5115	424	3894
5492884	6115	-1023	3495
5493212	6715	-338	2356
5493540	7089	733	2242
5493868	7897	835	2129
5494196	8099	367	2297
5494524	7804	1605	3469
5494852	7275	-969	3916
5495180	6733	-3449	3861
5495508	5434	-2843	3416
5495836	1793	49	1052
5496164	1203	2121	16
5496492	2398	86	180
5496820	3315	-883	1338
5497148	3067	784	1458
5497476	3822	1039	1522
5497804	3957	560	1854
5498132	3851	1228	1566
5498460	3448	1664	1098
5498788	3211	1341	1170
5499116	2990	1293	1031
5499444	2883	1773	798
5499772	2519	2048	81
5500100	1932	1601	-297
5500428	1294	1082	-695
5500756	676	929	-913
5501084	141	700	-1130
5501412	-530	341	-1188
5501740	-788	282	-1058
5502068	-963	64	-862
5502396	-2488	-90	-987
5502724	-5174	600	-830
5503052	-5542	1536	-3826
5503380	-9337	1729	-4820
5503708	-8555	1193	-1813
5504036	-3969	-5850	-1335
5504364	-2934	-3492	-725
5504692	-4283	4201	805
5505020	-3383	4283	3282
5505348	-10213	6055	-1903
5505676	2822	-15050	-10222
5506004	-1622	-9816	-3677
5506332	-1539	3433	-1684
5506660	477	4822	-3419
5506988	7221	2462	382
5507316	9221	2559	-1669
5507644	4320	-8588	5251
5507972	938	-8835	5552
5508300	-1747	745	3589
5508628	-5307	4473	851
5508956	-3775	1317	881
5509284	-798	-346	2694
5509612	2243	18	2452
5509940	2764	-276	1938
5510268	1952	-1621	758
5510596	967	768	833
5510924	978	331	-104
5511252	109	830	123
5511580	47	-475	410
5511908	-416	210	512
5512236	-806	599	344
5512564	-1422	451	166
5512892	-1878	-246	81
5513220	-1222	-929	101
5513548	-1277	-743	235
5513876	-1696	-262	62
5514204	-1845	63	336
5514532	-1482	-551	65
5514860	-839	-464	193
5515188	-369	-234	-32
5515516	208	-19	-40
5515844	525	-180	27
5516172	892	-234	61
5516500	1033	-204	201
5516828	963	-482	149
5517156	583	260	412
5517484	152	-224	349
5517812	-78	-179	338
5518140	-315	83	123
5518468	-652	56	22
5518796	-598	314	452
5519124	-538	118	142
5519452	-413	337	112
5519780	-323	161	162
5520108	-167	89	82
5520436	-93	199	17
5520764	-190	271	-19
5521092	-128	227	166
5521420	-24	209	93
5521748	35	448	41
5522076	179	433	-20
5522404	317	612	-41
5522732	415	725	45
5523060	572	615	-40
5523388	595	755	-9
5523716	598	560	-86
5524044	367	591	-64
5524372	253	560	-57
5524700	179	379	-99
5525028	42	488	243
5525356	46	245	-101
5525684	86	635	-47
5526012	13	355	-21
5526340	-6	364	-100
5526668	-118	566	-90
5526996	-179	469	-92
5527324	-192	461	-53
5527652	-229	377	-88
5527980	-244	338	-90
5528308	-194	332	-1
5528636	-183	255	-5
5528964	-121	290	-71
5529292	-82	304	-46
5529620	-34	232	-5
5529948	33	237	-60
5530276	74	286	-52
5530604	159	212	-48
5530932	188	165	-67
5531260	167	208	-35
5531588	167	144	-14
5531916	152	206	-47
5532244	74	243	-56
5532572	106	181	-13
5532900	73	208	-20
5533228	74	220	-27
5533556	46	157	-35
5533884	5	150	-31
5534212	-37	154	-29
5534540	-78	144	-22
5534868	-122	147	-22
5535196	-73	137	-20
5535524	-74	176	-20
5535852	-134	161	-9
5536180	-74	137	22
5536508	-70	144	66
5536836	-8	106	58
5537164	41	133	61
5537492	81	152	45
5537820	70	128	63
5538148	49	146	37
5538476	14	132	61
5538804	-26	141	50
5539132	-4	129	52
5539460	-37	152	55
5539788	27	114	4
5540116	-30	135	9
5540444	-54	135	47
5540772	-56	92	67
5541100	-117	126	59
5541428	-156	100	33
5541756	-142	129	31
5542084	-138	119	45
5542412	-125	121	53
5542740	-98	100	77
5543068	-56	49	74
5543396	-55	81	57
5543724	-64	120	27
5544052	-73	101	32
5544380	-81	109	49
5544708	-162	92	78
5545036	-153	75	84
5545364	-114	80	88
5545692	-49	99	68
5546020	-37	110	26
5546348	-83	42	32
5546676	-115	42	67
5547004	-142	72	60
5547332	-181	44	63
5547660	-175	47	51
5547988	-130	76	28
5548316	-151	35	34
5548644	-131	60	21
5548972	-107	83	12
5549300	-132	95	0
5549628	-140	109	-12
5549956	-187	117	-11
5550284	-196	124	-1
5550612	-183	133	-2
5550940	-147	167	-13
5551268	-114	157	-40
5551596	-96	147	-35
5551924	-90	155	-45
5552252	-75	169	-54
5552580	-81	170	-57
5552908	-74	173	-83
5553236	-74	152	-71
5553564	-69	131	-60
5553892	-102	113	-77
5554220	-133	119	-97
5554548	-161	111	-94
5554876	-175	114	-98
5555204	-167	116	-100
5555532	-183	131	-123
5555860	-172	137	-117
5556188	-150	121	-126
5556516	-170	116	-87
5556844	-159	80	-67
5557172	-183	101	-91
5557500	-161	110	-88
5557828	-149	138	-104
5558156	-139	140	-99
5558484	-163	110	-103
5558812	-176	103	-77
5559140	-180	94	-74
5559468	-210	115	-48
5559796	-197	99	-48
5560124	-186	118	-73
5560452	-160	131	-69
5560780	-154	108	-69
5561108	-174	98	-52
5561436	-165	76	-45
5561764	-156	88	-20
5562092	-196	119	-61
5562420	-207	82	-66
5562748	-156	107	-38
5563076	-164	115	-63
5563404	-184	103	-62
5563732	-171	109	-77
5564060	-210	113	-68
5564388	-227	99	-52
5564716	-203	113	-50
5565044	-199	126	-58
5565372	-172	126	-75
5565700	-158	128	-60
5566028	-115	132	-56
5566356	-95	131	-52
5566684	-101	117	-59
5567012	-59	134	-68
5567340	-91	139	-78
5567668	-96	120	-58
5567996	-81	144	-72
5568324	-87	127	-74
5568652	-76	146	-76
5568980	-68	141	-64
5569308	-57	144	-65
5569636	-5	143	-61
5569964	-2	127	-68
5570292	8	132	-43
5570620	18	135	-57
5570948	20	132	-44
5571276	51	138	-50
5571604	70	153	-50
5571932	86	150	-54
5572260	73	139	-54
5572588	67	151	-45
5572916	40	147	-58
5573244	48	148	-63
5573572	27	140	-67
5573900	10	156	-41
5574228	10	139	-46
5574556	11	150	-70
5574884	-2	152	-85
5575212	-9	155	-91
5575540	-27	151	-89
5575868	-42	141	-84
5576196	-73	128	-73
5576524	-104	136	-77
5576852	-96	128	-85
5577180	-91	138	-68
5577508	-61	146	-82
5577836	-23	159	-89
5578164	-61	116	-91
5578492	-86	124	-78
5578820	-88	125	-85
5579148	-101	148	-71
5579476	-96	149	-75
5579804	-108	124	-90
5580132	-102	136	-98
5580460	-91	122	-92
5580788	-95	153	-97
5581116	-80	141	-107
5581444	-83	134	-94
5581772	-92	140	-102
5582100	-77	137	-92
5582428	-51	143	-92
5582756	-34	144	-92
5583084	-22	137	-88
5583412	-26	157	-91
5583740	-13	132	-78
5584068	-13	146	-81
5584396	7	154	-79
5584724	5	138	-78
5585052	25	127	-66
5585380	15	175	-80
5585708	50	174	-80
5586036	17	126	-57
5586364	-4	134	-75
5586692	-8	150	-76
5587020	-19	138	-46
5587348	-1	139	-70
5587676	-3	151	-75
5588004	-9	139	-61
5588332	-8	142	-60
5588660	-4	142	-43
5588988	-10	142	-58
5589316	-39	142	-58
5589644	-43	159	-64
5589972	-17	144	-76
5590300	-23	154	-50
5590628	-16	147	-48
5590956	0	151	-57
5591284	-12	133	-51
5591612	-29	141	-46
5591940	-7	141	-39
5592268	-22	140	-57
5592596	-19	153	-61
5592924	-33	150	-59
5593252	-37	125	-42
5593580	-42	150	-38
5593908	-77	117	-32
5594236	-85	118	-29
5594564	-65	130	-12
5594892	-68	122	-36
5595220	-69	120	-41
5595548	-72	109	-32
5595876	-78	112	-20
5596204	-101	112	-21
5596532	-99	107	-28
5596860	-108	97	-12
5597188	-100	119	-25
5597516	-121	110	-38
5597844	-119	109	-33
5598172	-108	114	-20
5598500	-106	111	-34
5598828	-110	112	-35
5599156	-89	112	-29
5599484	-113	119	-28
5599812	-103	115	-35
5600140	-95	110	-31
5600468	-104	102	-38
5600796	-98	120	-39
5601124	-79	110	-26
5601452	-92	107	-29
5601780	-96	114	-16
5602108	-82	117	-21
5602436	-47	112	-35
5602764	-68	119	-42
5603092	-78	122	-46
5603420	-67	115	-35
5603748	-81	109	-26
5604076	-71	133	-33
5604404	-60	115	-43
5604732	-52	126	-39
5605060	-55	113	-46
5605388	-57	116	-42
5605716	-44	125	-33
5606044	-49	134	-40
5606372	-52	112	-37
5606700	-49	119	-27
5607028	-30	128	-31
5607356	-37	118	-46
5607684	-50	108	-36
5608012	-48	112	-40
5608340	-31	128	-44
5608668	-42	110	-44
5608996	-43	121	-43
5609324	-46	126	-44
5609652	-39	120	-25
5609980	-35	107	-32
5610308	-40	107	-42
5610636	-43	112	-32
5610964	-42	97	-15
5611292	-53	94	-34
5611620	-48	98	-31
5611948	-52	94	-31
5612276	-45	104	-26
5612604	-32	112	-46
5612932	-15	106	-52
5613260	-6	111	-46
5613588	-8	125	-36
5613916	-29	108	-54
5614244	-27	111	-47
5614572	-44	131	-45
5614900	-22	116	-56
5615228	-28	118	-39
5615556	-40	108	-58
5615884	-30	123	-47
5616212	-25	112	-51
5616540	-45	124	-44
5616868	-42	113	-46
5617196	-30	122	-54
5617524	-13	113	-43
5617852	-37	111	-54
5618180	-54	101	-43
5618508	-50	100	-35
5618836	-55	102	-46
5619164	-63	111	-46
5619492	-34	129	-51
5619820	-29	118	-70
5620148	-30	121	-46
5620476	-39	104	-54
5620804	-42	121	-49
5621132	-54	96	-42
5621460	-58	117	-48
5621788	-31	109	-40
5622116	-16	108	-52
5622444	-13	126	-54
5622772	-25	102	-29
5623100	-34	123	-38
5623428	-20	124	-38
5623756	-20	119	-39
5624084	-28	121	-57
5624412	-49	115	-54
5624740	-36	120	-48
5625068	-31	113	-35
5625396	-31	114	-40
5625724	-32	122	-25
5626052	-27	108	-29
5626380	-20	123	-44
5626708	-27	126	-40
5627036	-36	119	-38
5627364	-61	120	-40
5627692	-66	112	-34
5628020	-73	107	-25
5628348	-72	112	-30
5628676	-69	121	-25
5629004	-61	99	-21
5629332	-56	112	-20
5629660	-71	114	-32
5629988	-46	107	-18
5630316	-56	114	-35
5630644	-53	111	-39
5630972	-60	104	-32
5631300	-65	115	-34
5631628	-75	113	-32
5631956	-53	114	-27
5632284	-40	103	-25
5632612	-37	116	-29
5632940	-29	98	-18
5633268	-49	96	-25
5633596	-50	98	-7
5633924	-71	108	-17
5634252	-62	116	-13
5634580	-47	96	-15
5634908	-48	86	2
5635236	-32	89	-4
5635564	-31	87	1
5635892	-53	91	-7
5636220	-58	86	-16
5636548	-91	90	1
5636876	-111	71	-6
5637204	-90	83	-6
5637532	-79	94	-21
5637860	-71	95	-10
5638188	-74	91	-4
5638516	-76	100	-16
5638844	-66	112	-29
5639172	-89	95	-25
5639500	-71	110	-21
5639828	-94	107	-26
5640156	-74	115	-34
5640484	-61	105	-24
5640812	-88	93	-37
5641140	-65	104	-31
5641468	-79	96	-28
5641796	-77	89	-30
5642124	-87	102	-17
5642452	-79	102	-29
5642780	-81	94	-16
5643108	-68	99	-26
5643436	-54	85	-11
5643764	-72	99	-16
5644092	-53	105	-19
5644420	-27	92	-26
5644748	-22	92	-17
5645076	-11	97	-26
5645404	-3	109	-25
5645732	-5	117	-21
5646060	-1	121	-32
5646388	0	112	-36
5646716	2	106	-40
5647044	0	109	-30
5647372	-7	109	-34
5647700	-25	94	-47
5648028	-14	104	-28
5648356	-27	100	-29
5648684	2	116	-47
5649012	-1	113	-38
5649340	5	121	-51
5649668	-4	121	-37
5649996	-6	128	-15
5650324	2	121	-31
5650652	-13	114	-33
5650980	-27	109	-17
5651308	-55	97	-19
5651636	-51	107	-20
5651964	-60	100	-21
5652292	-54	107	-26
5652620	-57	107	-26
5652948	-52	115	-32
5653276	-57	108	-20
5653604	-54	118	-27
5653932	-53	132	-35
5654260	-51	110	-23
5654588	-56	126	-33
5654916	-59	115	-35
5655244	-64	107	-14
5655572	-58	132	-29
5655900	-64	110	-26
5656228	-60	122	-47
5656556	-65	115	-35
5656884	-56	113	-11
5657212	-61	118	-13
5657540	-64	119	-13
5657868	-62	116	-20
5658196	-69	114	-30
5658524	-56	126	-20
5658852	-49	119	-20
5659180	-57	108	-18
5659508	-67	113	-14
5659836	-65	110	-37
5660164	-54	102	-30
5660492	-68	111	-20
5660820	-66	121	-15
5661148	-63	109	-13
5661476	-79	118	-15
5661804	-72	121	-37
5662132	-74	119	-22
5662460	-72	130	-8
5662788	-69	134	-11
5663116	-65	120	-27
5663444	-46	131	-24
5663772	-75	131	-21
5664100	-87	114	-11
5664428	-109	117	-15
5664756	-100	129	-7
5665084	-62	143	-4
5665412	-22	129	-1
5665740	40	139	12
5666068	71	147	8
5666396	72	137	3
5666724	58	105	24
5667052	8	93	35
5667380	-49	53	63
5667708	-94	46	93
5668036	-116	49	106
5668364	-110	43	127
5668692	-81	43	142
5669020	-29	53	122
5669348	-8	43	119
5669676	10	4	116
5670004	-22	27	102
5670332	-110	-9	100
5670660	-187	-41	134
5670988	-184	-82	147
5671316	-125	-54	132
5671644	-78	-48	105
5671972	9	-7	81
5672300	73	-26	72
5672628	72	-44	57
5672956	33	-51	21
5673284	-5	-57	5
5673612	-25	-25	-18
5673940	-61	20	-94
5674268	-42	78	-159
5674596	-33	100	-246
5674924	15	115	-313
5675252	38	132	-372
5675580	16	156	-439
5675908	-49	204	-564
5676236	-140	165	-713
5676564	-314	-108	-853
5676892	-623	-1162	-942
5677220	-877	-1123	-1036
5677548	-847	-1589	-1179
5677876	-821	-1312	-1265
5678204	-814	-493	-1415
5678532	-940	-458	-1558
5678860	-806	-287	-1680
5679188	-702	-99	-1904
5679516	-952	-246	-1997
5679844	-1352	-440	-2155
5680172	-1846	-408	-2254
5680500	-2389	-255	-2645
5680828	-2979	-348	-2874
5681156	-3403	-430	-3191
5681484	-3815	-544	-3375
5681812	-4093	-674	-3522
5682140	-4121	-877	-3439
5682468	-4084	-1088	-3291
5682796	-3927	-1122	-3301
5683124	-3812	-1269	-3157
5683452	-3580	-1313	-3025
5683780	-3247	-1281	-2876
5684108	-2893	-1226	-2698
5684436	-2305	-1045	-2650
5684764	-1584	-1000	-2553
5685092	-1037	-1202	-2408
5685420	-584	-1345	-2273
5685748	-316	-1542	-2042
5686076	-198	-2010	-1816
5686404	-327	-2438	-1537
5686732	-565	-2507	-1357
5687060	-996	-2550	-1288
5687388	-1424	-2488	-1199
5687716	-1955	-2529	-1148
5688044	-2406	-2557	-1084
5688372	-2733	-2570	-1021
5688700	-3023	-2589	-988
5689028	-3129	-2578	-940
5689356	-3172	-2532	-931
5689684	-3164	-2371	-903
5690012	-3142	-2104	-884
5690340	-3085	-1779	-829
5690668	-3064	-1238	-661
5690996	-3066	-802	-549
5691324	-3263	-734	-470
5691652	-2942	-620	-394
5691980	-2972	-1230	-136
5692308	-2944	-2034	295
5692636	-2383	-1819	597
5692964	-1772	-1353	617
5693292	-1476	-1514	572
5693620	-1407	-1259	351
5693948	-1124	-676	-32
5694276	-656	-546	-185
5694604	-268	-651	80
5694932	-160	-713	599
5695260	-168	-591	1031
5695588	-340	-343	1314
5695916	-639	-207	1455
5696244	-941	-173	1331
5696572	-1116	-156	1242
5696900	-1141	-145	1212
5697228	-973	8	1336
5697556	-736	125	1578
5697884	-571	270	1738
5698212	-483	403	1732
5698540	-529	562	1616
5698868	-569	630	1452
5699196	-550	758	1328
5699524	-628	713	1294
5699852	-650	656	1321
5700180	-678	610	1270
5700508	-588	667	1192
5700836	-466	599	1122
5701164	-384	466	1123
5701492	-481	365	1150
5701820	-495	467	1100
5702148	-486	424	1080
5702476	-460	416	1054
5702804	-401	378	1028
5703132	-409	346	1014
5703460	-438	332	953
5703788	-475	316	879
5704116	-559	272	812
5704444	-598	241	742
5704772	-616	253	652
5705100	-634	245	559
5705428	-705	205	420
5705756	-734	213	227
5706084	-728	212	36
5706412	-682	170	-156
5706740	-626	131	-263
5707068	-614	75	-339
5707396	-668	3	-408
5707724	-768	-52	-441
5708052	-927	-77	-539
5708380	-1035	-125	-662
5708708	-1013	-96	-818
5709036	-947	-112	-917
5709364	-840	-116	-1026
5709692	-756	-108	-1071
5710020	-771	-287	-1109
5710348	-649	-654	-1192
5710676	-475	-1035	-1319
5711004	-230	-1113	-1481
5711332	146	-1489	-1557
5711660	401	-2682	-1535
5711988	676	-3492	-1465
5712316	553	-2976	-1498
5712644	581	-1535	-1512
5712972	587	-943	-1506
5713300	628	-845	-1442
5713628	565	-575	-1328
5713956	531	-596	-1211
5714284	372	-829	-1117
5714612	198	-640	-1062
5714940	146	-604	-976
5715268	123	-657	-900
5715596	162	-520	-796
5715924	203	-414	-717
5716252	176	-311	-674
5716580	210	-352	-658
5716908	281	-186	-657
5717236	435	339	-698
5717564	593	463	-717
5717892	662	394	-688
5718220	616	455	-648
5718548	542	470	-577
5718876	520	308	-485
5719204	506	360	-423
5719532	490	457	-377
5719860	473	455	-345
5720188	463	491	-313
5720516	400	603	-270
5720844	377	528	-227
5721172	397	420	-202
5721500	390	574	-225
5721828	327	621	-217
5722156	176	531	-162
5722484	89	626	-132
5722812	17	731	-88
5723140	-6	806	-112
5723468	7	868	-99
5723796	34	1031	-127
5724124	73	1008	-83
5724452	44	889	-82
5724780	-16	887	-48
5725108	-44	905	-24
5725436	-81	885	-30
5725764	-59	816	-51
5726092	-82	797	-38
5726420	-122	789	-32
5726748	-93	352	4
5727076	-54	36	3
5727404	-57	255	-30
5727732	-85	279	-33
5728060	-79	306	-7
5728388	-106	458	-12
5728716	-75	291	11
5729044	-7	41	35
5729372	-72	240	7
5729700	-83	243	24
5730028	-152	292	58
5730356	-188	269	60
5730684	-155	28	73
5731012	-113	-151	66
5731340	-86	86	37
5731668	-78	170	52
5731996	-64	233	47
5732324	-48	281	43
5732652	-18	320	44
5732980	-8	441	31
5733308	49	449	5
5733636	133	562	17
5733964	233	711	12
5734292	305	851	-2
5734620	398	986	83
5734948	490	1070	121
5735276	600	1124	140
5735604	648	1143	190
5735932	719	1107	246
5736260	804	987	324
5736588	845	914	392
5736916	876	840	457
5737244	971	795	532
5737572	1095	711	502
5737900	1235	652	477
5738228	1321	574	435
5738556	1409	565	411
5738884	1429	444	410
5739212	1352	309	408
5739540	1203	226	395
5739868	1124	79	351
5740196	1018	-18	284
5740524	1006	-49	220
5740852	1020	-111	191
5741180	960	-83	100
5741508	950	-137	53
5741836	961	-174	-25
5742164	1115	-191	-99
5742492	1305	-243	-220
5742820	1543	-235	-322
5743148	1771	-202	-349
5743476	1900	-425	-444
5743804	2039	-451	-493
5744132	2212	-283	-505
5744460	2370	-417	-523
5744788	2527	-390	-543
5745116	2574	-472	-624
5745444	2632	-582	-757
5745772	2644	-706	-793
5746100	2557	-931	-859
5746428	2446	-1021	-902
5746756	2326	-1107	-909
5747084	2277	-1198	-954
5747412	2401	-1343	-1013
5747740	2509	-1419	-1057
5748068	2666	-1598	-1103
5748396	2862	-1840	-1122
5748724	3111	-2152	-1154
5749052	3324	-2379	-1184
5749380	3797	-2918	-1130
5749708	4391	-3463	-1065
5750036	4920	-2858	-1096
5750364	5717	-2509	-1098
5750692	6887	-2249	-1033
5751020	8774	-2123	-825
5751348	11890	-336	-842
5751676	15473	1827	-469
5752004	19011	4217	-175
5752332	22249	5216	-216
5752660	24318	3796	-26
5752988	25267	3494	437
5753316	24984	2901	1074
5753644	23112	5406	684
5753972	20758	7737	-646
5754300	18350	8461	-1563
5754628	15960	9280	-2483
5754956	13835	10172	-3832
5755284	11995	10751	-5067
5755612	10320	11261	-5761
5755940	9311	11394	-6365
5756268	8763	11458	-6675
5756596	8907	11234	-6724
5756924	8885	11371	-6678
5757252	8698	11284	-6206
5757580	8411	10847	-6181
5757908	7939	11168	-5916
5758236	7437	10560	-5927
5758564	7160	10295	-5451
5758892	6489	10063	-5148
5759220	6015	9886	-4799
5759548	5830	9126	-4615
5759876	5271	8967	-3467
5760204	5089	7852	-3166
5760532	4654	7052	-2566
5760860	4232	6190	-2035
5761188	3686	4639	-1916
5761516	3219	4662	-1194
5761844	3416	2966	-1145
5762172	3446	2419	-646
5762500	3653	1497	-56
5762828	3454	1087	594
5763156	3283	519	1153
5763484	3272	-105	1675
5763812	3209	495	2034
5764140	3305	1494	2382
5764468	3452	1861	2242
5764796	3743	1896	1950
5765124	3610	2029	1481
5765452	3445	1593	821
5765780	3205	2161	188
5766108	3180	1933	-217
5766436	3103	1905	-207
5766764	2830	1916	-52
5767092	2749	2109	254
5767420	2840	1740	358
5767748	2928	1754	516
5768076	3035	1762	547
5768404	2956	1701	497
5768732	2529	1736	290
5769060	1559	1537	41
5769388	290	1190	-326
5769716	-970	1122	-643
5770044	-2238	762	-973
5770372	-3489	496	-1368
5770700	-4382	242	-1711
5771028	-4972	-103	-2082
5771356	-5241	-706	-2139
5771684	-5474	-1160	-1738
5772012	-5823	-1261	-1318
5772340	-6382	-1091	-1034
5772668	-6938	-897	-974
5772996	-7242	-592	-854
5773324	-6780	174	-610
5773652	-5466	1080	-882
5773980	-3939	1102	-1061
5774308	-2763	932	-1325
5774636	-1874	842	-1666
5774964	-1269	1336	-1709
5775292	-1049	2560	-1424
5775620	-894	3823	-959
5775948	-836	4496	-651
5776276	-453	4509	-862
5776604	220	4142	-1346
5776932	1085	3797	-1741
5777260	1807	3688	-1875
5777588	2345	3348	-1943
5777916	2515	3262	-1959
5778244	2279	3361	-1788
5778572	2122	3376	-1906
5778900	1944	3530	-1993
5779228	1925	3610	-2032
5779556	2018	3485	-2221
5779884	2300	3424	-2374
5780212	2301	3185	-2530
5780540	2186	2985	-2624
5780868	1987	2914	-2621
5781196	1702	2789	-2667
5781524	1569	2640	-2723
5781852	1590	2459	-2792
5782180	1619	2385	-2742
5782508	1779	2478	-2687
5782836	2045	2633	-2664
5783164	2357	2478	-2710
5783492	2758	2453	-2910
5783820	2994	2474	-3101
5784148	3192	2268	-3356
5784476	3540	2113	-3545
5784804	3779	1359	-3693
5785132	3747	-1666	-3661
5785460	3970	-628	-4137
5785788	3361	-690	-5029
5786116	3100	-1656	-5520
5786444	2798	578	-5964
5786772	2598	1361	-6218
5787100	2585	1840	-6482
5787428	2912	3511	-6606
5787756	3109	3780	-6751
5788084	3525	3460	-6749
5788412	4089	3480	-6510
5788740	4714	2623	-6231
5789068	5695	1202	-5647
5789396	6383	-256	-4004
5789724	7620	-288	-1819
5790052	7976	-965	1048
5790380	7634	-2096	3087
5790708	6420	-2636	4703
5791036	5669	-3120	5436
5791364	5936	-2917	5391
5791692	6725	-2501	5351
5792020	7628	-2151	4811
5792348	8186	-2403	4604
5792676	8278	-2494	4602
5793004	7947	-2359	4737
5793332	7161	-2809	5140
5793660	6360	-3056	5599
5793988	4688	-2855	6034
5794316	3522	-2816	5616
5794644	2660	-2564	5220
5794972	2227	-2159	4552
5795300	1866	-1914	3846
5795628	1547	-1633	2861
5795956	516	-1339	956
5796284	-1226	-551	-552
5796612	-297	84	-1066
5796940	-155	-704	0
5797268	-926	-669	621
5797596	-2324	-683	563
5797924	-2409	-1365	156
5798252	-1386	-1133	-162
5798580	-471	-365	-442
5798908	59	21	-551
5799236	57	-158	-284
5799564	-423	-78	-96
5799892	-808	34	170
5800220	-1098	-235	382
5800548	-1251	-197	734
5800876	-1441	124	904
5801204	-1724	329	814
5801532	-1952	308	918
5801860	-1701	298	875
5802188	-1526	567	883
5802516	-1420	721	861
5802844	-1794	518	959
5803172	-2066	415	1047
5803500	-2313	262	1048
5803828	-2711	114	1033
5804156	-2973	130	946
5804484	-3220	4	880
5804812	-3490	-19	722
5805140	-4031	-101	676
5805468	-4658	-221	643
5805796	-5589	-224	746
5806124	-6550	-765	858
5806452	-7607	-1272	1053
5806780	-8361	-1475	1120
5807108	-8784	-1536	1322
5807436	-8943	-1510	1225
5807764	-8976	-1753	1346
5808092	-8683	-1889	1425
5808420	-8021	-1694	1530
5808748	-7121	-1594	1624
5809076	-6362	-1575	1738
5809404	-5563	-1094	1833
5809732	-5089	-706	1913
5810060	-4590	-608	1996
5810388	-3811	-452	2191
5810716	-2669	-51	2497
5811044	-1165	485	2964
5811372	574	865	3566
5811700	2179	1645	4040
5812028	3582	2425	4455
5812356	5440	3490	4967
5812684	7693	5127	5394
5813012	8929	6963	5601
5813340	6889	7778	5548
5813668	4153	3005	2580
5813996	4176	-885	3042
5814324	1960	-239	3904
5814652	-325	3863	4079
5814980	-657	5162	4019
5815308	313	4271	4679
5815636	2247	3368	4349
5815964	4497	2599	3732
5816292	5092	2200	3417
5816620	4018	1686	3431
5816948	2306	1013	3258
5817276	628	693	2869
5817604	-507	1033	2601
5817932	-719	1166	2818
5818260	-627	961	2910
5818588	-763	897	2873
5818916	-953	666	2870
5819244	-1234	816	2898
5819572	-1546	664	2860
5819900	-1784	138	2643
5820228	-1915	93	2286
5820556	-2138	-50	2034
5820884	-2428	-210	1836
5821212	-2830	-50	1699
5821540	-3336	-33	1534
5821868	-3706	-247	1421
5822196	-3923	38	1241
5822524	-4245	-124	1135
5822852	-4456	-250	1178
5823180	-4531	-217	1114
5823508	-4450	-413	902
5823836	-4441	-645	771
5824164	-4473	-770	550
5824492	-4458	-961	366
5824820	-4654	-888	196
5825148	-4971	-887	86
5825476	-5178	-1100	79
5825804	-5391	-1456	34
5826132	-5462	-1889	-201
5826460	-5547	-2175	-488
5826788	-5890	-2523	-719
5827116	-6512	-3280	-882
5827444	-7211	-3506	-749
5827772	-8192	-4274	-789
5828100	-9025	-4491	-810
5828428	-9651	-4692	-835
5828756	-10432	-4993	-1031
5829084	-10913	-5026	-1378
5829412	-10821	-4634	-1693
5829740	-11292	-5248	-1785
5830068	-12472	-7111	-1822
5830396	-14390	-7960	-2084
5830724	-16649	-8650	-2124
5831052	-18510	-9460	-2121
5831380	-19662	-10051	-2663
5831708	-20716	-10469	-3369
5832036	-21346	-11747	-4287
5832364	-22058	-13008	-5201
5832692	-22948	-14589	-5952
5833020	-23854	-15980	-6401
5833348	-24773	-16884	-6885
5833676	-25429	-17286	-6798
5834004	-26018	-18269	-6834
5834332	-26141	-18235	-6829
5834660	-25708	-17681	-6630
5834988	-24890	-16976	-6214
5835316	-23658	-15873	-5515
5835644	-21834	-14724	-4692
5835972	-19642	-13542	-3998
5836300	-16860	-11868	-3510
5836628	-13988	-10307	-2947
5836956	-11067	-8886	-2337
5837284	-8777	-7600	-1686
5837612	-7122	-6356	-1003
5837940	-5599	-5138	-517
5838268	-4049	-4087	-178
5838596	-2716	-3227	135
5838924	-1572	-2292	326
5839252	-719	-1447	478
5839580	-69	-420	625
5839908	688	299	679
5840236	1003	-43	724
5840564	953	70	475
5840892	484	-267	455
5841220	-404	-352	603
5841548	-1446	75	776
5841876	-2358	-152	544
5842204	-3080	-828	-155
5842532	-3772	-832	-788
5842860	-4091	-445	-1267
5843188	-4072	-226	-1492
5843516	-4104	-200	-1650
5843844	-4304	-286	-1740
5844172	-4709	-410	-1902
5844500	-5019	-550	-2118
5844828	-5196	-701	-2324
5845156	-5192	-701	-2247
5845484	-4860	-548	-2217
5845812	-4047	-165	-1988
5846140	-3067	-381	-1811
5846468	-2323	-877	-1699
5846796	-1770	-1094	-1818
5847124	-1136	-1257	-1965
5847452	-403	-1177	-1893
5847780	475	-464	-1761
5848108	1223	139	-1669
5848436	2017	375	-1719
5848764	2570	648	-1691
5849092	2893	248	-1630
5849420	2710	-131	-1655
5849748	2869	-927	-1149
5850076	2266	-1199	-1242
5850404	1804	-1693	-1031
5850732	1810	-1313	-741
5851060	1421	-188	41
5851388	1126	-75	558
5851716	898	-924	1162
5852044	56	-1953	2112
5852372	-1568	-3259	2781
5852700	-3291	-3657	3364
5853028	-2718	-2365	4190
5853356	-2774	-677	4183
5853684	-2862	-585	3588
5854012	-2838	507	3779
5854340	-1926	1558	4457
5854668	-1099	1854	5042
5854996	-396	1206	5294
5855324	986	1223	4879
5855652	1553	1462	4030
5855980	638	1727	4552
5856308	-781	727	3494
5856636	-1516	-284	970
5856964	-1615	1930	1285
5857292	-2241	5560	1817
5857620	-1264	7690	1929
5857948	654	6825	2642
5858276	2484	4783	2429
5858604	3032	3300	2334
5858932	2431	1755	2402
5859260	1415	1034	2329
5859588	-333	2367	2350
5859916	-808	3343	1985
5860244	-593	2377	1906
5860572	-422	470	1907
5860900	-117	-105	1673
5861228	-254	454	1617
5861556	-502	211	1690
5861884	26	-749	1657
5862212	-19	-852	1848
5862540	72	-787	1791
5862868	67	-636	1542
5863196	-91	-1217	1486
5863524	-411	-828	1418
5863852	-644	-405	1144
5864180	-1075	-561	1049
5864508	-1282	-279	970
5864836	-1513	-132	722
5865164	-1822	-393	622
5865492	-2179	-764	716
5865820	-2485	-710	659
5866148	-2698	-549	542
5866476	-2771	-385	452
5866804	-2794	-317	320
5867132	-2901	-262	132
5867460	-3050	-254	-131
5867788	-3158	-263	-351
5868116	-3117	-138	-526
5868444	-2902	79	-583
5868772	-2611	50	-805
5869100	-2451	-179	-992
5869428	-2626	-530	-1161
5869756	-2940	-563	-1360
5870084	-3293	-624	-1511
5870412	-3428	-770	-1795
5870740	-3567	-1089	-2084
5871068	-3687	-1472	-2263
5871396	-3782	-1644	-2408
5871724	-3826	-1499	-2623
5872052	-3614	-1177	-2967
5872380	-3373	-684	-3247
5872708	-3208	-240	-3444
5873036	-3429	41	-3679
5873364	-3864	215	-4294
5873692	-4558	51	-4839
5874020	-5546	-703	-5214
5874348	-6677	-1140	-5776
5874676	-8229	-35	-5212
5875004	-9367	-836	-5404
5875332	-9518	-1252	-4271
5875660	-8930	-2403	-3499
5875988	-12584	-3312	-2262
5876316	-12524	-3820	755
5876644	-10262	-3995	3120
5876972	-8134	-2091	5518
5877300	-6376	-1816	7584
5877628	-5664	-2709	9585
5877956	-5263	-3240	10887
5878284	-5143	-3883	12003
5878612	-4680	-5324	12835
5878940	-4514	-6555	13444
5879268	-4690	-7653	13937
5879596	-4841	-9002	14458
5879924	-5205	-9950	14588
5880252	-5630	-10566	14436
5880580	-5959	-11150	13956
5880908	-5391	-11733	12592
5881236	-5808	-11667	12309
5881564	-6586	-9684	12579
5881892	-8205	-8726	12137
5882220	-9819	-8482	11673
5882548	-11175	-8370	10576
5882876	-12285	-9475	10060
5883204	-12778	-10264	9225
5883532	-12439	-10502	7520
5883860	-12073	-10918	6085
5884188	-11887	-11082	4734
5884516	-11664	-11013	3483
5884844	-11748	-9392	3283
5885172	-11732	-8102	1691
5885500	-11352	-6706	269
5885828	-10638	-4947	-1131
5886156	-10179	-3983	-2709
5886484	-9261	-2669	-3600
5886812	-8523	-677	-4285
5887140	-8091	-315	-5042
5887468	-7704	363	-5212
5887796	-7790	1055	-5904
5888124	-6677	741	-6225
5888452	-5518	1123	-5758
5888780	-4624	2676	-5457
5889108	-3717	4021	-4846
5889436	-2262	4431	-4073
5889764	-1532	4804	-3329
5890092	-1445	4868	-2418
5890420	-1221	4198	-1229
5890748	-790	3416	-1210
5891076	-757	3744	-1652
5891404	-804	2849	-2250
5891732	-988	2455	-1831
5892060	-1123	2536	-1370
5892388	-946	2874	-935
5892716	-489	2584	-651
5893044	-352	2512	-438
5893372	-243	2573	-879
5893700	-20	2525	-1412
5894028	452	2702	-1171
5894356	878	3210	-704
5894684	1302	3369	-529
5895012	1377	3196	-314
5895340	1269	3034	-301
5895668	1088	2903	-327
5895996	932	2618	-332
5896324	619	2635	-462
5896652	462	2146	-611
5896980	370	1649	-653
5897308	123	2121	-879
5897636	-39	2366	-1010
5897964	-131	2155	-1073
5898292	-208	1790	-1301
5898620	-367	1591	-1440
5898948	-477	1263	-1466
5899276	-709	1038	-1432
5899604	-962	773	-1342
5899932	-1255	852	-1236
5900260	-1359	824	-1135
5900588	-1489	843	-1108
5900916	-1506	848	-1065
5901244	-1501	532	-934
5901572	-1429	321	-872
5901900	-1115	433	-1027
5902228	-766	286	-1043
5902556	-536	120	-996
5902884	-378	125	-835
5903212	-343	-49	-670
5903540	-329	-118	-549
5903868	-284	35	-436
5904196	-128	-225	-241
5904524	121	-685	-114
5904852	252	-869	-50
5905180	303	-1014	40
5905508	325	-1315	172
5905836	340	-1597	231
5906164	356	-1730	279
5906492	348	-1997	287
5906820	437	-2237	395
5907148	437	-2535	430
5907476	432	-2675	507
5907804	410	-2745	651
5908132	529	-3025	808
5908460	650	-3121	867
5908788	701	-3182	1058
5909116	787	-3530	1195
5909444	939	-3617	1245
5909772	1168	-3539	1501
5910100	1533	-3648	1879
5910428	1899	-3860	2114
5910756	2200	-3830	2347
5911084	2603	-3712	2684
5911412	3156	-3740	2950
5911740	3780	-3517	3160
5912068	4510	-3467	3624
5912396	5143	-3454	4398
5912724	5715	-3462	4450
5913052	6272	-3384	5045
5913380	7008	-3526	5479
5913708	7735	-2833	5496
5914036	8717	-2510	4966
5914364	9214	-1928	5436
5914692	9981	-2845	5083
5915020	10241	-1971	4265
5915348	9831	-214	2946
5915676	8957	557	909
5916004	8638	1865	-1367
5916332	7399	3043	-3610
5916660	5973	4577	-6066
5916988	4905	5734	-7936
5917316	4522	6518	-9140
5917644	4500	7182	-10069
5917972	4361	7700	-10623
5918300	4152	7780	-11018
5918628	4060	8028	-11442
5918956	4446	8307	-11672
5919284	4934	8477	-11572
5919612	5849	8658	-11461
5919940	6850	9090	-11358
5920268	7505	9128	-10988
5920596	8241	8548	-10569
5920924	8539	7918	-10234
5921252	8804	7941	-10341
5921580	8472	8385	-10034
5921908	8506	8091	-9556
5922236	8587	8236	-8788
5922564	9201	9309	-7426
5922892	9952	10071	-5988
5923220	11035	10429	-4879
5923548	12326	10970	-3702
5923876	13403	10945	-2502
5924204	14198	10836	-1448
5924532	14760	10951	-424
5924860	14848	11290	440
5925188	14906	10551	1010
5925516	14741	10592	1764
5925844	14651	10594	2468
5926172	14582	10175	3111
5926500	14894	10088	3854
5926828	14850	10496	4567
5927156	14592	10489	5076
5927484	14023	10600	5132
5927812	13953	10166	4768
5928140	12720	9972	5185
5928468	11632	8840	4424
5928796	9626	7307	3681
5929124	6088	4174	2890
5929452	1203	-491	1706
5929780	-2212	-1913	-2379
5930108	-2916	-1646	-2732
5930436	-5785	3160	-2072
5930764	-6914	5194	817
5931092	-4450	6072	2887
5931420	-2732	6721	5519
5931748	-2488	5052	4357
5932076	-1383	2826	797
5932404	486	1315	-1634
5932732	1997	-47	-2611
5933060	2423	-1924	-1323
5933388	1964	-2918	639
5933716	92	-1094	1593
5934044	-1631	557	1419
5934372	-2052	1118	1268
5934700	-1798	741	599
5935028	-1048	1137	-241
5935356	-443	565	-332
5935684	-217	78	-245
5936012	-154	275	-152
5936340	88	798	248
5936668	637	625	76
5936996	1098	986	-501
5937324	1717	947	-945
5937652	2300	749	-1200
5937980	2626	805	-1268
5938308	2748	1110	-1484
5938636	2572	1235	-1324
5938964	2242	1505	-1547
5939292	2152	1705	-1667
5939620	2230	1924	-1681
5939948	2562	2136	-1725
5940276	2751	2451	-1769
5940604	2966	2524	-1761
5940932	3145	2538	-1764
5941260	3361	2351	-1768
5941588	3784	2053	-1836
5941916	4123	1778	-1912
5942244	4386	681	-2131
5942572	4604	97	-2358
5942900	4818	-364	-2583
5943228	4844	-151	-2740
5943556	4867	258	-2961
5943884	5453	557	-3056
5944212	6195	989	-2884
5944540	7169	1767	-2907
5944868	8114	2588	-2779
5945196	8958	2987	-2825
5945524	9782	2682	-3171
5945852	10289	2317	-3668
5946180	10901	2125	-4035
5946508	11071	1962	-3989
5946836	10440	1499	-3887
5947164	9672	1378	-3857
5947492	9017	1653	-3728
5947820	8546	1287	-3496
5948148	8408	743	-3472
5948476	8588	863	-3639
5948804	8698	842	-3697
5949132	8598	877	-3667
5949460	8328	1027	-3210
5949788	7821	1252	-2466
5950116	7389	1879	-1883
5950444	7142	2365	-1723
5950772	6804	2301	-1720
5951100	6589	1776	-1769
5951428	6500	1417	-1732
5951756	6124	1220	-1787
5952084	5682	810	-1744
5952412	5021	307	-1578
5952740	4254	-110	-1416
5953068	3189	-605	-1121
5953396	2221	-723	-789
5953724	1226	-992	-714
5954052	619	-684	-969
5954380	4	-599	-787
5954708	14	-882	-674
5955036	201	-1080	-646
5955364	-75	-785	-547
5955692	-493	-666	-376
5956020	-797	-598	-305
5956348	-735	-225	-383
5956676	-481	-186	-427
5957004	-224	78	-613
5957332	-228	-45	-492
5957660	-388	92	-392
5957988	-834	-44	-243
5958316	-1191	-54	-133
5958644	-1192	102	-15
5958972	-1071	471	46
5959300	-1237	878	71
5959628	-1419	1146	255
5959956	-1517	1659	379
5960284	-1489	2451	486
5960612	-1389	3020	418
5960940	-1284	2870	552
5961268	-1069	2117	753
5961596	-843	1814	795
5961924	-898	2045	697
5962252	-575	2127	819
5962580	-119	2251	810
5962908	49	2064	776
5963236	-254	1582	816
5963564	-700	1505	780
5963892	-1172	1623	626
5964220	-1427	1606	583
5964548	-1278	1799	459
5964876	-851	1810	246
5965204	-483	1522	124
5965532	-221	1207	20
5965860	-241	1066	-103
5966188	-298	737	-334
5966516	-768	632	-118
5966844	-553	197	-360
5967172	-679	304	-600
5967500	-326	230	-752
5967828	-392	-36	-782
5968156	-377	-159	-929
5968484	-331	-208	-1110
5968812	-387	-264	-1283
5969140	-508	-475	-1444
5969468	-565	-687	-1562
5969796	-564	-691	-1804
5970124	-535	-614	-2036
5970452	-464	-747	-2292
5970780	-364	-780	-2488
5971108	-242	-771	-2752
5971436	-129	-660	-3105
5971764	-44	-540	-3497
5972092	136	-482	-3987
5972420	282	-425	-4432
5972748	156	-395	-4660
5973076	-258	-485	-4711
5973404	-670	-693	-4872
5973732	-1021	-708	-4987
5974060	-1465	-591	-5256
5974388	-1564	-542	-5553
5974716	-2040	-654	-5910
5975044	-2726	-759	-5612
5975372	-3936	-1113	-5441
5975700	-5475	-127	-5435
5976028	-7442	609	-5593
5976356	-8277	425	-5527
5976684	-8567	-451	-4949
5977012	-10374	-1125	-4129
5977340	-10293	-403	-2629
5977668	-7789	633	-1450
5977996	-6461	541	-877
5978324	-5323	835	-533
5978652	-4629	2019	456
5978980	-3491	2474	1828
5979308	-2400	2349	3211
5979636	-1567	1770	4330
5979964	-516	1312	5168
5980292	369	471	6318
5980620	1042	89	7203
5980948	1448	81	8089
5981276	2091	-348	9308
5981604	2224	-176	10170
5981932	2460	-287	10358
5982260	2476	-942	10799
5982588	2197	-931	11156
5982916	1622	-824	11668
5983244	911	-1267	11891
5983572	-143	-855	12182
5983900	-855	-1028	12372
5984228	-1333	-1755	12149
5984556	-1716	-2560	11748
5984884	-2012	-3064	11532
5985212	-2426	-3220	11631
5985540	-2568	-3706	11978
5985868	-2674	-3337	12102
5986196	-2411	-2659	12139
5986524	-1908	-2213	12372
5986852	-1365	-2025	12061
5987180	-876	-1691	11784
5987508	-547	-2011	11576
5987836	-496	-2436	11372
5988164	-360	-3133	11060
5988492	-241	-3498	10583
5988820	90	-3605	9953
5989148	400	-3662	9407
5989476	401	-4347	9050
5989804	95	-4280	8504
5990132	276	-3995	8185
5990460	134	-3835	7946
5990788	-395	-3838	7629
5991116	-926	-3787	7438
5991444	-1366	-3267	6911
5991772	-1476	-2658	6089
5992100	-1315	-1562	6116
5992428	-397	-978	5108
5992756	183	420	4584
5993084	806	702	3839
5993412	1381	896	3135
5993740	1707	1375	2184
5994068	2006	2079	1059
5994396	2229	2867	-110
5994724	2725	3714	-1281
5995052	2958	4457	-2687
5995380	2725	3978	-4043
5995708	1402	3485	-5322
5996036	-2483	2038	-6342
5996364	-6783	-1085	-6771
5996692	-6885	-3230	-5577
5997020	-6252	-1967	-10648
5997348	-6610	2641	-10508
5997676	-7548	4133	-9065
5998004	-7929	2031	-6394
5998332	-6900	1844	-3759
5998660	-6033	1598	-2784
5998988	-5112	1708	-3174
5999316	-3997	1937	-3437
5999644	-2741	1263	-3587
5999972	-1927	1195	-3816
6000300	-1472	1221	-3736
6000628	-1242	1133	-3568
6000956	-1179	1346	-3167
6001284	-1279	1477	-2622
6001612	-1217	1773	-2057
6001940	-1040	2407	-2123
6002268	-824	2603	-2032
6002596	-603	2353	-2439
6002924	-223	2584	-2762
6003252	128	2448	-3021
6003580	327	2358	-3145
6003908	624	2170	-3123
6004236	867	2126	-3109
6004564	1100	2079	-3189
6004892	1382	1608	-3338
6005220	1434	1561	-3460
6005548	1397	1767	-3519
6005876	1039	1960	-3405
6006204	674	2165	-3239
6006532	544	2297	-3069
6006860	660	2288	-3007
6007188	826	2316	-3010
6007516	1060	2285	-3038
6007844	1330	2236	-2925
6008172	1503	2356	-2788
6008500	1647	2117	-2758
6008828	1826	2229	-2746
6009156	2104	2349	-2775
6009484	2405	2435	-2697
6009812	2743	2498	-2589
6010140	2872	2487	-2481
6010468	2902	2338	-2437
6010796	2897	1853	-2455
6011124	3012	1345	-2509
6011452	3146	1098	-2546
6011780	3295	678	-2582
6012108	3290	16	-2653
6012436	3268	-98	-2815
6012764	3422	274	-2935
6013092	3518	713	-3033
6013420	3608	344	-3142
6013748	3737	-394	-3224
6014076	4005	-144	-3375
6014404	4427	975	-3602
6014732	5039	1022	-3804
6015060	5569	561	-3849
6015388	6168	884	-3821
6015716	6536	920	-3737
6016044	6727	609	-3661
6016372	6692	565	-3791
6016700	6423	477	-3977
6017028	6228	337	-4125
6017356	6084	402	-4103
6017684	5830	583	-4031
6018012	5735	872	-3808
6018340	5774	978	-3625
6018668	5796	994	-3383
6018996	5934	1166	-3065
6019324	6053	1449	-2560
6019652	6106	1594	-2141
6019980	5784	1590	-1813
6020308	5396	1475	-1630
6020636	4992	1330	-1502
6020964	4705	1138	-1508
6021292	4628	973	-1524
6021620	4524	720	-1502
6021948	4102	299	-1418
6022276	3312	-19	-1212
6022604	2505	-441	-1120
6022932	1559	-785	-796
6023260	472	-1159	-413
6023588	-97	-1138	-415
6023916	-642	-1461	-283
6024244	-1176	-1669	-3
6024572	-1386	-1667	140
6024900	-1376	-1031	205
6025228	-1264	40	79
6025556	-1034	798	41
6025884	-914	552	158
6026212	-824	248	233
6026540	-795	522	323
6026868	-790	796	435
6027196	-646	944	593
6027524	-259	1107	863
6027852	456	1429	730
6028180	1287	1605	592
6028508	1905	1507	450
6028836	2166	1171	377
6029164	2230	850	355
6029492	1987	692	363
6029820	1621	599	239
6030148	1467	353	163
6030476	1327	260	-41
6030804	1097	292	-102
6031132	888	238	-150
6031460	721	141	-129
6031788	812	21	-208
6032116	1272	-54	-317
6032444	2114	39	-401
6032772	2913	-91	-218
6033100	3590	-434	35
6033428	4107	-897	355
6033756	4602	-1098	683
6034084	5170	-1402	994
6034412	5544	-3934	1560
6034740	6394	-3991	1706
6035068	7588	-1483	1775
6035396	8296	-1779	2037
6035724	9090	-2427	2024
6036052	10051	-1027	1776
6036380	10756	544	2227
6036708	12019	519	2355
6037036	12877	1680	2321
6037364	14202	2906	2257
6037692	15437	4455	2299
6038020	16597	5799	1353
6038348	17008	6151	485
6038676	16944	6501	-1088
6039004	16316	7885	-2623
6039332	15235	8777	-4116
6039660	14045	9082	-5501
6039988	13183	10163	-6761
6040316	12532	11056	-7556
6040644	12255	11593	-8201
6040972	12019	12235	-8533
6041300	11824	12531	-8720
6041628	11608	12530	-8766
6041956	11561	12225	-8605
6042284	11493	12318	-8624
6042612	11392	12498	-8470
6042940	11306	12258	-8251
6043268	11095	11499	-7718
6043596	11027	11692	-7456
6043924	11055	12217	-7294
6044252	11152	12620	-6833
6044580	11368	12210	-6512
6044908	11526	12315	-6178
6045236	11479	12932	-5833
6045564	11779	13258	-5442
6045892	11970	13547	-5162
6046220	12322	13865	-4519
6046548	13030	14001	-3994
6046876	13391	14439	-3435
6047204	13702	14465	-2939
6047532	14119	14132	-2951
6047860	14306	14867	-1986
6048188	14685	14461	-1637
6048516	14873	14560	-776
6048844	14964	14529	-385
6049172	15310	14759	255
6049500	15622	14935	1066
6049828	16111	14472	1746
6050156	16619	14238	2222
6050484	17371	14473	2747
6050812	18107	14947	3187
6051140	18880	15329	3632
6051468	19227	15537	3999
6051796	19370	15635	4239
6052124	18792	15508	4916
6052452	18351	14374	5043
6052780	17676	13833	5220
6053108	16809	13276	5205
6053436	15942	12175	5234
6053764	14835	10659	5176
6054092	13363	9107	5001
6054420	11079	7909	4789
6054748	8097	6346	4019
6055076	3908	3016	2468
6055404	56	692	-818
6055732	218	-2825	-3884
6056060	-1798	-1269	-2454
6056388	-5047	3731	-614
6056716	-3660	4139	824
6057044	-2560	3380	3451
6057372	-2331	3986	3814
6057700	-2412	1971	1416
6058028	-964	1569	-1308
6058356	1116	1095	-2221
6058684	2086	376	-1932
6059012	1991	711	-976
6059340	1046	844	345
6059668	-535	971	955
6059996	-1254	1635	900
6060324	-1322	1530	533
6060652	-493	1008	-37
6060980	11	744	-380
6061308	291	546	-562
6061636	71	817	-532
6061964	-65	1393	-571
6062292	-113	1511	-668
6062620	135	1538	-847
6062948	261	1653	-1167
6063276	602	1618	-1641
6063604	920	1585	-1859
6063932	1013	1555	-1998
6064260	951	1824	-1902
6064588	801	1938	-1854
6064916	469	1543	-1998
6065244	691	1607	-2086
6065572	434	283	-1895
6065900	961	-675	-1603
6066228	1505	-80	-1504
6066556	2519	309	-1464
6066884	3162	524	-1427
6067212	4142	938	-1554
6067540	4896	1681	-1485
6067868	5224	1624	-1447
6068196	5767	1327	-1650
6068524	5970	1247	-1930
6068852	6358	1311	-2239
6069180	6684	522	-2505
6069508	7132	436	-2602
6069836	7667	952	-2345
6070164	8624	1366	-2256
6070492	9035	2385	-2440
6070820	9725	2765	-2662
6071148	10472	2486	-2905
6071476	11189	2739	-3027
6071804	11755	2958	-2993
6072132	12290	2900	-3110
6072460	12892	2641	-3278
6072788	13135	2477	-3460
6073116	13090	2329	-3389
6073444	12808	2069	-3137
6073772	12189	1947	-3248
6074100	11326	1750	-3502
6074428	10405	1280	-3322
6074756	9529	1092	-3106
6075084	8804	1068	-2789
6075412	8123	1195	-2612
6075740	7616	937	-2598
6076068	7034	300	-2676
6076396	6321	-377	-2735
6076724	5321	-771	-2564
6077052	4195	-816	-2491
6077380	2877	-1087	-2416
6077708	1190	-1605	-1920
6078036	160	-1990	-1533
6078364	-440	-2144	-1354
6078692	-1769	-2359	-926
6079020	-3248	-2687	-531
6079348	-3929	-2765	-368
6079676	-4166	-2615	-251
6080004	-3804	-2595	-91
6080332	-2864	-2053	-152
6080660	-2034	-1660	-68
6080988	-1312	-1840	443
6081316	-1046	-1583	634
6081644	-1063	-1341	602
6081972	-1360	-1343	487
6082300	-1592	-1001	449
6082628	-1659	-781	454
6082956	-1286	-569	392
6083284	-685	-494	509
6083612	-53	-446	424
6083940	453	-171	289
6084268	576	-1	73
6084596	406	-27	89
6084924	56	-98	176
6085252	-453	-62	229
6085580	-1100	-289	369
6085908	-1577	-475	570
6086236	-1815	-477	698
6086564	-1949	-502	747
6086892	-2210	-531	761
6087220	-2693	-537	867
6087548	-3158	-802	999
6087876	-3628	-951	1063
6088204	-4289	-1197	1115
6088532	-4857	-1435	1133
6088860	-5162	-1687	1191
6089188	-5000	-1572	1187
6089516	-4710	-1418	1179
6089844	-4674	-1338	1199
6090172	-4879	-1256	1231
6090500	-5188	-1101	1305
6090828	-5334	-1019	1433
6091156	-5368	-857	1465
6091484	-4950	-431	1447
6091812	-4347	-25	1472
6092140	-3260	453	1561
6092468	-1795	1173	1701
6092796	-151	2391	1932
6093124	1431	4086	2010
6093452	2605	5508	2165
6093780	3596	6401	2345
6094108	4187	6582	2415
6094436	3695	5575	2540
6094764	2445	3793	2899
6095092	1204	2153	3207
6095420	-469	1913	3278
6095748	-1700	3057	3271
6096076	-1701	3776	3172
6096404	-1060	3507	3191
6096732	65	2683	3071
6097060	826	2364	2746
6097388	537	1629	2568
6097716	-263	1280	2534
6098044	-1171	1244	2468
6098372	-1776	1015	2299
6098700	-2043	955	1995
6099028	-2009	934	1758
6099356	-1942	563	1597
6099684	-1921	231	1440
6100012	-2068	120	1406
6100340	-2286	-51	1446
6100668	-2480	-48	1491
6100996	-2623	-163	1398
6101324	-2534	-393	1275
6101652	-2375	-440	1070
6101980	-2235	-585	969
6102308	-2236	-746	938
6102636	-2391	-794	892
6102964	-2529	-866	761
6103292	-2614	-1095	607
6103620	-2685	-1164	475
6103948	-2714	-1239	374
6104276	-2752	-1390	318
6104604	-2754	-1584	218
6104932	-2739	-1748	87
6105260	-2858	-1983	-31
6105588	-3055	-2338	-167
6105916	-3463	-2669	-385
6106244	-4114	-3092	-748
6106572	-4914	-3598	-1123
6106900	-5638	-3923	-1463
6107228	-6338	-4396	-1766
6107556	-7093	-4684	-2189
6107884	-7909	-5036	-2620
6108212	-8656	-5375	-3065
6108540	-9109	-5633	-3518
6108868	-9408	-5912	-3857
6109196	-9530	-5935	-4281
6109524	-9420	-5990	-4659
6109852	-8970	-5887	-5002
6110180	-8392	-5618	-5385
6110508	-7735	-5320	-5871
6110836	-6867	-4746	-6349
6111164	-6235	-4201	-6107
6111492	-5730	-3671	-5909
6111820	-5568	-3437	-5688
6112148	-6217	-3624	-5569
6112476	-7463	-4682	-6253
6112804	-9754	-4562	-6262
6113132	-10293	-2494	-6963
6113460	-11257	-747	-7094
6113788	-12574	-1950	-6811
6114116	-11466	-2973	-6223
6114444	-13420	-2254	-4959
6114772	-13182	-1803	-2230
6115100	-11526	-2453	-452
6115428	-8618	-2767	1423
6115756	-7663	-1467	3473
6116084	-7111	-1175	5522
6116412	-6530	-1579	7073
6116740	-5927	-1434	8633
6117068	-5298	-2909	9682
6117396	-4842	-4634	10787
6117724	-3936	-6426	11708
6118052	-4528	-7068	12488
6118380	-4481	-8186	12668
6118708	-5176	-9696	13488
6119036	-5549	-10479	13968
6119364	-6281	-10078	12819
6119692	-6720	-10948	11662
6120020	-7558	-10758	11354
6120348	-9250	-10175	11720
6120676	-10877	-9864	11628
6121004	-12500	-8538	11075
6121332	-13033	-8747	11821
6121660	-13087	-10083	10884
6121988	-13326	-9433	10307
6122316	-13144	-10043	9430
6122644	-12692	-11601	7912
6122972	-12029	-12159	6166
6123300	-11869	-12358	4940
6123628	-11454	-13218	3133
6123956	-11149	-14010	2145
6124284	-11097	-13518	2214
6124612	-11318	-13076	693
6124940	-11791	-11000	-125
6125268	-12446	-9341	-923
6125596	-13451	-7518	-1554
6125924	-13670	-5874	-2876
6126252	-13613	-5026	-4058
6126580	-13228	-3260	-4908
6126908	-12269	-3837	-5673
6127236	-11505	-4022	-6022
6127564	-10462	-2112	-6090
6127892	-10036	981	-4884
6128220	-8376	2526	-4379
6128548	-6026	3645	-3700
6128876	-3993	4555	-3083
6129204	-2401	5333	-2571
6129532	-1158	5770	-1800
6129860	-466	5879	-1541
6130188	343	5904	-1675
6130516	612	4580	-1437
6130844	504	3017	-811
6131172	-321	2296	-173
6131500	-1973	1549	597
6131828	-2729	1089	2729
6132156	-2141	1521	2035
6132484	-1738	2707	-170
6132812	-1859	3725	-565
6133140	-1633	5247	-712
6133468	-769	3675	-642
6133796	-89	2566	-787
6134124	-156	2292	-610
6134452	-845	2091	-233
6134780	-1527	2125	-203
6135108	-1973	2102	-356
6135436	-2106	2025	-565
6135764	-1781	1439	-905
6136092	-1515	995	-1109
6136420	-1543	1138	-1148
6136748	-1690	1327	-925
6137076	-1634	983	-589
6137404	-1553	733	-476
6137732	-1418	590	-503
6138060	-1265	610	-439
6138388	-1064	432	-470
6138716	-805	40	-357
6139044	-705	-125	-212
6139372	-753	-134	-138
6139700	-731	-196	-6
6140028	-537	-182	184
6140356	-313	-312	300
6140684	-93	-482	316
6141012	79	-638	296
6141340	348	-695	328
6141668	590	-655	467
6141996	792	-868	539
6142324	938	-931	661
6142652	946	-1133	705
6142980	1002	-1127	707
6143308	1046	-1256	801
6143636	1169	-1517	798
6143964	1131	-1616	864
6144292	1192	-1733	959
6144620	1349	-2032	999
6144948	1427	-2250	982
6145276	1389	-2364	1018
6145604	1377	-2518	1107
6145932	1394	-2677	1184
6146260	1493	-2822	1331
6146588	1628	-3006	1379
6146916	1813	-3054	1530
6147244	1943	-3139	1836
6147572	2183	-3285	2057
6147900	2492	-3194	2182
6148228	2830	-3259	2439
6148556	3182	-3406	2705
6148884	3638	-3233	3037
6149212	3969	-3180	2795
6149540	4533	-3049	2983
6149868	5179	-3360	3182
6150196	5679	-3702	3463
6150524	6043	-3237	3832
6150852	6389	-2102	3365
6151180	6804	-2130	3350
6151508	6789	-3252	4278
6151836	6638	-3064	4338
6152164	6403	-2506	3878
6152492	5949	-1991	3056
6152820	5337	-826	1943
6153148	4644	369	408
6153476	4625	1794	-1057
6153804	4389	2939	-2708
6154132	3606	4518	-4531
6154460	3074	6209	-6183
6154788	2802	7088	-7326
6155116	2839	7597	-8119
6155444	3006	8422	-8533
6155772	3331	8930	-8605
6156100	3958	9099	-8612
6156428	4828	9158	-8432
6156756	6137	9155	-8112
6157084	7201	9193	-8094
6157412	8083	9026	-8452
6157740	8313	9187	-8199
6158068	8628	8689	-7869
6158396	8216	9015	-7435
6158724	8164	9152	-7150
6159052	7592	9254	-6806
6159380	6990	9313	-6472
6159708	6592	9336	-6114
6160036	6447	9419	-5674
6160364	6502	9702	-5038
6160692	6311	9923	-4025
6161020	6438	9427	-3342
6161348	6694	9336	-2709
6161676	6877	8949	-2115
6162004	7328	8132	-1553
6162332	7439	7780	-945
6162660	7260	7431	-350
6162988	7043	7105	240
6163316	6769	6597	849
6163644	6372	5755	1521
6163972	5983	4977	2342
6164300	5693	3923	3148
6164628	5317	2769	3715
6164956	5043	2353	3995
6165284	4134	2781	4130
6165612	2682	2296	3862
6165940	133	1109	2842
6166268	-2867	-948	-2125
6166596	-2113	-4649	-3146
6166924	-4427	-359	-1559
6167252	-6280	2589	262
6167580	-5433	2701	816
6167908	-4612	2743	2313
6168236	-3964	1213	2532
6168564	-2940	12	1350
6168892	-1402	-934	-586
6169220	166	-1981	-932
6169548	476	-720	-365
6169876	7	-718	617
6170204	-1185	-2100	1096
6170532	-2121	-941	1271
6170860	-2057	249	944
6171188	-1569	192	374
6171516	-533	418	-74
6171844	392	83	-367
6172172	656	10	-501
6172500	514	582	-543
6172828	32	896	-768
6173156	-75	1008	-443
6173484	-147	1441	-953
6173812	410	1864	-1400
6174140	575	1794	-1490
6174468	769	2010	-1652
6174796	1028	2216	-1800
6175124	1374	2269	-1934
6175452	1667	2326	-1917
6175780	1763	2224	-1896
6176108	1878	2248	-1887
6176436	1920	2586	-1766
6176764	2150	2870	-1695
6177092	2462	2680	-1719
6177420	2924	2581	-1691
6177748	3215	2150	-1731
6178076	3509	1569	-1852
6178404	3690	1021	-1987
6178732	3730	806	-2199
6179060	3777	671	-2422
6179388	3631	349	-2703
6179716	3535	-490	-2799
6180044	3256	-1090	-2872
6180372	3090	-1569	-3014
6180700	3233	-1225	-3135
6181028	3646	-469	-3181
6181356	4526	-431	-3208
6181684	6093	1023	-3355
6182012	8183	2416	-3026
6182340	9499	2557	-2761
6182668	10567	2997	-3063
6182996	11491	3186	-3224
6183324	12099	3201	-3242
6183652	12544	3982	-3261
6183980	12926	4619	-3146
6184308	13249	4594	-3088
6184636	13517	4444	-2937
6184964	13758	4325	-2827
6185292	13620	4390	-2627
6185620	12886	4156	-2174
6185948	11800	3888	-1911
6186276	10423	3510	-1740
6186604	8782	2790	-1540
6186932	7270	1937	-1436
6187260	6105	1268	-1332
6187588	5163	1098	-1245
6187916	4432	788	-1196
6188244	3531	555	-708
6188572	3231	644	-829
6188900	3111	371	-746
6189228	3219	274	-871
6189556	3394	258	-879
6189884	3230	170	-763
6190212	2604	23	-519
6190540	1790	-32	-268
6190868	951	-77	-147
6191196	322	-212	-90
6191524	-9	-356	-13
6191852	-187	-222	59
6192180	-571	-246	256
6192508	-958	-151	454
6192836	-1250	0	627
6193164	-1533	192	842
6193492	-1326	449	770
6193820	-1056	851	820
6194148	-767	1269	799
6194476	-423	1585	845
6194804	57	1837	817
6195132	387	1737	912
6195460	594	1206	926
6195788	534	652	999
6196116	14	826	946
6196444	-581	981	938
6196772	-1068	839	965
6197100	-1439	1290	757
6197428	-1516	1505	598
6197756	-1337	1358	472
6198084	-959	1483	392
6198412	-397	1605	141
6198740	129	1506	43
6199068	408	1330	-61
6199396	447	1212	-190
6199724	223	993	-283
6200052	-257	671	-517
6200380	-761	529	-880
6200708	-1105	610	-854
6201036	-1475	166	-1278
6201364	-1568	73	-1514
6201692	-1680	-72	-1830
6202020	-1899	-357	-2162
6202348	-2009	-552	-2568
6202676	-1976	-632	-2917
6203004	-1935	-700	-3210
6203332	-1916	-777	-3587
6203660	-1808	-768	-3908
6203988	-1604	-785	-4322
6204316	-1286	-695	-4754
6204644	-970	-631	-5273
6204972	-810	-517	-5775
6205300	-847	-499	-6207
6205628	-1937	-408	-6658
6205956	-3543	149	-6847
6206284	-5131	510	-6678
6206612	-6382	-132	-6563
6206940	-7395	46	-5999
6207268	-8614	632	-5275
6207596	-9094	1931	-4514
6207924	-7989	2190	-4198
6208252	-8461	1558	-3840
6208580	-10585	1372	-2586
6208908	-9644	911	-1705
6209236	-7158	902	-795
6209564	-5911	1091	247
6209892	-5195	1762	1620
6210220	-4845	2810	3198
6210548	-4016	2972	5465
6210876	-2917	3395	6572
6211204	-2098	2234	7095
6211532	-1356	1206	8538
6211860	-858	-240	9305
6212188	-206	-730	9971
6212516	-419	-1441	11055
6212844	140	-3242	11379
6213172	-150	-3348	11973
6213500	-135	-3317	11702
6213828	-399	-3392	11554
6214156	-677	-3690	11715
6214484	-1789	-3982	12107
6214812	-3566	-3580	12710
6215140	-4785	-3461	13268
6215468	-5449	-4084	12999
6215796	-5832	-4678	13073
6216124	-5608	-5220	12807
6216452	-5463	-5438	12644
6216780	-5202	-5497	12649
6217108	-4580	-5466	12264
6217436	-4504	-5382	12430
6217764	-2768	-5465	12271
6218092	-1301	-4432	11994
6218420	0	-3555	11618
6218748	793	-4100	11171
6219076	1287	-4136	10852
6219404	1833	-3703	11076
6219732	2059	-4294	11171
6220060	2767	-3287	10426
6220388	2579	-2300	9626
6220716	2198	-1824	8913
6221044	1579	-958	8224
6221372	1214	-486	7357
6221700	1670	-643	6266
6222028	1844	141	5132
6222356	1975	517	3601
6222684	2062	1513	2011
6223012	2073	2554	640
6223340	1978	3361	-371
6223668	1907	4484	-1661
6223996	2036	5361	-3178
6224324	2614	5593	-4617
6224652	2241	4705	-6108
6224980	60	2202	-7304
6225308	-2759	515	-8456
6225636	-6334	-1687	-9607
6225964	-8093	-3046	-9994
6226292	-8956	-2258	-9470
6226620	-8838	-2396	-4671
6226948	-8150	573	-7844
6227276	-9789	3993	-8075
6227604	-9099	4546	-6712
6227932	-8526	2584	-4424
6228260	-6246	2422	-3729
6228588	-4114	2839	-3751
6228916	-2430	1931	-4291
6229244	-1593	1692	-4534
6229572	-592	1376	-4690
6229900	-614	1857	-3977
6230228	-575	2024	-3448
6230556	-457	1841	-2889
6230884	-557	2160	-3015
6231212	-346	2559	-3170
6231540	-5	2747	-3302
6231868	552	3061	-3268
6232196	904	3016	-3260
6232524	1298	3003	-3395
6232852	1777	3161	-3573
6233180	2735	2975	-3839
6233508	3399	3025	-3992
6233836	3589	3056	-4052
6234164	3960	3081	-4157
6234492	3826	3205	-4223
6234820	3725	3008	-4542
6235148	3200	3408	-4530
6235476	3269	3372	-4494
6235804	3173	3388	-4396
6236132	3356	3570	-4318
6236460	3997	3908	-4027
6236788	4755	4580	-3563
6237116	5628	5133	-3206
6237444	6436	4622	-3262
6237772	7351	3722	-3539
6238100	8231	3403	-3778
6238428	9249	3395	-3922
6238756	10148	4571	-4235
6239084	10500	4679	-4430
6239412	10884	4660	-4711
6239740	10877	4974	-4865
6240068	11065	5311	-4911
6240396	10965	4884	-4797
6240724	10906	4647	-4639
6241052	10994	4856	-4407
6241380	11079	5132	-4242
6241708	11340	5264	-4036
6242036	11354	4822	-3862
6242364	11322	4735	-3651
6242692	11496	5425	-3369
6243020	11779	6195	-2781
6243348	12388	6144	-2302
6243676	13135	6525	-1828
6244004	13628	7481	-1465
6244332	14617	8122	-847
6244660	16110	8883	-309
6244988	17527	9380	106
6245316	18624	9699	502
6245644	18841	9139	1402
6245972	17766	8512	2130
6246300	16723	8858	2495
6246628	16048	9231	3035
6246956	15773	9363	3528
6247284	15841	9548	4093
6247612	16116	9864	4475
6247940	16991	9779	4916
6248268	17749	9107	4424
6248596	18175	8933	3882
6248924	19211	8204	3584
6249252	19626	8377	3302
6249580	19447	8755	3238
6249908	18882	9641	2885
6250236	17833	10359	3178
6250564	16646	10522	3354
6250892	15425	10153	3451
6251220	13702	8647	3087
6251548	10357	2533	2393
6251876	9633	4267	-1175
6252204	8523	8641	-2721
6252532	6140	7184	-1176
6252860	3884	7894	-688
6253188	3410	7242	-1302
6253516	3613	6672	-2590
6253844	4233	6462	-3934
6254172	4398	5819	-4696
6254500	3630	4964	-4335
6254828	2274	3363	-3239
6255156	538	1303	-1558
6255484	-1121	-1096	225
6255812	-2867	-3127	1240
6256140	-7807	-4538	1799
6256468	-818	-2440	-1891
6256796	3186	-4951	-2478
6257124	-2297	-162	1566
6257452	-4782	-51	2169
6257780	-3471	1380	1297
6258108	-937	676	702
6258436	867	47	-246
6258764	1603	-169	-593
6259092	1617	33	-507
6259420	943	223	-330
6259748	540	515	-41
6260076	112	840	199
6260404	52	925	361
6260732	-82	1169	258
6261060	182	935	232
6261388	121	982	110
6261716	169	1051	447
6262044	155	1185	489
6262372	167	1146	533
6262700	41	1256	541
6263028	-55	1374	593
6263356	-54	1409	620
6263684	-74	1381	793
6264012	-258	1204	772
6264340	-132	1078	667
6264668	-237	923	634
6264996	-400	604	876
6265324	-264	506	737
6265652	-352	300	787
6265980	-292	285	797
6266308	-295	233	838
6266636	-225	154	949
6266964	-175	107	1060
6267292	-197	7	1188
6267620	-185	-53	1277
6267948	-146	-67	1291
6268276	-96	-260	1323
6268604	-71	-431	1421
6268932	-47	-544	1477
6269260	82	-629	1580
6269588	156	-668	1629
6269916	274	-698	1681
6270244	367	-768	1695
6270572	367	-810	1764
6270900	359	-854	1786
6271228	420	-914	1791
6271556	432	-912	1820
6271884	396	-1038	1879
6272212	438	-1011	1875
6272540	480	-960	1920
6272868	508	-907	1974
6273196	535	-1010	2017
6273524	603	-1597	2105
6273852	692	-1802	2140
6274180	748	-1685	2190
6274508	803	-1603	2253
6274836	887	-1544	2286
6275164	931	-1433	2410
6275492	976	-1422	2491
6275820	1063	-1028	2524
6276148	1284	-446	2523
6276476	1407	-637	2553
6276804	1537	-1718	2764
6277132	1664	-1611	2999
6277460	1815	-1245	2977
6277788	2178	-971	2991
6278116	2538	-721	3112
6278444	2789	-450	3083
6278772	3001	-288	3300
6279100	3104	-374	3783
6279428	3666	-307	4181
6279756	4241	-432	4536
6280084	5129	-414	4527
6280412	6141	34	4178
6280740	7269	260	3991
6281068	8843	-164	4678
6281396	9717	-5	4668
6281724	10276	-116	4604
6282052	10537	40	4672
6282380	10482	-280	4664
6282708	9768	-954	4306
6283036	8858	-1222	3675
6283364	7653	-1632	2550
6283692	6494	-1453	1163
6284020	5719	-485	-445
6284348	4621	873	-1924
6284676	3925	1569	-3604
6285004	3597	2366	-5204
6285332	3696	2583	-6406
6285660	3855	2543	-7296
6285988	3983	2368	-7832
6286316	3968	2081	-8538
6286644	3976	1965	-9383
6286972	4012	2179	-10026
6287300	3975	2075	-10266
6287628	4059	2148	-10282
6287956	4145	2432	-9960
6288284	4235	2111	-9429
6288612	4224	1862	-8894
6288940	4081	1767	-8411
6289268	4380	1485	-7947
6289596	4949	1749	-7502
6289924	5479	1758	-7078
6290252	6079	1518	-6500
6290580	6218	1721	-6137
6290908	6297	1652	-5361
6291236	6109	1815	-4780
6291564	5743	1851	-4185
6291892	5536	1478	-3476
6292220	4830	1481	-2766
6292548	3514	505	-1805
6292876	2352	-583	-1002
6293204	1853	-921	376
6293532	2096	-454	2105
6293860	2091	1043	3027
6294188	2673	2521	3068
6294516	3805	4001	2401
6294844	4459	5106	1786
6295172	5272	5513	1308
6295500	5539	6111	1180
6295828	5791	5265	1438
6296156	5089	4696	1756
6296484	4117	4130	1959
6296812	2925	2991	1616
6297140	1552	1467	648
6297468	-421	941	-998
6297796	-1272	-345	-2244
6298124	-1125	176	-3017
6298452	-1256	1542	-2549
6298780	-1848	2649	-1430
6299108	-1885	3148	-855
6299436	-1226	3049	-542
6299764	-600	2461	-485
6300092	-225	2189	-724
6300420	-170	1952	-805
6300748	-449	1727	-784
6301076	-937	1550	-767
6301404	-1421	1516	-763
6301732	-1644	1418	-614
6302060	-1621	1510	-648
6302388	-1272	1407	-586
6302716	-578	682	-617
6303044	-300	478	-607
6303372	-274	581	-560
6303700	-252	549	-442
6304028	-226	503	-357
6304356	-266	588	-350
6304684	-334	550	-301
6305012	-316	605	-273
6305340	-269	758	-376
6305668	-50	1048	-401
6305996	194	1500	-228
6306324	441	1622	-65
6306652	396	1455	12
6306980	209	1286	175
6307308	143	1102	344
6307636	175	889	301
6307964	177	698	228
6308292	-52	151	124
6308620	-293	-654	124
6308948	-331	-375	209
6309276	-387	-627	134
6309604	-445	-968	134
6309932	-443	-639	92
6310260	-485	-610	16
6310588	-482	-426	29
6310916	-525	-348	52
6311244	-600	-228	98
6311572	-612	-100	127
6311900	-551	3	126
6312228	-532	120	138
6312556	-507	321	170
6312884	-470	517	204
6313212	-409	776	257
6313540	-280	969	334
6313868	-223	949	442
6314196	-158	846	563
6314524	55	1099	548
6314852	319	1390	433
6315180	627	1555	432
6315508	1020	1892	488
6315836	1625	2534	554
6316164	2061	2956	782
6316492	2567	3153	1213
6316820	3229	3953	1515
6317148	3905	4486	1586
6317476	4103	4850	1680
6317804	4123	5223	1803
6318132	3725	5168	2011
6318460	3259	5466	2004
6318788	2649	5298	1987
6319116	1986	5144	1837
6319444	1297	4634	1577
6319772	662	3979	1157
6320100	126	3311	632
6320428	-469	2519	25
6320756	-1172	1614	-620
6321084	-2164	593	-1243
6321412	-3002	178	-1672
6321740	-3662	146	-1800
6322068	-4275	144	-1779
6322396	-4550	337	-1753
6322724	-4509	445	-1476
6323052	-4159	381	-932
6323380	-3710	437	-439
6323708	-3218	561	-248
6324036	-2793	641	-211
6324364	-2561	393	-365
6324692	-2347	379	-545
6325020	-2202	389	-681
6325348	-2058	354	-658
6325676	-2008	551	-573
6326004	-1956	884	-540
6326332	-1777	1257	-463
6326660	-1424	1472	-194
6326988	-934	1797	-87
6327316	-523	1930	46
6327644	-31	1814	203
6327972	512	1892	310
6328300	941	2342	411
6328628	1415	2593	503
6328956	1906	2488	585
6329284	2262	2280	646
6329612	2317	2208	670
6329940	2212	2378	678
6330268	2110	2667	674
6330596	2088	2910	781
6330924	2171	3253	830
6331252	2369	3589	823
6331580	2752	3918	841
6331908	3094	4345	793
6332236	3537	4239	770
6332564	4174	3979	726
6332892	4897	4323	669
6333220	5674	3776	654
6333548	6319	3763	588
6333876	6976	4334	554
6334204	7651	4726	540
6334532	8507	4737	626
6334860	9110	4944	736
6335188	9628	5458	694
6335516	9972	5709	576
6335844	10247	5909	344
6336172	10552	6279	164
6336500	10899	6796	123
6336828	11062	6295	168
6337156	11164	6031	158
6337484	11268	6517	-25
6337812	11359	6571	-271
6338140	11579	6753	-473
6338468	11907	6785	-539
6338796	12248	7108	-447
6339124	12568	7256	-329
6339452	12874	7402	-226
6339780	13109	6865	-181
6340108	13305	5988	-151
6340436	13601	6512	-299
6340764	14054	6871	-400
6341092	14497	7001	-289
6341420	14793	7155	-156
6341748	15129	6877	-210
6342076	15418	6821	-242
6342404	15818	7544	-181
6342732	16341	7956	-56
6343060	16840	8189	120
6343388	17417	8488	294
6343716	17847	8684	448
6344044	18283	8607	711
6344372	18540	8387	1033
6344700	18760	8782	1376
6345028	18827	8878	1827
6345356	18902	8920	2354
6345684	18892	9475	2888
6346012	18994	9798	3549
6346340	19066	9866	4082
6346668	19041	10059	4505
6346996	18956	10203	4776
6347324	18853	10239	5004
6347652	18741	10072	5177
6347980	18246	9188	5257
6348308	18297	7700	5518
6348636	17741	7825	5486
6348964	17187	7741	5508
6349292	16558	7106	5557
6349620	15890	6705	5297
6349948	14996	6370	4965
6350276	14041	6062	4572
6350604	12840	5557	4244
6350932	11457	5090	3998
6351260	9749	4524	3730
6351588	7983	3877	3600
6351916	6530	3010	3418
6352244	5157	1910	2873
6352572	3763	-103	2123
6352900	2366	-1087	1351
6353228	1122	-1702	666
6353556	60	-2003	423
6353884	-705	-2133	429
6354212	-1132	-2092	411
6354540	-1280	-1950	261
6354868	-1144	-1733	116
6355196	-839	-1911	66
6355524	-616	-2087	60
6355852	-528	-2094	136
6356180	-783	-2120	127
6356508	-1190	-2534	62
6356836	-1317	-2153	-19
6357164	-1296	-1893	-70
6357492	-1120	-1601	-160
6357820	-844	-1553	-259
6358148	-586	-1668	-289
6358476	-372	-1305	-270
6358804	-189	-966	-184
6359132	-114	-752	-139
6359460	-97	-796	-68
6359788	-98	-598	-103
6360116	-194	-426	-126
6360444	-143	-407	-84
6360772	-336	-497	-228
6361100	-393	-589	-235
6361428	-392	-547	-238
6361756	-360	-567	-220
6362084	-375	-585	-220
6362412	-342	-443	-242
6362740	-316	-299	-273
6363068	-253	-145	-277
6363396	-172	94	-263
6363724	-79	223	-241
6364052	6	363	-226
6364380	85	552	-254
6364708	186	729	-282
6365036	215	687	-233
6365364	143	26	-180
6365692	113	-92	-125
6366020	59	-105	-74
6366348	15	-31	4
6366676	-71	100	65
6367004	-106	249	80
6367332	-109	331	127
6367660	-113	323	165
6367988	-54	412	159
6368316	15	505	135
6368644	116	608	155
6368972	198	710	156
6369300	255	804	185
6369628	291	885	213
6369956	316	983	217
6370284	294	1033	218
6370612	301	1041	222
6370940	289	1017	253
6371268	276	976	260
6371596	228	894	247
6371924	226	823	269
6372252	235	783	303
6372580	246	695	293
6372908	204	617	261
6373236	134	581	287
6373564	66	511	315
6373892	-27	401	272
6374220	-292	-517	231
6374548	-326	-446	255
6374876	-207	-188	282
6375204	-336	-808	259
6375532	-324	-725	248
6375860	-479	-1168	255
6376188	-432	-991	290
6376516	-419	-646	267
6376844	-460	-637	235
6377172	-419	-144	208
6377500	-420	-147	178
6377828	-447	-73	172
6378156	-511	8	163
6378484	-551	83	145
6378812	-556	257	114
6379140	-568	353	135
6379468	-562	483	78
6379796	-583	500	11
6380124	-721	402	-16
6380452	-772	515	-37
6380780	-811	623	-95
6381108	-817	786	-219
6381436	-771	903	-356
6381764	-714	958	-471
6382092	-741	1031	-574
6382420	-799	1061	-647
6382748	-974	1065	-689
6383076	-1081	1099	-795
6383404	-1205	1127	-874
6383732	-1391	1022	-930
6384060	-1697	966	-876
6384388	-2112	938	-839
6384716	-2484	921	-881
6385044	-2764	856	-961
6385372	-3184	775	-1091
6385700	-3716	455	-1241
6386028	-4390	300	-1431
6386356	-5102	111	-1556
6386684	-5842	-162	-1687
6387012	-6692	-571	-1851
6387340	-7516	-725	-1961
6387668	-8332	-938	-2070
6387996	-8976	-1204	-2139
6388324	-9451	-1561	-2161
6388652	-10006	-2156	-2280
6388980	-10661	-2914	-2337
6389308	-11419	-3457	-2464
6389636	-12305	-3902	-2685
6389964	-13074	-4604	-2930
6390292	-13790	-5117	-3037
6390620	-14665	-5524	-3066
6390948	-15211	-6018	-3383
6391276	-15518	-6301	-3147
6391604	-15754	-6209	-3264
6391932	-15639	-6054	-3323
6392260	-15343	-6162	-3182
6392588	-14977	-6041	-2952
6392916	-14519	-5875	-2658
6393244	-13955	-5791	-2467
6393572	-13370	-5865	-2373
6393900	-12829	-5900	-2309
6394228	-12304	-5859	-2208
6394556	-11878	-5725	-2031
6394884	-11426	-5431	-1820
6395212	-11077	-5150	-1616
6395540	-10595	-5113	-1530
6395868	-10327	-5189	-1589
6396196	-10374	-5243	-1701
6396524	-10533	-5574	-1923
6396852	-10721	-5703	-2237
6397180	-10901	-5778	-2508
6397508	-10902	-5868	-2735
6397836	-10815	-5840	-2910
6398164	-10686	-5777	-2986
6398492	-10541	-5696	-2879
6398820	-10289	-5757	-2765
6399148	-9950	-5764	-2707
6399476	-9739	-5793	-2588
6399804	-9563	-5990	-2602
6400132	-9426	-6055	-2699
6400460	-9384	-6006	-2796
6400788	-9402	-6207	-2969
6401116	-9372	-6539	-3134
6401444	-9476	-6671	-3231
6401772	-9724	-6928	-3379
6402100	-10004	-7248	-3532
6402428	-10473	-7547	-3743
6402756	-10992	-7986	-4035
6403084	-11350	-8072	-4419
6403412	-11711	-8106	-4743
6403740	-11927	-8409	-5098
6404068	-12050	-8801	-5490
6404396	-12058	-8978	-5757
6404724	-11918	-8975	-5784
6405052	-11762	-9018	-5876
6405380	-11665	-9205	-5984
6405708	-11471	-9275	-6062
6406036	-11334	-9202	-6125
6406364	-11164	-9082	-6197
6406692	-10899	-8810	-6292
6407020	-10446	-8434	-6391
6407348	-9799	-7977	-6640
6407676	-9207	-7300	-6819
6408004	-8675	-6610	-6940
6408332	-8240	-5867	-7189
6408660	-7717	-4933	-7650
6408988	-7189	-4678	-8149
6409316	-7125	-4901	-8996
6409644	-7365	-5757	-9512
6409972	-7694	-7311	-9794
6410300	-8699	-6263	-9465
6410628	-9112	-4496	-8816
6410956	-6958	-1889	-7961
6411284	-7081	-2183	-7446
6411612	-7838	-3217	-6253
6411940	-6793	-3654	-2853
6412268	-6538	-4128	132
6412596	-5565	-4638	1439
6412924	-4181	-4892	1914
6413252	-3830	-5535	3408
6413580	-4110	-4768	4939
6413908	-3909	-4230	6123
6414236	-4159	-4915	7136
6414564	-3966	-6416	8210
6414892	-3911	-6348	8752
6415220	-3965	-6043	8814
6415548	-4075	-6189	9266
6415876	-3965	-7108	8438
6416204	-4549	-7570	8245
6416532	-5790	-7406	8578
6416860	-6738	-7956	9137
6417188	-7883	-8459	9594
6417516	-8742	-8655	10256
6417844	-9359	-9186	10737
6418172	-10155	-9392	11064
6418500	-10334	-9759	11011
6418828	-10288	-9874	10872
6419156	-10225	-9921	10440
6419484	-9764	-10195	9731
6419812	-9179	-10793	9243
6420140	-8444	-11445	8491
6420468	-7326	-11697	7756
6420796	-6422	-11761	6921
6421124	-5628	-11353	6029
6421452	-5437	-10493	5268
6421780	-5310	-9750	4637
6422108	-5900	-8905	4253
6422436	-6165	-8819	3936
6422764	-6527	-8641	3620
6423092	-6228	-8643	3145
6423420	-6136	-8558	2780
6423748	-6379	-8416	2269
6424076	-6124	-7409	1591
6424404	-6090	-6152	798
6424732	-5843	-4933	179
6425060	-5411	-4530	-527
6425388	-4713	-3647	-1351
6425716	-4154	-2089	-2014
6426044	-3448	-1461	-2173
6426372	-2692	-1404	-2166
6426700	-2373	-1333	-2280
6427028	-2262	-1018	-2258
6427356	-2320	-299	-1940
6427684	-2372	71	-1398
6428012	-2284	677	-1234
6428340	-2088	1052	-1396
6428668	-1751	890	-1584
6428996	-1512	1467	-1888
6429324	-1632	1827	-2053
6429652	-1642	1983	-2090
6429980	-1759	2441	-2017
6430308	-1751	2597	-1891
6430636	-1888	2348	-1888
6430964	-2236	2458	-1867
6431292	-2348	2519	-1673
6431620	-2406	2381	-1607
6431948	-2381	2561	-1410
6432276	-2045	2838	-1289
6432604	-1652	2808	-1302
6432932	-1212	2743	-1238
6433260	-923	2972	-1161
6433588	-608	2955	-1008
6433916	-296	2777	-805
6434244	-111	2497	-696
6434572	-66	2271	-644
6434900	-115	2013	-705
6435228	-145	1725	-665
6435556	-100	1744	-639
6435884	-16	1165	-565
6436212	73	493	-512
6436540	308	581	-597
6436868	471	1214	-712
6437196	574	1484	-731
6437524	550	1337	-651
6437852	461	776	-557
6438180	314	672	-568
6438508	405	842	-507
6438836	473	979	-523
6439164	491	1070	-523
6439492	393	1014	-500
6439820	373	877	-489
6440148	250	843	-442
6440476	135	900	-382
6440804	3	830	-347
6441132	-29	793	-380
6441460	-134	730	-393
6441788	-285	762	-358
6442116	-269	658	-349
6442444	-361	738	-385
6442772	-333	674	-391
6443100	-229	603	-394
6443428	-191	433	-433
6443756	-176	349	-424
6444084	-190	259	-453
6444412	-174	262	-414
6444740	-102	211	-385
6445068	-49	142	-384
6445396	-49	104	-337
6445724	-123	27	-267
6446052	-124	68	-187
6446380	-104	101	-157
6446708	-115	194	-165
6447036	-120	211	-100
6447364	-100	229	-37
6447692	-74	275	-25
6448020	-87	296	-10
6448348	-67	372	-44
6448676	-7	433	-13
6449004	-28	204	39
6449332	-132	-90	85
6449660	-192	-165	131
6449988	-207	-239	129
6450316	-189	-309	161
6450644	-164	-356	204
6450972	-203	-548	275
6451300	-245	-693	367
6451628	-206	-824	454
6451956	-213	-912	484
6452284	-193	-964	512
6452612	-166	-1024	539
6452940	-146	-1043	606
6453268	-122	-985	658
6453596	-64	-921	690
6453924	-16	-880	718
6454252	-21	-854	776
6454580	-30	-930	853
6454908	-48	-955	933
6455236	-48	-894	1049
6455564	20	-959	1129
6455892	-63	-1442	1199
6456220	-106	-2463	1307
6456548	-27	-2153	1388
6456876	33	-1925	1436
6457204	90	-1894	1546
6457532	102	-1725	1636
6457860	124	-1721	1693
6458188	147	-1727	1760
6458516	205	-1595	1816
6458844	288	-1609	1914
6459172	313	-1715	1892
6459500	319	-1756	1930
6459828	323	-2012	2026
6460156	338	-2536	2132
6460484	349	-2713	2306
6460812	126	-3194	2353
6461140	-40	-3624	2525
6461468	-25	-3550	2736
6461796	-4	-3072	2775
6462124	80	-2890	2759
6462452	203	-3019	2750
6462780	350	-3268	2837
6463108	507	-3587	2876
6463436	706	-3873	3029
6463764	874	-4133	3110
6464092	1052	-4463	2951
6464420	1259	-4821	2965
6464748	1433	-4900	3047
6465076	1580	-5101	3084
6465404	1747	-5236	3205
6465732	1788	-4909	3431
6466060	2008	-4616	3706
6466388	2365	-4469	3792
6466716	2432	-3864	2994
6467044	2229	-3424	1973
6467372	2524	-3530	858
6467700	2641	-3439	89
6468028	3893	-2724	742
6468356	5778	-1809	1236
6468684	7569	-884	1910
6469012	8499	945	1087
6469340	7788	1948	-669
6469668	6476	2182	-2929
6469996	2305	3688	-4855
6470324	-2038	2500	-6249
6470652	-5401	2471	-7405
6470980	-7059	3041	-8659
6471308	-7616	3683	-9525
6471636	-7177	4305	-10601
6471964	-6474	5320	-11258
6472292	-5727	6114	-11826
6472620	-5244	6731	-12247
6472948	-4846	7102	-12328
6473276	-4477	7147	-11842
6473604	-4149	7405	-11826
6473932	-3906	7405	-12101
6474260	-3406	6944	-12281
6474588	-3299	6806	-11779
6474916	-3302	6517	-11658
6475244	-3883	6317	-11634
6475572	-4127	5930	-11526
6475900	-4238	5935	-11303
6476228	-4343	5688	-11023
6476556	-4452	5783	-10661
6476884	-4642	5654	-9816
6477212	-4817	6215	-9376
6477540	-4585	6678	-8883
6477868	-4374	6789	-8247
6478196	-4301	7032	-7534
6478524	-3952	6806	-6833
6478852	-3577	6684	-6042
6479180	-3092	6058	-5338
6479508	-2405	5705	-4722
6479836	-1838	5501	-4230
6480164	-1253	5228	-3719
6480492	-690	5143	-3184
6480820	-208	5147	-2731
6481148	276	4875	-2242
6481476	490	4732	-1771
6481804	641	4459	-1284
6482132	1022	4254	-757
6482460	1398	4378	-218
6482788	1724	4152	303
6483116	1854	3955	655
6483444	2013	3833	1120
6483772	1811	3406	1515
6484100	1516	2995	2060
6484428	1455	2700	2586
6484756	1716	2425	3138
6485084	2159	2046	3633
6485412	2595	1543	4184
6485740	3054	789	4822
6486068	3208	149	5426
6486396	3451	-550	5968
6486724	3409	-1069	6507
6487052	3091	-1443	7161
6487380	3380	-1529	7397
6487708	3179	-655	6891
6488036	3309	332	5797
6488364	4355	417	4621
6488692	5551	763	3489
6489020	5790	1929	2726
6489348	6027	2525	2423
6489676	5568	2474	3002
6490004	5345	2597	3354
6490332	5120	2821	3741
6490660	5333	2540	3782
6490988	5361	2405	3742
6491316	5391	2394	3513
6491644	5331	2550	3399
6491972	5312	2428	3216
6492300	5335	2429	3077
6492628	5531	2544	3050
6492956	5737	2675	2967
6493284	5932	2795	2793
6493612	6333	3228	2651
6493940	6554	3324	2755
6494268	6747	3174	2661
6494596	7046	3569	2453
6494924	7264	3552	2433
6495252	7357	3484	2305
6495580	7382	3414	2131
6495908	7312	3382	2083
6496236	7140	3220	2026
6496564	6867	3106	2001
6496892	6482	2939	1936
6497220	6161	2881	1835
6497548	5974	2811	1740
6497876	6022	2671	1771
6498204	6195	2780	1957
6498532	6335	2747	2073
6498860	6283	2340	2107
6499188	6015	1887	2017
6499516	5438	1009	1831
6499844	4683	-330	1521
6500172	3690	-1354	1170
6500500	2835	-1164	790
6500828	2074	-519	630
6501156	1753	159	584
6501484	1948	804	726
6501812	2464	1054	999
6502140	2999	961	1067
6502468	3347	818	907
6502796	3436	917	740
6503124	3222	980	535
6503452	2934	1053	251
6503780	2594	1010	55
6504108	2236	849	-39
6504436	1936	887	-34
6504764	1693	979	-43
6505092	1350	1087	69
6505420	1280	692	-163
6505748	1051	688	-264
6506076	1046	586	-427
6506404	1166	562	-519
6506732	1322	539	-573
6507060	1389	442	-592
6507388	1261	336	-682
6507716	1124	211	-777
6508044	1086	-96	-885
6508372	1245	-1127	-921
6508700	1319	-2472	-961
6509028	989	-2055	-1079
6509356	637	-1367	-1241
6509684	328	-1345	-1325
6510012	112	-1253	-1426
6510340	12	-1617	-1362
6510668	65	-2368	-1315
6510996	-75	-3815	-1331
6511324	-44	-3493	-1364
6511652	-199	-2309	-1459
6511980	-308	-2390	-1469
6512308	-433	-2389	-1436
6512636	-392	-2126	-1429
6512964	-437	-2028	-1397
6513292	-576	-1877	-1290
6513620	-588	-1483	-1269
6513948	-676	-1332	-1197
6514276	-886	-1391	-1109
6514604	-1080	-1268	-979
6514932	-1392	-1256	-840
6515260	-1645	-1190	-740
6515588	-1699	-954	-661
6515916	-1664	-822	-634
6516244	-1629	-531	-648
6516572	-1472	-230	-603
6516900	-1271	0	-519
6517228	-1106	327	-516
6517556	-1020	627	-516
6517884	-925	686	-499
6518212	-906	650	-448
6518540	-875	704	-437
6518868	-823	655	-411
6519196	-874	630	-278
6519524	-897	697	-194
6519852	-961	739	-199
6520180	-1013	810	-226
6520508	-866	1078	-224
6520836	-690	1311	-206
6521164	-579	1422	-165
6521492	-477	1526	-157
6521820	-497	1561	-94
6522148	-481	1480	-79
6522476	-403	1445	-131
6522804	-222	1386	-105
6523132	14	1216	-134
6523460	335	1067	-74
6523788	551	969	-67
6524116	676	938	-46
6524444	714	872	-19
6524772	675	876	17
6525100	618	886	28
6525428	551	906	13
6525756	497	854	22
6526084	466	889	-23
6526412	415	977	-33
6526740	310	878	-50
6527068	234	789	-2
6527396	99	833	18
6527724	45	719	22
6528052	65	610	31
6528380	110	639	51
6528708	168	462	38
6529036	296	358	44
6529364	322	423	48
6529692	305	359	43
6530020	238	287	18
6530348	171	194	32
6530676	0	142	64
6531004	-109	196	44
6531332	-111	235	37
6531660	-95	257	31
6531988	-23	255	47
6532316	7	239	54
6532644	33	172	16
6532972	53	205	9
6533300	31	233	-12
6533628	-47	220	-25
6533956	-106	124	-13
6534284	-177	120	2
6534612	-195	158	-29
6534940	-179	121	-43
6535268	-153	118	-62
6535596	-148	131	-63
6535924	-162	164	-69
6536252	-180	146	-68
6536580	-182	134	-54
6536908	-188	105	-43
6537236	-164	68	-25
6537564	-173	98	-12
6537892	-165	109	-15
6538220	-180	99	-5
6538548	-186	109	-11
6538876	-216	88	-15
6539204	-241	120	-31
6539532	-268	127	-23
6539860	-264	170	-25
6540188	-193	223	-38
6540516	-106	231	-64
6540844	-64	211	-66
6541172	-54	209	-72
6541500	-88	217	-75
6541828	-84	189	-85
6542156	-110	173	-77
6542484	-141	209	-75
6542812	-148	149	-56
6543140	-147	161	-58
6543468	-155	161	-45
6543796	-158	88	-17
6544124	-184	41	11
6544452	-220	28	33
6544780	-196	-23	53
6545108	-167	12	59
6545436	-122	-9	67
6545764	-77	-79	77
6546092	-81	-145	115
6546420	-114	-188	123
6546748	-141	-189	118
6547076	-155	-205	103
6547404	-205	-240	89
6547732	-290	-332	72
6548060	-412	-369	84
6548388	-492	-400	99
6548716	-515	-453	83
6549044	-477	-518	40
6549372	-412	-532	30
6549700	-385	-522	10
6550028	-346	-536	-24
6550356	-269	-444	-54
6550684	-154	-419	-96
6551012	15	-430	-149
6551340	176	-429	-232
6551668	361	-464	-274
6551996	469	-529	-279
6552324	555	-556	-299
6552652	636	-603	-330
6552980	681	-681	-348
6553308	778	-725	-379
6553636	874	-690	-445
6553964	944	-685	-457
6554292	1051	-647	-464
6554620	1081	-682	-475
6554948	1170	-724	-492
6555276	1259	-720	-502
6555604	1353	-684	-520
6555932	1433	-622	-581
6556260	1584	-510	-597
6556588	1777	-409	-673
6556916	2069	-269	-707
6557244	2299	-22	-748
6557572	2474	135	-786
6557900	2850	309	-895
6558228	3389	611	-1034
6558556	3976	1012	-1128
6558884	4829	1017	-1155
6559212	5527	225	-1121
6559540	6442	1667	-1099
6559868	7241	2774	-1213
6560196	7958	3520	-1200
6560524	8402	4662	-1169
6560852	8381	5180	-1032
6561180	8248	5384	-875
6561508	8071	5754	-533
6561836	7665	5798	15
6562164	7010	5789	686
6562492	6391	6076	1155
6562820	5696	6152	1617
6563148	4958	6484	2074
6563476	4081	7020	2330
6563804	3325	6931	2491
