Time Stamp	Gyroscope X	Gyroscope Y	Gyroscope Z
RAW	RAW	RAW	RAW
no units	no units	no units	no units
16019802	52	27	56
16020130	53	91	75
16020458	90	66	84
16020786	115	39	96
16021114	113	60	94
16021442	144	76	111
16021770	144	101	124
16022098	170	98	146
16022426	203	95	153
16022754	244	88	160
16023082	304	65	177
16023410	310	64	190
16023738	343	55	208
16024066	333	66	221
16024394	378	69	244
16024722	397	84	269
16025050	393	49	265
16025378	444	37	301
16025706	465	61	291
16026034	464	43	301
16026362	435	-5	302
16026690	391	63	332
16027018	322	71	340
16027346	245	60	324
16027674	186	84	306
16028002	88	71	286
16028330	34	51	281
16028658	-21	147	265
16028986	-97	179	252
16029314	-164	176	244
16029642	-190	152	234
16029970	-230	143	207
16030298	-225	137	172
16030626	-211	97	143
16030954	-168	56	131
16031282	-183	56	119
16031610	-140	75	118
16031938	-75	47	90
16032266	-69	18	52
16032594	35	-45	19
16032922	66	-44	14
16033250	38	7	3
16033578	43	-12	22
16033906	-44	16	62
16034234	-112	26	68
16034562	-200	18	59
16034890	-228	30	57
16035218	-188	34	59
16035546	-146	16	74
16035874	-133	41	84
16036202	-173	30	110
16036530	-294	54	150
16036858	-398	77	192
16037186	-462	97	210
16037514	-520	100	218
16037842	-516	111	231
16038170	-511	124	251
16038498	-491	108	270
16038826	-441	76	271
16039154	-398	76	262
16039482	-356	70	265
16039810	-370	43	263
16040138	-379	63	271
16040466	-358	58	284
16040794	-311	73	256
16041122	-296	80	230
16041450	-292	88	199
16041778	-211	48	119
16042106	-95	-14	22
16042434	212	-27	-111
16042762	546	-143	-269
16043090	941	-248	-436
16043418	1430	-178	-519
16043746	1523	-38	-588
16044074	1367	67	-548
16044402	1296	203	-438
16044730	846	392	-363
16045058	604	412	-275
16045386	524	392	-196
16045714	371	352	-112
16046042	620	348	-4
16046370	578	487	72
16046698	557	458	112
16047026	624	405	199
16047354	505	532	327
16047682	699	262	536
16048010	688	237	805
16048338	241	493	956
16048666	-158	441	1018
16048994	-408	316	1020
16049322	-1321	417	1128
16049650	-2181	624	1257
16049978	-3171	886	1357
16050306	-3948	1082	1381
16050634	-4169	1017	1359
16050962	-3910	815	1265
16051290	-3378	725	1143
16051618	-2756	671	965
16051946	-2250	668	1034
16052274	-1962	658	1102
16052602	-1889	661	1298
16052930	-2042	708	1556
16053258	-2230	807	1821
16053586	-2370	884	2095
16053914	-2334	959	2428
16054242	-2238	986	2741
16054570	-1994	971	3110
16054898	-1782	1020	3416
16055226	-1424	894	3677
16055554	-1211	738	3811
16055882	-1367	714	3983
16056210	-1133	595	3917
16056538	-463	541	3924
16056866	-135	519	3964
16057194	-262	453	3982
16057522	-799	681	3834
16057850	-1328	1097	3693
16058178	-1226	1300	3539
16058506	-638	941	3466
16058834	168	533	3473
16059162	680	432	3454
16059490	1156	472	3370
16059818	1528	265	3208
16060146	1708	235	3355
16060474	1850	92	3720
16060802	1697	220	4028
16061130	1166	392	4287
16061458	716	732	4501
16061786	175	958	4536
16062114	441	305	4639
16062442	704	162	4681
16062770	971	354	4670
16063098	1425	651	4584
16063426	1710	846	4653
16063754	2118	598	4671
16064082	1787	723	4740
16064410	1508	1132	4656
16064738	1500	1406	4472
16065066	1204	1317	4482
16065394	778	1204	4253
16065722	27	1041	3903
16066050	-131	424	3438
16066378	263	139	2982
16066706	867	-106	2507
16067034	1187	-279	1966
16067362	1057	218	1234
16067690	738	959	410
16068018	302	1145	-154
16068346	-240	1658	-551
16068674	-514	2249	-1069
16069002	-1556	2384	-1223
16069330	-2852	2380	-1151
16069658	-3789	2457	-1282
16069986	-4655	2335	-2049
16070314	-4839	2355	-2907
16070642	-4528	2193	-3750
16070970	-4286	2003	-4796
16071298	-4239	1632	-5917
16071626	-4432	1165	-6996
16071954	-4222	288	-7748
16072282	-4402	-531	-8300
16072610	-4246	-1441	-8875
16072938	-4278	-2500	-9639
16073266	-4642	-3181	-10268
16073594	-6267	-2566	-10658
16073922	-7496	-1741	-10419
16074250	-9081	98	-9943
16074578	-9220	600	-10468
16074906	-9084	362	-11357
16075234	-9453	156	-13551
16075562	-11961	1540	-15441
16075890	-14559	4259	-15474
16076218	-11136	3111	-12702
16076546	721	-1907	-7477
16076874	5315	-3885	-2898
16077202	2188	-1667	-1155
16077530	-1697	2138	-1673
16077858	-1322	3592	-1904
16078186	1409	2913	-1158
16078514	3525	2695	-651
16078842	5715	-1246	-267
16079170	4651	-2063	-661
16079498	262	2473	-1476
16079826	-1192	3554	-2038
16080154	1021	1048	-1851
16080482	4314	-182	-1149
16080810	9182	-2355	-46
16081138	10098	-3241	765
16081466	10112	-3473	1759
16081794	9364	-2494	2632
16082122	8381	-714	3235
16082450	7137	35	3789
16082778	5736	572	3943
16083106	4424	1359	3630
16083434	3972	1738	3941
16083762	4036	809	4785
16084090	3765	-681	5594
16084418	3956	-1896	6289
16084746	4238	-2120	6609
16085074	3992	-1203	6636
16085402	2958	-528	6267
16085730	-7770	1218	5947
16086058	1885	-11196	9892
16086386	4092	4381	15996
16086714	-10339	14073	15055
16087042	3292	-5285	14907
16087370	-6747	347	1306
16087698	-1278	16669	2608
16088026	-1235	1855	1757
16088354	-5340	2926	2353
16088682	1868	6646	-6044
16089010	-6303	-17621	14573
16089338	19068	-322	15153
16089666	12820	6251	5338
16089994	11479	-370	344
16090322	4034	-2277	-4709
16090650	-5668	-1028	-6362
16090978	-5581	-1101	-3123
16091306	-3273	-3193	-1834
16091634	-3306	-2887	-3332
16091962	-3630	-2265	-4647
16092290	-3393	-673	-4408
16092618	-1989	905	-4353
16092946	129	1401	-3401
16093274	972	1539	-4012
16093602	857	998	-5062
16093930	499	-185	-5998
16094258	-9	-697	-6315
16094586	133	-935	-6358
16094914	782	-1350	-6177
16095242	1530	-1708	-5797
16095570	1761	-1902	-5548
16095898	1447	-1349	-5332
16096226	1064	-912	-5118
16096554	912	-724	-4865
16096882	987	-385	-4777
16097210	1141	-157	-4920
16097538	1515	-172	-4794
16097866	1511	196	-4524
16098194	1614	521	-4304
16098522	2007	-61	-3589
16098850	2719	-88	-3077
16099178	3114	-287	-2860
16099506	2647	-104	-2268
16099834	1300	419	-1780
16100162	-397	659	-1443
16100490	-1904	515	-999
16100818	-2732	427	-764
16101146	-3035	545	-758
16101474	-2695	517	-740
16101802	-1552	386	-908
16102130	-100	95	-1067
16102458	1322	-223	-1080
16102786	2819	-396	-1242
16103114	4025	-549	-1325
16103442	4653	-538	-1204
16103770	4568	-410	-1067
16104098	4215	-516	-806
16104426	3722	-379	-620
16104754	2927	-129	-175
16105082	2123	-9	43
16105410	1383	-242	252
16105738	309	-123	492
16106066	712	294	507
16106394	874	21	315
16106722	-308	393	78
16107050	-2096	600	-270
16107378	-4372	-55	-1060
16107706	-1934	-2689	-805
16108034	-826	-2670	382
16108362	-2054	967	907
16108690	-1191	2654	1820
16109018	-3972	4025	458
16109346	-2121	214	-69
16109674	-2385	-1343	-294
16110002	-3437	202	-820
16110330	-1180	-96	-324
16110658	113	-870	-221
16110986	574	61	-120
16111314	824	428	-169
16111642	236	136	-311
16111970	-1472	785	-25
16112298	-1897	622	148
16112626	-1844	894	172
16112954	-1082	613	200
16113282	-390	276	24
16113610	312	215	-47
16113938	692	285	-130
16114266	1023	252	-201
16114594	888	133	-152
16114922	570	179	-146
16115250	180	305	-26
16115578	-198	289	51
16115906	-524	270	63
16116234	-862	352	93
16116562	-1049	369	143
16116890	-1202	386	207
16117218	-1210	346	257
16117546	-1216	323	301
16117874	-1059	457	323
16118202	-936	405	370
16118530	-822	125	432
16118858	-733	178	430
16119186	-650	170	358
16119514	-453	38	291
16119842	-254	-12	232
16120170	-164	-42	185
16120498	-125	-24	110
16120826	-2	-45	68
16121154	-47	-94	38
16121482	-69	-92	31
16121810	16	-53	8
16122138	31	-51	-40
16122466	-13	-95	-75
16122794	-68	-194	-79
16123122	-94	-217	-75
16123450	-66	-300	-168
16123778	-7	-277	-125
16124106	73	-242	-122
16124434	202	-322	-115
16124762	293	-292	-82
16125090	440	-255	-40
16125418	443	-242	-45
16125746	341	-351	-43
16126074	499	-413	-10
16126402	530	-278	1
16126730	526	-284	25
16127058	683	-301	59
16127386	655	-187	87
16127714	568	-213	128
16128042	443	-132	170
16128370	515	92	81
16128698	701	14	-19
16129026	629	-337	-238
16129354	443	-253	-469
16129682	150	82	-812
16130010	-461	195	-1207
16130338	-811	325	-1444
16130666	-1529	685	-1680
16130994	-2264	670	-1791
16131322	-2613	980	-1619
16131650	-2321	909	-1345
16131978	-1107	392	-1093
16132306	-20	-334	-738
16132634	795	-856	-623
16132962	1808	-1580	-522
16133290	2506	-2165	77
16133618	1447	-1957	959
16133946	-1433	-1080	2048
16134274	-5119	-827	2834
16134602	-8687	-1005	3329
16134930	-11910	-912	3664
16135258	-13886	-928	3810
16135586	-14569	-1103	3832
16135914	-14247	-1421	3753
16136242	-13270	-1608	3513
16136570	-12113	-1719	3220
16136898	-10967	-1976	2937
16137226	-9955	-2039	2659
16137554	-9143	-2106	2347
16137882	-8689	-1901	2081
16138210	-8624	-1679	1820
16138538	-8578	-1709	1599
16138866	-8151	-1694	1462
16139194	-7541	-1551	1165
16139522	-6819	-1519	994
16139850	-5965	-1506	722
16140178	-5231	-1461	461
16140506	-4330	-1336	293
16140834	-3380	-1304	103
16141162	-2293	-1648	12
16141490	-1125	-1828	37
16141818	-8	-1725	20
16142146	1179	-1768	27
16142474	2173	-1700	12
16142802	2889	-1775	15
16143130	3291	-1800	100
16143458	5420	-1129	-111
16143786	6421	-1262	-174
16144114	7341	-1354	-209
16144442	8206	-1078	-221
16144770	8388	-611	-304
16145098	7995	-811	-388
16145426	7980	-1634	-455
16145754	9532	-1948	-741
16146082	10445	-1146	-461
16146410	7659	812	432
16146738	3650	2459	1346
16147066	143	2817	1817
16147394	-4425	3738	1323
16147722	-7252	3866	673
16148050	-7055	2555	451
16148378	-6995	2686	44
16148706	-6057	3098	-380
16149034	-2845	1751	-769
16149362	1420	500	-1433
16149690	5827	42	-1882
16150018	8280	-324	-1924
16150346	9244	-352	-1558
16150674	8818	108	-1302
16151002	6881	152	-1187
16151330	5179	-72	-896
16151658	3031	1118	-780
16151986	1643	1448	-638
16152314	1117	979	-368
16152642	850	1284	-597
16152970	796	1558	-1043
16153298	1225	1273	-1490
16153626	1841	1124	-1827
16153954	2420	1118	-1978
16154282	2976	772	-1966
16154610	2677	637	-1828
16154938	2017	732	-1643
16155266	1316	810	-1596
16155594	643	622	-1659
16155922	446	552	-1545
16156250	466	736	-1472
16156578	731	477	-1410
16156906	1196	142	-1360
16157234	1573	220	-1377
16157562	1836	82	-1433
16157890	2024	-50	-1267
16158218	2011	-62	-1033
16158546	2085	-341	-891
16158874	2055	-633	-825
16159202	2072	-700	-701
16159530	2089	-488	-588
16159858	1970	-383	-539
16160186	1983	-497	-351
16160514	1644	-411	-124
16160842	1021	-150	34
16161170	471	-467	175
16161498	-184	-133	219
16161826	-265	-287	195
16162154	74	-396	66
16162482	504	-518	-111
16162810	1058	-476	-202
16163138	1610	-433	-213
16163466	1734	-538	-185
16163794	1147	-937	-32
16164122	-69	-317	170
16164450	-1512	743	283
16164778	-3052	684	431
16165106	-4480	817	577
16165434	-5656	1045	704
16165762	-6195	1065	753
16166090	-6559	1174	748
16166418	-6302	978	662
16166746	-5903	870	644
16167074	-5532	673	657
16167402	-4832	602	703
16167730	-4315	652	679
16168058	-3852	544	553
16168386	-3304	441	467
16168714	-2728	417	336
16169042	-2101	302	273
16169370	-1447	198	281
16169698	-701	193	189
16170026	-69	137	30
16170354	372	-168	-134
16170682	903	-502	-276
16171010	1178	-627	-333
16171338	861	-504	-345
16171666	424	-473	-285
16171994	-14	-388	-276
16172322	-574	-260	-335
16172650	-836	-232	-378
16172978	-992	-151	-403
16173306	-1105	-1	-405
16173634	-1081	146	-376
16173962	-878	246	-252
16174290	-674	291	-175
16174618	-597	603	-132
16174946	-523	323	-90
16175274	-186	-235	-13
16175602	26	-198	35
16175930	641	-275	104
16176258	1417	-549	133
16176586	1815	-815	85
16176914	2195	-842	131
16177242	2677	-668	248
16177570	2775	-657	241
16177898	2536	-571	171
16178226	2474	-554	115
16178554	2570	-515	188
16178882	2350	-458	246
16179210	2058	-321	279
16179538	1586	-107	302
16179866	1024	-39	340
16180194	589	-82	324
16180522	402	-357	253
16180850	356	-364	126
16181178	451	-275	50
16181506	610	-263	9
16181834	757	-144	0
16182162	558	41	3
16182490	166	173	29
16182818	-274	273	92
16183146	-797	433	150
16183474	-1262	537	209
16183802	-1659	674	260
16184130	-1957	774	263
16184458	-2151	833	280
16184786	-2202	937	289
16185114	-2212	1158	263
16185442	-2037	1068	267
16185770	-1813	988	290
16186098	-1450	960	305
16186426	-1004	688	259
16186754	-589	443	249
16187082	-13	409	291
16187410	352	464	363
16187738	787	372	478
16188066	1225	257	621
16188394	1666	268	689
16188722	2101	64	786
16189050	2685	62	893
16189378	3187	-43	1061
16189706	3310	-28	1173
16190034	3454	102	1282
16190362	3414	-79	1361
16190690	3325	-198	1486
16191018	3526	78	1507
16191346	3521	101	1425
16191674	3591	-13	1456
16192002	3729	-21	1359
16192330	3901	63	1214
16192658	3930	-112	1091
16192986	3954	-174	992
16193314	4124	-328	907
16193642	4431	-434	747
16193970	4799	-654	519
16194298	5097	-785	295
16194626	5439	-536	150
16194954	5454	-573	134
16195282	5312	-691	132
16195610	4853	-475	184
16195938	4648	-305	167
16196266	4631	-457	228
16196594	4737	-664	312
16196922	4856	-598	417
16197250	4621	-576	445
16197578	4488	-665	377
16197906	4136	-587	373
16198234	3595	-663	441
16198562	2939	-714	615
16198890	2376	-487	735
16199218	1867	-761	816
16199546	1523	-1005	917
16199874	1284	-952	1086
16200202	1316	-1047	1223
16200530	1113	-1428	1463
16200858	795	-1766	1705
16201186	1338	-1590	1773
16201514	788	-1766	2121
16201842	402	-1998	2521
16202170	36	-1899	2981
16202498	423	-2106	3041
16202826	526	-2619	3155
16203154	689	-2602	3527
16203482	1141	-3228	3894
16203810	2575	-4478	4053
16204138	3098	-5397	3984
16204466	4699	-5900	3422
16204794	6493	-6804	2939
16205122	9564	-7946	2060
16205450	11172	-8016	1670
16205778	12941	-7985	1184
16206106	13803	-6903	672
16206434	14175	-6001	494
16206762	13589	-5413	428
16207090	11488	-5019	299
16207418	8194	-4788	290
16207746	4157	-4553	31
16208074	1577	-4088	-313
16208402	280	-3645	-694
16208730	-60	-3269	-1261
16209058	142	-2892	-1790
16209386	515	-1904	-2188
16209714	1605	-1392	-2366
16210042	2691	-1049	-2480
16210370	2446	-330	-2578
16210698	1138	375	-2567
16211026	-403	1175	-2591
16211354	-2147	1803	-2604
16211682	-4099	2451	-2606
16212010	-5529	2709	-2521
16212338	-6067	2865	-2347
16212666	-6327	3000	-2217
16212994	-6310	2409	-2194
16213322	-6306	1968	-2065
16213650	-5562	2016	-2213
16213978	-4341	902	-2003
16214306	-1413	-110	-1942
16214634	2699	-2171	-1840
16214962	5940	-3070	-1662
16215290	5795	-1743	-2381
16215618	5548	-574	-2937
16215946	5438	-295	-2682
16216274	3996	573	-2196
16216602	1848	966	-1498
16216930	-735	724	-924
16217258	-2778	788	-418
16217586	-3622	426	-209
16217914	-3487	-14	-333
16218242	-2594	-197	-359
16218570	-1448	-354	-329
16218898	-414	-616	26
16219226	130	-962	497
16219554	-96	-805	1048
16219882	-450	-1016	1470
16220210	-1425	-1362	1866
16220538	-2365	-1435	2664
16220866	-2328	-1825	3511
16221194	-2141	-1842	3948
16221522	-1934	-2383	4523
16221850	-1726	-2531	5012
16222178	-1390	-2533	5542
16222506	-1219	-2393	6104
16222834	-1299	-2470	6655
16223162	-1604	-2733	7270
16223490	-2083	-3269	7786
16223818	-1481	-3696	8230
16224146	-3	-3833	8734
16224474	1965	-4173	9353
16224802	3484	-4828	10261
16225130	3074	-6067	11450
16225458	603	-5922	12747
16225786	-5399	-6703	13241
16226114	106	-7926	11631
16226442	2908	-10732	10945
16226770	2318	-7911	11025
16227098	6702	-7383	9080
16227426	15838	-10852	6747
16227754	23095	-13059	4194
16228082	26018	-13328	1896
16228410	25583	-9831	52
16228738	22923	-4813	-1613
16229066	20241	-1101	-3457
16229394	17165	-440	-5393
16229722	15264	-2819	-6796
16230050	12134	-4232	-7957
16230378	8420	-4057	-9358
16230706	5033	-4838	-10590
16231034	1851	-5130	-11791
16231362	-1944	-4121	-12653
16231690	-6771	-1829	-13197
16232018	-10414	497	-14207
16232346	-11214	1837	-15629
16232674	-9914	2025	-17089
16233002	-6713	481	-18659
16233330	-2786	-1462	-20356
16233658	657	-2524	-21594
16233986	4464	-3043	-22990
16234314	7000	-3758	-23495
16234642	8605	-4797	-24253
16234970	10304	-5115	-24697
16235298	12097	-4797	-25001
16235626	12857	-6157	-24709
16235954	11613	-6929	-23971
16236282	6682	-5811	-22463
16236610	4455	-5643	-21452
16236938	3539	-4737	-20502
16237266	3917	-4754	-19173
16237594	3711	-5828	-16795
16237922	2987	-5601	-13935
16238250	2803	-5038	-10797
16238578	1654	-3717	-7851
16238906	187	-1068	-4862
16239234	-48	36	-1733
16239562	-1330	861	1374
16239890	-2411	-2697	4961
16240218	-3042	-4376	7703
16240546	264	-3548	9966
16240874	8326	511	11778
16241202	5544	144	12293
16241530	15696	2823	14316
16241858	18326	-2516	12754
16242186	15718	771	6584
16242514	15580	3860	5203
16242842	14088	5909	5677
16243170	8576	4910	6274
16243498	6039	-1559	6863
16243826	4274	-2687	4434
16244154	7474	-2063	4384
16244482	5298	1048	4483
16244810	1820	877	4560
16245138	3106	2513	4210
16245466	2864	3290	3666
16245794	2596	1745	2705
16246122	843	1675	1707
16246450	532	803	1250
16246778	907	677	1156
16247106	1438	483	1143
16247434	1495	1059	1008
16247762	1541	1284	671
16248090	1407	1790	570
16248418	613	2014	583
16248746	-341	1959	683
16249074	-1430	1969	738
16249402	-1847	1868	566
16249730	-1331	1722	237
16250058	-540	1680	-50
16250386	12	1610	-212
16250714	384	1460	-200
16251042	315	1011	-35
16251370	16	548	87
16251698	-107	429	136
16252026	-89	494	273
16252354	-250	717	432
16252682	-418	723	509
16253010	-754	723	495
16253338	-1175	628	409
16253666	-1262	713	321
16253994	-1586	701	248
16254322	-1715	595	124
16254650	-1399	429	78
16254978	-1112	373	30
16255306	-846	397	-71
16255634	-749	482	-219
16255962	-902	389	-301
16256290	-1190	256	-419
16256618	-1201	51	-526
16256946	-1351	-99	-594
16257274	-1531	-342	-699
16257602	-1579	-634	-873
16257930	-1482	-651	-1004
16258258	-1426	-418	-1139
16258586	-1394	-429	-1269
16258914	-1296	-398	-1460
16259242	-1440	-399	-1675
16259570	-2087	-444	-1962
16259898	-2310	-635	-2307
16260226	-2452	-801	-2697
16260554	-2952	-900	-3087
16260882	-3032	-1092	-3525
16261210	-2778	-1256	-3998
16261538	-2976	-1412	-4464
16261866	-3172	-1614	-5063
16262194	-2895	-1896	-5629
16262522	-2778	-2033	-6236
16262850	-2743	-2202	-6882
16263178	-2668	-2335	-7499
16263506	-2697	-2218	-8302
16263834	-3020	-2697	-8791
16264162	-4375	-2826	-9315
16264490	-4802	-3019	-9878
16264818	-6304	-3550	-10272
16265146	-7902	-3335	-10448
16265474	-8972	-1962	-10562
16265802	-10319	-473	-10351
16266130	-11328	150	-9529
16266458	-12199	-1383	-7349
16266786	-13946	-3401	-4131
16267114	-8400	3119	1630
16267442	-6357	4455	4488
16267770	-6842	6110	6570
16268098	-8284	6340	7848
16268426	-7821	4425	8954
16268754	-7415	2969	10477
16269082	-8304	2968	11579
16269410	-8687	2402	12198
16269738	-8469	1703	12857
16270066	-8681	2554	13424
16270394	-8592	3407	14067
16270722	-7836	3300	14563
16271050	-7569	3502	15069
16271378	-8002	3565	15245
16271706	-9190	3998	15281
16272034	-11411	5180	15245
16272362	-14046	6178	14826
16272690	-16622	6585	14416
16273018	-19473	6752	14407
16273346	-21506	6644	14426
16273674	-22939	6622	14303
16274002	-23842	6585	14002
16274330	-23929	6038	13350
16274658	-23438	5402	12640
16274986	-22774	4819	11869
16275314	-22200	4314	11042
16275642	-21735	4092	10177
16275970	-21567	3875	9159
16276298	-22001	3264	8199
16276626	-22421	3371	7213
16276954	-22709	3650	6144
16277282	-22771	4165	5242
16277610	-23046	4835	4546
16277938	-23864	5342	4041
16278266	-24689	5313	3669
16278594	-25646	4960	3202
16278922	-26700	4826	2658
16279250	-27653	4722	1971
16279578	-27576	4109	1149
16279906	-26523	2604	315
16280234	-25290	2292	-433
16280562	-23772	3691	-1308
16280890	-22607	4904	-2181
16281218	-18865	6621	-3125
16281546	-14261	6002	-3809
16281874	-10206	4124	-3816
16282202	-5759	2566	-3201
16282530	-1863	1744	-1897
16282858	668	1423	-154
16283186	1954	364	1873
16283514	5689	-7520	3968
16283842	-1507	-616	6830
16284170	-6287	8549	8771
16284498	-9123	4836	11168
16284826	-12178	5353	12200
16285154	-12603	1775	9725
16285482	-10018	2281	4659
16285810	-5629	206	1977
16286138	-1537	9900	4098
16286466	4336	9039	6239
16286794	6169	5330	5081
16287122	5317	6549	5219
16287450	3123	6226	4695
16287778	1904	4145	4273
16288106	105	5873	3189
16288434	-1082	5769	2799
16288762	-3058	2504	4689
16289090	8220	-2652	3021
16289418	15615	-5508	1223
16289746	7500	-96	2667
16290074	2705	6755	2463
16290402	117	6439	1679
16290730	1753	3813	1450
16291058	-788	5092	1486
16291386	-4840	4822	383
16291714	-7359	3170	39
16292042	-7138	1859	-38
16292370	-5371	1280	488
16292698	-3456	888	657
16293026	-1999	1248	473
16293354	-512	1088	44
16293682	-162	983	-203
16294010	-758	1071	-417
16294338	-1181	780	-419
16294666	-1477	533	-457
16294994	-1683	440	-544
16295322	-2153	489	-600
16295650	-2276	-13	-628
16295978	-1865	-217	-651
16296306	-1540	-128	-961
16296634	-1251	-467	-1186
16296962	-1296	-518	-1235
16297290	-1504	-862	-1425
16297618	-1675	-1102	-1703
16297946	-1696	-1189	-2032
16298274	-1632	-978	-2284
16298602	-2244	-1365	-2349
16298930	-2953	-1662	-2356
16299258	-2750	-2305	-2588
16299586	-3050	-3212	-3463
16299914	-2346	-3527	-4171
16300242	-1525	-3856	-4766
16300570	-1345	-4602	-5440
16300898	-594	-4882	-6099
16301226	-86	-5831	-6807
16301554	299	-5921	-7449
16301882	319	-7041	-7886
16302210	-695	-7500	-8141
16302538	-1218	-7309	-8017
16302866	-1019	-6420	-7885
16303194	-1407	-4034	-8179
16303522	-2563	-2490	-7501
16303850	-7232	-563	-6540
16304178	-14462	1839	-6028
16304506	-20841	4223	-5481
16304834	-23169	5664	-4198
16305162	-21887	6297	-1272
16305490	-19198	4853	2018
16305818	-14441	3464	5157
16306146	-8324	2569	7831
16306474	-1716	1211	9677
16306802	3866	625	10805
16307130	8551	1354	11396
16307458	9490	3310	12005
16307786	9289	5383	12350
16308114	5493	7196	11733
16308442	1199	7075	10590
16308770	-2185	6177	9456
16309098	-5042	6176	8251
16309426	-6697	5647	7112
16309754	-6375	4486	5850
16310082	-6314	4305	4570
16310410	-5665	4659	2893
16310738	-5671	4700	1845
16311066	-6342	4172	1102
16311394	-6928	3658	544
16311722	-6901	2920	164
16312050	-6307	2258	-258
16312378	-4968	1608	-459
16312706	-3883	1168	-528
16313034	-2854	1100	-570
16313362	-1954	972	-614
16313690	-1476	1075	-577
16314018	-638	954	-523
16314346	-248	1006	-528
16314674	-197	1048	-500
16315002	-453	1214	-475
16315330	-842	1293	-553
16315658	-1135	1064	-711
16315986	-1442	951	-966
16316314	-1600	622	-1254
16316642	-1460	175	-1489
16316970	-944	-71	-1289
16317298	-397	-327	-763
16317626	83	-431	-192
16317954	769	-463	153
16318282	1182	-352	184
16318610	1448	-25	98
16318938	1703	81	86
16319266	1648	137	197
16319594	1258	402	400
16319922	441	575	693
16320250	-408	678	1048
16320578	-711	85	1378
16320906	-758	-611	1790
16321234	-740	-500	2190
16321562	-776	-81	2452
16321890	-936	714	2584
16322218	-1304	1183	2616
16322546	-1764	1605	2655
16322874	-2316	2417	2801
16323202	-3133	3181	2927
16323530	-3578	3524	3169
16323858	-3481	3939	3547
16324186	-3616	4933	3823
16324514	-3471	5417	3939
16324842	-3119	5154	4137
16325170	-2798	4927	4413
16325498	-2907	5081	4577
16325826	-3446	5184	4701
16326154	-3534	4399	4686
16326482	-4029	4150	4725
16326810	-5002	4228	4673
16327138	-4975	4388	4539
16327466	-4851	4682	4433
16327794	-4177	4142	4329
16328122	-4080	4607	4231
16328450	-3310	4550	3934
16328778	-2279	3510	3495
16329106	-1664	2423	3283
16329434	-1892	1830	3433
16329762	-1969	2237	3812
16330090	-1913	2597	4217
16330418	-2042	2702	4281
16330746	-2068	2119	4045
16331074	-1884	1014	3781
16331402	-815	-253	3472
16331730	2151	-1093	2772
16332058	5363	-2647	1961
16332386	7242	-3984	1431
16332714	5907	-1987	1484
16333042	3080	789	2030
16333370	777	3039	2447
16333698	-1046	3679	2719
16334026	-2728	1235	4337
16334354	-4184	3001	5087
16334682	-5530	3869	4535
16335010	-4206	1676	3119
16335338	-743	-143	2169
16335666	1166	625	2128
16335994	1377	1271	2512
16336322	1561	657	2772
16336650	1717	427	2924
16336978	1334	391	3145
16337306	549	722	3357
16337634	-291	663	3461
16337962	-697	581	3502
16338290	-1976	868	3525
16338618	-3018	813	3688
16338946	-3485	743	3812
16339274	-3874	520	3801
16339602	-3755	690	3777
16339930	-3882	781	3809
16340258	-4141	776	3777
16340586	-3505	979	3791
16340914	-2905	924	3896
16341242	-2977	951	4047
16341570	-3438	1420	4287
16341898	-3836	1504	4512
16342226	-3983	1838	4752
16342554	-3906	2210	4893
16342882	-4326	2557	5113
16343210	-5323	3472	5236
16343538	-6155	3792	5628
16343866	-8872	4482	6082
16344194	-10737	4277	6692
16344522	-12039	4261	7151
16344850	-13168	4501	7298
16345178	-12439	3973	7803
16345506	-11645	3167	8651
16345834	-10792	2108	9398
16346162	-9438	1214	9854
16346490	-7380	274	9575
16346818	-5479	-304	8982
16347146	-5360	169	7628
16347474	-3590	261	6067
16347802	-2719	546	4714
16348130	-2000	330	3482
16348458	-1682	-320	2513
16348786	-2375	-192	1875
16349114	-2357	-663	1835
16349442	-2665	-838	1741
16349770	-4110	-425	1497
16350098	-4812	-414	1219
16350426	-4806	-802	809
16350754	-4595	-896	172
16351082	-3824	-1001	-584
16351410	-2305	-1144	-1168
16351738	-768	-1018	-1516
16352066	595	-801	-1696
16352394	1357	-706	-1805
16352722	1822	-596	-1929
16353050	1492	-577	-1926
16353378	260	-221	-1874
16353706	-1010	83	-1837
16354034	-2058	150	-1499
16354362	-2552	158	-1494
16354690	-2348	12	-1360
16355018	-2090	-225	-1222
16355346	-1331	-700	-1238
16355674	25	-1382	-1233
16356002	1396	-1924	-1319
16356330	2686	-2104	-1528
16356658	3766	-2371	-1560
16356986	4603	-2603	-1558
16357314	5071	-2863	-1652
16357642	5164	-3082	-1602
16357970	5104	-3355	-1540
16358298	5205	-3730	-1527
16358626	5450	-4012	-1656
16358954	6217	-4234	-2256
16359282	6833	-4449	-2471
16359610	7236	-4597	-3032
16359938	8242	-4700	-3424
16360266	9508	-4609	-4254
16360594	10221	-4561	-4587
16360922	10516	-4647	-4725
16361250	10831	-4057	-4807
16361578	10572	-3460	-5153
16361906	10062	-3211	-5375
16362234	8163	-2160	-5574
16362562	5466	-952	-5653
16362890	3057	389	-5883
16363218	1171	1576	-5991
16363546	-852	2682	-5700
16363874	-3270	3747	-5671
16364202	-4763	4042	-5711
16364530	-6555	4095	-5716
16364858	-7281	3818	-5794
16365186	-6006	3020	-5961
16365514	-5232	1955	-5870
16365842	-5003	1091	-5320
16366170	-2747	516	-4611
16366498	1454	1138	-4447
16366826	4565	2231	-3793
16367154	5476	3309	-2263
16367482	4627	3540	-1444
16367810	2800	3438	-1837
16368138	28	3038	-1927
16368466	-2672	2199	-1979
16368794	-3788	1427	-1889
16369122	-3160	926	-1820
16369450	-2279	695	-1794
16369778	-1095	729	-1661
16370106	280	758	-1511
16370434	994	839	-1407
16370762	999	879	-1285
16371090	1054	823	-1137
16371418	1028	697	-959
16371746	759	748	-773
16372074	515	551	-489
16372402	395	407	-246
16372730	15	313	-9
16373058	-356	118	175
16373386	-124	-95	252
16373714	781	-522	153
16374042	1878	-869	44
16374370	2646	-1035	42
16374698	2772	-1333	132
16375026	3307	-1812	133
16375354	3660	-2317	325
16375682	3513	-2360	559
16376010	3657	-2597	867
16376338	3844	-2785	1173
16376666	3931	-2669	1548
16376994	3569	-2657	1822
16377322	3481	-2839	2128
16377650	3049	-3184	2419
16377978	2407	-3467	2625
16378306	2677	-3739	2711
16378634	3445	-4167	2869
16378962	3298	-4315	3331
16379290	2351	-4812	3743
16379618	2301	-5617	3850
16379946	2674	-6422	4021
16380274	3241	-8010	4386
16380602	3401	-8392	4516
16380930	3980	-9461	3890
16381258	6244	-10345	3892
16381586	6940	-11211	3769
16381914	7338	-11832	3839
16382242	8132	-12406	3915
16382570	8160	-12999	3707
16382898	8475	-13277	3257
16383226	8639	-13620	2681
16383554	8160	-13534	1985
16383882	8046	-13039	1462
16384210	8120	-12393	981
16384538	8128	-11140	580
16384866	7705	-9800	245
16385194	6324	-8077	74
16385522	4486	-6329	84
16385850	1755	-4717	7
16386178	-1195	-2923	3
16386506	-3810	-1514	-45
16386834	-5772	-591	-124
16387162	-6735	113	-361
16387490	-6716	334	-587
16387818	-6323	509	-1044
16388146	-5150	376	-1462
16388474	-3482	-11	-1849
16388802	-2395	-142	-2061
16389130	-1903	-450	-2148
16389458	-1876	-543	-2129
16389786	-2289	-555	-2156
16390114	-3400	-719	-2169
16390442	-3756	-651	-2192
16390770	-3908	-819	-2272
16391098	-3763	-519	-2075
16391426	-3538	-851	-2184
16391754	-3287	-1176	-2228
16392082	-3131	-1689	-2422
16392410	-3510	-2293	-2396
16392738	-3956	-2788	-2695
16393066	-3690	-3640	-2810
16393394	-3096	-4417	-2786
16393722	-1831	-5150	-2739
16394050	-594	-5691	-2547
16394378	465	-6193	-2238
16394706	1623	-7189	-1725
16395034	2858	-9004	-933
16395362	3463	-9754	-144
16395690	4518	-9876	282
16396018	6147	-10610	968
16396346	6869	-11558	2045
16396674	7434	-11805	2868
16397002	8287	-12342	3278
16397330	8903	-12992	3445
16397658	7939	-11223	3635
16397986	7115	-10468	3568
16398314	7496	-11430	4283
16398642	13374	-10280	4081
16398970	19818	-10755	4420
16399298	25126	-8878	3173
16399626	30827	-6322	1457
16399954	32767	-5401	-467
16400282	32701	-6411	-2489
16400610	30061	-7284	-4036
16400938	23560	-5800	-5081
16401266	14566	-3487	-4971
16401594	5455	-2410	-4669
16401922	-2127	-1507	-4379
16402250	-7279	-841	-4403
16402578	-10342	-402	-5788
16402906	-10955	-1300	-7742
16403234	-9846	-2588	-9812
16403562	-6550	-3869	-11960
16403890	-2350	-4874	-13948
16404218	2089	-5774	-15894
16404546	6696	-6627	-17749
16404874	11102	-7766	-19416
16405202	14210	-9208	-20829
16405530	15572	-9698	-21821
16405858	15929	-9102	-22290
16406186	14265	-8084	-22301
16406514	10997	-7143	-21943
16406842	7677	-6667	-21098
16407170	4724	-6808	-20144
16407498	1852	-6878	-19159
16407826	-720	-6236	-18743
16408154	-2994	-4907	-18539
16408482	-3465	-3976	-18755
16408810	-2161	-4954	-18652
16409138	-348	-5037	-18445
16409466	2486	-5302	-18429
16409794	7313	-7608	-18001
16410122	11375	-9654	-16604
16410450	14180	-10973	-14532
16410778	12998	-9836	-11903
16411106	10735	-7568	-9019
16411434	5980	-3984	-6346
16411762	3035	-1707	-3282
16412090	513	-492	-595
16412418	-2151	797	1600
16412746	-3044	1928	3636
16413074	-2019	2932	5575
16413402	-2985	5594	7397
16413730	-3699	7914	8997
16414058	-2970	8280	10191
16414386	-4256	9074	10331
16414714	-5717	8412	8970
16415042	-5279	7253	8131
16415370	-5269	6274	7052
16415698	-5420	6444	5752
16416026	-3855	6369	5502
16416354	-2758	5600	5478
16416682	-1703	4978	5253
16417010	-987	4900	5218
16417338	-1796	4797	5317
16417666	-2268	4790	5326
16417994	-3514	4674	5516
16418322	-4837	3719	5859
16418650	-5237	2682	6253
16418978	-3675	2324	6424
16419306	-2838	1983	6035
16419634	-2069	1483	5445
16419962	-155	540	4870
16420290	3140	537	4231
16420618	2563	885	4037
16420946	1720	1102	3811
16421274	1204	919	3883
16421602	375	248	4049
16421930	-261	-271	4198
16422258	-487	-810	3931
16422586	560	-779	3487
16422914	2511	-1234	2990
16423242	4350	-1531	2448
16423570	5234	-1048	2066
16423898	5329	-798	1916
16424226	4926	-612	1938
16424554	4521	-486	2077
16424882	3949	-373	2157
16425210	3412	-285	2263
16425538	2325	-385	2360
16425866	1614	156	2610
16426194	1031	522	2889
16426522	818	583	2981
16426850	199	993	3027
16427178	-76	1512	3116
16427506	-467	1792	3170
16427834	-855	1878	3186
16428162	-1327	2149	3231
16428490	-1764	2230	3232
16428818	-1993	2383	3238
16429146	-2364	2676	3159
16429474	-2354	3012	3179
16429802	-2609	3006	3167
16430130	-3061	3109	3193
16430458	-3334	3110	3261
16430786	-3544	3009	3250
16431114	-3569	2832	3241
16431442	-3616	2763	3203
16431770	-3833	2439	3182
16432098	-4048	2161	3264
16432426	-4751	1662	3333
16432754	-5096	1653	3426
16433082	-5152	1979	3259
16433410	-4743	1716	3056
16433738	-4843	2084	3011
16434066	-4366	1777	3087
16434394	-4325	1601	3252
16434722	-4869	1548	3492
16435050	-4815	1327	3775
16435378	-4354	1354	3998
16435706	-4807	1184	4242
16436034	-4957	943	4549
16436362	-5412	1258	4594
16436690	-5970	834	4446
16437018	-6070	536	4234
16437346	-5475	-21	4042
16437674	-5274	-761	3925
16438002	-4794	-1650	3900
16438330	-3747	-2501	3934
16438658	-2911	-3380	4193
16438986	-2107	-4076	4548
16439314	-494	-4200	4953
16439642	1444	-4442	5311
16439970	3362	-4989	5864
16440298	2450	-5234	7130
16440626	2116	-5381	8038
16440954	2818	-5577	8888
16441282	3593	-5233	9377
16441610	3572	-4065	10123
16441938	3188	-3834	10499
16442266	2820	-4399	10381
16442594	1627	-2606	9409
16442922	1608	-131	7947
16443250	2677	849	6438
16443578	6269	-1914	5282
16443906	8835	-4890	4445
16444234	9823	-3222	3178
16444562	10300	-1331	1239
16444890	10460	-573	-1449
16445218	9157	-1335	-3930
16445546	8599	-3090	-5895
16445874	6863	-2893	-7250
16446202	3021	-1741	-8229
16446530	261	-1821	-9233
16446858	-1972	-1906	-10527
16447186	-4980	-907	-11910
16447514	-7350	-299	-13072
16447842	-8536	-613	-14090
16448170	-9065	-912	-15392
16448498	-7525	-1805	-16948
16448826	-5021	-3051	-18519
16449154	-2669	-3751	-19852
16449482	-855	-4711	-21153
16449810	517	-5624	-22064
16450138	835	-5338	-22694
16450466	2304	-4352	-23421
16450794	2413	-4514	-23652
16451122	2117	-5120	-23648
16451450	1241	-5725	-22923
16451778	-1228	-4310	-22159
16452106	-2728	-2738	-21738
16452434	-2726	-1989	-21484
16452762	-1654	-1856	-21241
16453090	361	-2530	-20894
16453418	1416	-3531	-20365
16453746	3822	-4638	-19471
16454074	6724	-4546	-18154
16454402	8829	-5666	-16127
16454730	8321	-5879	-13263
16455058	6196	-4375	-9758
16455386	3552	-2361	-6095
16455714	-600	718	-2908
16456042	-4527	3224	-250
16456370	-6046	2296	2401
16456698	-4355	-1635	4651
16457026	-5254	-2491	6899
16457354	-3112	-1616	8126
16457682	2445	-480	8803
16458010	7142	1493	8995
16458338	5909	3588	8619
16458666	6825	3813	7886
16458994	6961	1336	6867
16459322	8190	-191	6072
16459650	7280	516	5329
16459978	5668	3604	5182
16460306	4657	6467	6020
16460634	2432	6871	6129
16460962	582	4332	5739
16461290	-677	4339	4769
16461618	-1094	4888	4880
16461946	-2838	4187	4799
16462274	-3570	2536	4199
16462602	-2387	2138	4020
16462930	-984	1907	3575
16463258	969	1593	3005
16463586	2750	1248	2751
16463914	3650	1252	2349
16464242	3953	846	2046
16464570	3641	725	1952
16464898	3042	501	1714
16465226	2246	306	1482
16465554	1841	303	1278
16465882	1647	342	1106
16466210	1465	356	906
16466538	1451	401	666
16466866	1175	541	420
16467194	791	637	244
16467522	263	735	289
16467850	-219	892	373
16468178	-534	1050	331
16468506	-805	1042	173
16468834	-1000	1156	37
16469162	-942	1010	-91
16469490	-828	1013	-173
16469818	-872	1151	-204
16470146	-910	1003	-246
16470474	-1014	916	-221
16470802	-984	811	-204
16471130	-826	773	-244
16471458	-679	790	-208
16471786	-770	832	-101
16472114	-743	874	-15
16472442	-735	712	-85
16472770	-617	465	-128
16473098	-383	262	-156
16473426	48	-33	-135
16473754	642	-385	-152
16474082	1181	-590	-209
16474410	1439	-620	-197
16474738	1598	-615	-119
16475066	1802	-652	-28
16475394	1594	-624	96
16475722	1463	-567	252
16476050	1323	-565	264
16476378	1512	-622	413
16476706	1457	-733	466
16477034	1703	-903	501
16477362	1980	-1117	528
16477690	1918	-945	597
16478018	1932	-791	743
16478346	2038	-771	703
16478674	2251	-721	861
16479002	2008	-874	806
16479330	1552	-641	895
16479658	665	-407	1045
16479986	685	217	1050
16480314	1242	-192	1044
16480642	2121	-878	1061
16480970	3890	-1437	715
16481298	4633	-1858	603
16481626	5087	-2229	433
16481954	5474	-2519	256
16482282	5649	-2656	26
16482610	6040	-3035	-204
16482938	7050	-3739	-458
16483266	7841	-4107	-734
16483594	8569	-4543	-935
16483922	9342	-4271	-1178
16484250	9447	-4156	-1319
16484578	9245	-3963	-1503
16484906	11227	-4962	-1825
16485234	13754	-5859	-2488
16485562	17012	-7164	-3111
16485890	19640	-7939	-3355
16486218	20251	-8201	-3290
16486546	20106	-8247	-3220
16486874	19393	-8273	-3185
16487202	19397	-8676	-3342
16487530	20927	-9731	-3593
16487858	23123	-10618	-3922
16488186	25215	-10978	-4173
16488514	26677	-10916	-4183
16488842	27653	-10751	-3904
16489170	28405	-10631	-3560
16489498	28682	-10561	-3111
16489826	28990	-10692	-2617
16490154	28281	-10566	-2076
16490482	26762	-10234	-1637
16490810	24765	-9752	-1077
16491138	22908	-9134	-677
16491466	20893	-8312	-354
16491794	18724	-7580	-71
16492122	17072	-7093	232
16492450	14639	-6570	516
16492778	12117	-5759	956
16493106	8333	-4605	1392
16493434	4649	-3672	1785
16493762	2373	-3066	2164
16494090	231	-2042	2953
16494418	-1968	-520	3728
16494746	-2778	-210	4104
16495074	-2837	-234	3254
16495402	-1574	27	2853
16495730	-1516	328	2636
16496058	-1302	-773	2770
16496386	-1431	-1298	3321
16496714	-733	-1663	3697
16497042	334	-2298	3858
16497370	1705	-2195	3682
16497698	2655	-2286	3383
16498026	3542	-2398	3460
16498354	3403	-1755	3544
16498682	2446	-1360	3617
16499010	1423	-1294	3998
16499338	-583	-1620	4482
16499666	-2609	-1667	4882
16499994	-3325	-1573	5012
16500322	-3386	-1577	4850
16500650	-3548	-1797	4732
16500978	-3643	-1957	4682
16501306	-3286	-2103	4372
16501634	-3183	-1936	4173
16501962	-2661	-1878	4173
16502290	-2446	-1987	4079
16502618	-1802	-1937	3859
16502946	-1482	-1848	3538
16503274	-1191	-1527	3268
16503602	-1080	-1236	2796
16503930	-1206	-919	2329
16504258	-1970	-428	2021
16504586	-2805	-125	1808
16504914	-3613	21	1505
16505242	-4195	-231	1110
16505570	-4810	-390	798
16505898	-4464	-656	393
16506226	-3196	-1025	-55
16506554	-2114	-1130	-427
16506882	-1320	-1238	-805
16507210	-838	-1439	-1085
16507538	-732	-1636	-1267
16507866	-1053	-1722	-1440
16508194	-1234	-1898	-1664
16508522	-1842	-2100	-1857
16508850	-2223	-2174	-2033
16509178	-1834	-2386	-2093
16509506	-1766	-2682	-2160
16509834	-2445	-2534	-2251
16510162	-2663	-2134	-2388
16510490	-1844	-1778	-2501
16510818	-807	-1814	-2636
16511146	-440	-1670	-2698
16511474	-104	-1833	-2638
16511802	219	-2258	-2556
16512130	125	-2513	-2463
16512458	-91	-2152	-2566
16512786	494	-2615	-2352
16513114	-358	-2800	-2296
16513442	-472	-3126	-2257
16513770	-55	-4279	-2331
16514098	41	-5128	-2275
16514426	483	-5998	-2395
16514754	1228	-7408	-2359
16515082	1952	-8716	-2056
16515410	2631	-10065	-1718
16515738	4603	-11732	-1050
16516066	6200	-12336	-513
16516394	8114	-12688	-310
16516722	9376	-13338	-176
16517050	9677	-13385	384
16517378	10570	-14351	763
16517706	10260	-14666	1302
16518034	8801	-15072	1082
16518362	9690	-16278	-169
16518690	10485	-16187	-1877
16519018	10076	-15423	-3252
16519346	14283	-14666	-4513
16519674	19990	-13971	-4821
16520002	24805	-15500	-3798
16520330	26120	-15338	-2344
16520658	27523	-11112	-1006
16520986	25754	-5086	-465
16521314	22582	-3029	-1876
16521642	17772	-2030	-4191
16521970	12331	-1455	-5335
16522298	7516	-2195	-5569
16522626	1849	-1894	-5717
16522954	-3654	-562	-6350
16523282	-8364	1454	-7775
16523610	-12280	4004	-9521
16523938	-14024	5503	-11512
16524266	-12156	5627	-13649
16524594	-7887	4880	-15910
16524922	-2522	3245	-18407
16525250	2168	1548	-20778
16525578	5666	950	-23395
16525906	9164	840	-25341
16526234	12716	-378	-26593
16526562	15307	-1681	-27204
16526890	15859	-2180	-27419
16527218	14199	-2371	-27490
16527546	11912	-3580	-27560
16527874	9039	-4100	-27252
16528202	6702	-3715	-26529
16528530	5720	-3892	-25804
16528858	4946	-3245	-24890
16529186	5539	-3630	-23805
16529514	6578	-5305	-21941
16529842	7916	-4844	-19946
16530170	9214	-5344	-16949
16530498	8906	-6347	-13951
16530826	8958	-6202	-11252
16531154	8520	-5199	-8071
16531482	6470	-3494	-5214
16531810	3948	-252	-2517
16532138	3021	1608	-377
16532466	2356	2021	1418
16532794	2787	-611	3079
16533122	835	-3986	3950
16533450	3874	79	5448
16533778	10132	-443	4645
16534106	7986	1218	5946
16534434	7603	2966	7981
16534762	19122	4228	9610
16535090	16035	741	12387
16535418	22152	-1948	11539
16535746	9167	12518	9684
16536074	5649	10155	7477
16536402	5585	-2415	8484
16536730	-1862	2924	5075
16537058	860	1051	5780
16537386	2486	-1596	6409
16537714	3873	-1161	6647
16538042	4566	-533	6996
16538370	4743	-203	5997
16538698	4742	1615	5098
16539026	3050	1968	4012
16539354	1486	1368	3170
16539682	689	1101	2802
16540010	-360	1780	3190
16540338	-983	2154	3088
16540666	-344	2068	2658
16540994	651	2000	2510
16541322	907	1692	2277
16541650	921	1304	2018
16541978	736	939	1518
16542306	929	961	1209
16542634	954	874	1132
16542962	709	745	988
16543290	191	511	907
16543618	-172	506	693
16543946	-86	478	470
16544274	-139	677	317
16544602	-242	693	134
16544930	-314	705	-75
16545258	-717	457	-294
16545586	-707	255	-467
16545914	-841	-41	-579
16546242	-904	-451	-659
16546570	-848	-501	-751
16546898	-549	-475	-873
16547226	-699	-378	-1014
16547554	-792	-471	-1208
16547882	-648	-740	-1346
16548210	-710	-994	-1452
16548538	-938	-1058	-1562
16548866	-1239	-962	-1765
16549194	-1215	-895	-1902
16549522	-1474	-1013	-1982
16549850	-1583	-1142	-2134
16550178	-1779	-1339	-2273
16550506	-2174	-1411	-2444
16550834	-2220	-1463	-2702
16551162	-1764	-1485	-2947
16551490	-1402	-1598	-3204
16551818	-1550	-1777	-3574
16552146	-1591	-1786	-3871
16552474	-1762	-1809	-4112
16552802	-1870	-1891	-4408
16553130	-1876	-2090	-4825
16553458	-1596	-2010	-5269
16553786	-1376	-2224	-5677
16554114	-1858	-2266	-6159
16554442	-2017	-1953	-6518
16554770	-2232	-2096	-6879
16555098	-2712	-2370	-7371
16555426	-3222	-2484	-7787
16555754	-4170	-2809	-7991
16556082	-5871	-3028	-8334
16556410	-7607	-3414	-9023
16556738	-8683	-3099	-8877
16557066	-10213	-1848	-8568
16557394	-11731	-707	-8046
16557722	-14500	1045	-7219
16558050	-19182	3034	-6236
16558378	-24424	3961	-5084
16558706	-23081	4289	-3576
16559034	-19620	2447	-1645
16559362	-15855	5321	700
16559690	-11480	7632	3014
16560018	-9363	7831	5167
16560346	-8994	7972	6132
16560674	-10767	7725	7326
16561002	-11756	6517	8458
16561330	-10866	3092	8928
16561658	-9055	-773	8551
16561986	-6977	-3112	7814
16562314	-3682	-4688	7306
16562642	-159	-5780	7254
16562970	2480	-6075	7363
16563298	3547	-5347	7479
16563626	3429	-5136	7525
16563954	2087	-5556	7538
16564282	-459	-5270	7448
16564610	-2731	-5329	7233
16564938	-4486	-4756	7062
16565266	-6115	-3737	6811
16565594	-7637	-3363	6574
16565922	-9628	-2539	6306
16566250	-11188	-2087	5905
16566578	-12222	-1970	5426
16566906	-12941	-1931	4770
16567234	-13191	-2767	3903
16567562	-13436	-3690	3131
16567890	-13743	-3450	2379
16568218	-13758	-2982	1554
16568546	-13323	-2981	929
16568874	-12096	-2487	414
16569202	-11838	-2574	-289
16569530	-9889	-4027	-581
16569858	-6806	-4843	-711
16570186	-5066	-5147	-786
16570514	-3832	-4849	-849
16570842	-2401	-4442	-859
16571170	-2108	-4944	-593
16571498	-3321	-4402	-77
16571826	-4667	-3035	467
16572154	-5697	-2376	1196
16572482	-7916	-1905	2456
16572810	-8712	-1341	2946
16573138	-9307	129	3355
16573466	-9313	1840	3742
16573794	-8578	2848	4164
16574122	-7454	2310	4615
16574450	-6139	1753	5101
16574778	-4395	1539	5665
16575106	-3841	1757	6065
16575434	-2234	2026	6359
16575762	-1079	1562	7026
16576090	3592	769	7024
16576418	3793	-927	7707
16576746	-1380	3057	7700
16577074	-1964	1806	7558
16577402	-15571	11872	3619
16577730	-21035	9620	3539
16578058	-18620	5186	3514
16578386	-14485	7828	5822
16578714	-8307	8946	8418
16579042	-3734	8438	8660
16579370	-94	8458	7419
16579698	-727	8824	5606
16580026	-1069	8088	3735
16580354	1426	6025	2802
16580682	4898	3562	3311
16581010	7168	1697	2951
16581338	7237	2408	2262
16581666	5406	4808	2045
16581994	2467	7244	2367
16582322	-1720	8834	2643
16582650	-5775	8839	3364
16582978	-9996	9306	4318
16583306	-12280	9905	5159
16583634	-12912	9852	5540
16583962	-12474	8661	5602
16584290	-11437	8019	5276
16584618	-9994	8496	4930
16584946	-8392	8414	4538
16585274	-6673	7813	4418
16585602	-5423	7021	4505
16585930	-5106	5886	4822
16586258	-5453	4833	5054
16586586	-5406	3268	5260
16586914	-3040	1415	5475
16587242	458	-906	5805
16587570	4812	-1907	5395
16587898	7239	-1070	4801
16588226	7717	-191	3970
16588554	7332	1408	3506
16588882	5828	1929	3885
16589210	2321	2800	4468
16589538	-1543	3918	4697
16589866	-3032	3146	4786
16590194	-3216	1995	4429
16590522	-2396	1473	3775
16590850	-917	1203	3179
16591178	350	1216	2658
16591506	1479	1528	2455
16591834	2457	1497	2071
16592162	2819	1401	1705
16592490	2364	1626	1504
16592818	1586	1890	1582
16593146	667	2031	1808
16593474	-75	1912	1982
16593802	-515	1865	2213
16594130	-1091	1685	2346
16594458	-1684	1923	2482
16594786	-2222	2116	2718
16595114	-2674	2452	2895
16595442	-2685	2456	3186
16595770	-3438	2659	3436
16596098	-3296	2339	3597
16596426	-3550	2138	3674
16596754	-4309	2608	3773
16597082	-4295	2970	3921
16597410	-4334	2705	4004
16597738	-4309	2713	4162
16598066	-4457	2698	4291
16598394	-4290	2178	4342
16598722	-4371	2156	4323
16599050	-4315	2220	4287
16599378	-4073	2440	4242
16599706	-3925	2693	4302
16600034	-4199	2991	4417
16600362	-4679	3521	4414
16600690	-5343	3911	4386
16601018	-6771	4629	4337
16601346	-8012	5298	4470
16601674	-9864	5705	4593
16602002	-11363	6653	4802
16602330	-13021	7167	5058
16602658	-14503	7527	5345
16602986	-16691	7479	5757
16603314	-17015	7541	5784
16603642	-16892	7265	5925
16603970	-16163	6482	6106
16604298	-15610	5215	6178
16604626	-15414	3873	5972
16604954	-14970	2608	5483
16605282	-13285	1452	4865
16605610	-11251	288	4084
16605938	-8711	-841	3237
16606266	-6654	-1261	2467
16606594	-4656	-1773	1984
16606922	-3358	-1655	1706
16607250	-2270	-1427	1727
16607578	-1691	-1318	2097
16607906	-2488	-613	2370
16608234	-3673	-223	2492
16608562	-4941	442	2506
16608890	-6564	1365	2264
16609218	-7417	1794	1756
16609546	-7979	2389	1269
16609874	-8005	2596	741
16610202	-8123	3129	199
16610530	-8328	3638	-423
16610858	-8191	3869	-951
16611186	-7911	3946	-1085
16611514	-7654	3633	-1156
16611842	-7311	3234	-1331
16612170	-6959	2844	-1683
16612498	-6094	2457	-2076
16612826	-4794	2161	-2410
16613154	-3066	1824	-2534
16613482	-1903	1786	-2596
16613810	-1399	1819	-2520
16614138	-1770	1924	-2340
16614466	-2574	1986	-1936
16614794	-3451	2126	-1593
16615122	-3969	2109	-1308
16615450	-4326	2169	-1216
16615778	-4634	2288	-1112
16616106	-4621	2194	-1181
16616434	-3983	2121	-1033
16616762	-2682	1856	-931
16617090	-1622	1818	-659
16617418	-875	1856	-716
16617746	-726	2043	-474
16618074	-868	2156	-257
16618402	-1362	2148	74
16618730	-2406	2471	476
16619058	-2916	2447	819
16619386	-2393	1986	1007
16619714	-1220	1471	1113
16620042	367	938	1027
16620370	2220	358	999
16620698	3291	188	1021
16621026	4188	-270	1123
16621354	5029	-983	1253
16621682	5930	-1622	1283
16622010	7072	-2261	1098
16622338	8659	-2855	774
16622666	10270	-3402	290
16622994	11722	-3834	-412
16623322	12692	-3943	-1191
16623650	13099	-3864	-1954
16623978	12805	-4015	-2651
16624306	11829	-4073	-3032
16624634	10613	-3671	-3282
16624962	9476	-3548	-3359
16625290	8489	-3402	-3147
16625618	8857	-2946	-2901
16625946	8767	-1927	-2860
16626274	8120	-575	-3363
16626602	6704	321	-4056
16626930	4173	1769	-4125
16627258	417	2952	-3828
16627586	-3358	2575	-2920
16627914	-5732	676	-1744
16628242	-3891	-373	-1826
16628570	530	-739	-545
16628898	4681	2190	-215
16629226	7374	3107	-1203
16629554	10631	2569	-1917
16629882	11081	1463	-1678
16630210	8973	158	-1458
16630538	6249	-614	-1214
16630866	3990	-1020	-1090
16631194	3506	-655	-1062
16631522	3229	-361	-863
16631850	2950	64	-554
16632178	2310	-75	-299
16632506	1635	-236	-89
16632834	1072	-330	-113
16633162	1900	-671	-210
16633490	2555	-867	-248
16633818	2548	-1046	-295
16634146	2152	-1200	-250
16634474	2084	-1557	-206
16634802	1929	-1882	-121
16635130	1838	-2110	-24
16635458	2049	-2209	109
16635786	2119	-2209	159
16636114	1835	-2524	179
16636442	1364	-2638	171
16636770	1184	-2817	141
16637098	807	-3195	124
16637426	513	-3423	138
16637754	-76	-3698	150
16638082	932	-3788	175
16638410	1267	-3619	131
16638738	1973	-3861	75
16639066	2582	-4005	36
16639394	2482	-3952	-11
16639722	2558	-3710	-1
16640050	2303	-3445	-13
16640378	1756	-3111	104
16640706	512	-2664	274
16641034	-927	-2235	451
16641362	-1466	-2225	691
16641690	-2217	-2352	899
16642018	-2231	-2500	870
16642346	-2152	-3015	759
16642674	-1532	-3122	568
16643002	-298	-3146	227
16643330	1220	-3174	59
16643658	2031	-2442	-56
16643986	2456	-2047	-38
16644314	1356	-1511	92
16644642	-300	-1361	271
16644970	-2151	-1528	473
16645298	-3915	-1951	666
16645626	-5478	-1632	478
16645954	-5190	-1342	194
16646282	-3432	-1618	35
16646610	-2733	-1699	-148
16646938	-2762	-2082	-359
16647266	-3301	-1700	-477
16647594	-3472	-1758	-819
16647922	-2942	-1809	-1168
16648250	-2871	-1679	-1382
16648578	-3092	-2122	-1744
16648906	-3003	-2345	-1930
16649234	-3501	-2591	-1985
16649562	-3148	-3604	-2100
16649890	-2521	-4575	-2228
16650218	-1798	-5346	-2382
16650546	-743	-6265	-2576
16650874	-661	-7177	-2754
16651202	-574	-7471	-3027
16651530	1351	-8259	-3298
16651858	3101	-9139	-3016
16652186	3512	-9780	-2738
16652514	4423	-11110	-2484
16652842	5421	-11821	-1947
16653170	6362	-12428	-1077
16653498	7309	-12819	-107
16653826	8216	-13437	143
16654154	9871	-15187	-250
16654482	12737	-17178	-658
16654810	13133	-17844	-733
16655138	4049	-18829	372
16655466	12423	-13988	-1874
16655794	19658	-17500	-1421
16656122	20318	-19385	430
16656450	25171	-13412	1938
16656778	27155	-7631	3192
16657106	29390	-3410	3174
16657434	27949	84	1964
16657762	21913	2383	-677
16658090	14950	2658	-2722
16658418	7795	3527	-2736
16658746	724	5291	-2536
16659074	-4649	6261	-3566
16659402	-7854	7357	-4911
16659730	-9427	8022	-6027
16660058	-9608	7884	-7366
16660386	-7557	7376	-9236
16660714	-4358	6894	-11495
16661042	-162	5539	-13892
16661370	5129	3071	-16380
16661698	10786	852	-18944
16662026	15676	-1083	-21030
16662354	20211	-4125	-22756
16662682	22265	-5939	-23899
16663010	21251	-5724	-24497
16663338	19046	-5287	-24440
16663666	12227	-5757	-23756
16663994	8114	-6532	-23277
16664322	3922	-6856	-22554
16664650	495	-6789	-21970
16664978	-110	-7684	-21775
16665306	583	-8321	-21563
16665634	-505	-6752	-21347
16665962	870	-5965	-21366
16666290	3437	-7225	-20478
16666618	4813	-8523	-18855
16666946	6005	-8389	-17112
16667274	6407	-7303	-13812
16667602	5904	-5966	-10760
16667930	5263	-4677	-8095
16668258	3519	-2804	-6097
16668586	2034	-1206	-4275
16668914	1810	-944	-2262
16669242	2723	-1062	-676
16669570	3344	-1205	1117
16669898	5106	-1061	2859
16670226	5495	626	5260
16670554	5685	2392	7103
16670882	3032	4600	7727
16671210	-1187	6549	8519
16671538	-3002	7104	9304
16671866	-2802	6281	10039
16672194	-26	5141	9133
16672522	241	5079	7674
16672850	1781	4191	6177
16673178	2971	3325	5127
16673506	3557	2742	4590
16673834	1991	3863	4738
16674162	-748	5236	5588
16674490	-4283	7027	6852
16674818	-7312	7832	7723
16675146	-9128	6993	8462
16675474	-10562	6343	9101
16675802	-10677	5711	8678
16676130	-7658	4222	7817
16676458	-3677	1548	7617
16676786	-121	1408	7474
16677114	3387	1854	6314
16677442	6320	1634	5054
16677770	5216	772	4198
16678098	2549	1693	4053
16678426	382	4844	4654
16678754	-1895	4938	5234
16679082	-2896	3403	4941
16679410	-3624	2859	4037
16679738	-3249	2273	3290
16680066	-2484	2182	3021
16680394	-2034	2395	2956
16680722	-1556	2186	3115
16681050	-309	1859	3331
16681378	413	1657	3229
16681706	392	1577	3267
16682034	-772	2064	3504
16682362	-1688	2169	3776
16682690	-1770	1824	4035
16683018	-2563	1897	4234
16683346	-3467	2440	4471
16683674	-3982	2805	4603
16684002	-4178	2576	4721
16684330	-4691	2776	4755
16684658	-4760	2616	4763
16684986	-4664	2764	4684
16685314	-4627	2509	4653
16685642	-4876	2458	4529
16685970	-4925	2170	4465
16686298	-4522	1694	4454
16686626	-4020	2014	4510
16686954	-4415	2003	4555
16687282	-5624	1830	4566
16687610	-6394	1703	4667
16687938	-7562	2453	4637
16688266	-8003	2958	4520
16688594	-8442	3635	4339
16688922	-9025	4274	4130
16689250	-9830	4664	4115
16689578	-11373	5102	4291
16689906	-12233	5143	4660
16690234	-12651	4914	4929
16690562	-12998	4949	5255
16690890	-13774	4618	5507
16691218	-13247	4129	5652
16691546	-11857	3145	5502
16691874	-11229	1906	5541
16692202	-10701	-90	5524
16692530	-9384	-2076	5417
16692858	-8516	-3789	5189
16693186	-6855	-6052	4384
16693514	-3481	-7909	3557
16693842	-1402	-9040	3061
16694170	3427	-10279	2993
16694498	5962	-10541	3458
16694826	6537	-10844	3869
16695154	6331	-11009	4851
16695482	5097	-11194	5375
16695810	3702	-11511	5606
16696138	3361	-11451	5546
16696466	4364	-11865	5399
16696794	6527	-12264	4757
16697122	6860	-11796	3597
16697450	6805	-10253	2229
16697778	7390	-9007	1063
16698106	10100	-9633	347
16698434	13139	-10453	-27
16698762	15010	-8901	-139
16699090	16773	-6133	-886
16699418	16804	-3900	-2871
16699746	13992	-3100	-5054
16700074	11838	-3484	-6516
16700402	8423	-2156	-6955
16700730	2941	-564	-7250
16701058	-2464	-335	-7867
16701386	-5597	-473	-8793
16701714	-7195	-459	-9817
16702042	-6899	-1330	-11116
16702370	-5577	-2438	-12670
16702698	-5182	-2715	-14570
16703026	-3387	-3131	-16767
16703354	-129	-4083	-18751
16703682	2661	-4287	-20588
16704010	5455	-4756	-22362
16704338	9003	-6221	-23648
16704666	11230	-7414	-24678
16704994	13058	-8006	-25312
16705322	14562	-9500	-25530
16705650	13920	-10502	-25542
16705978	13978	-10373	-25122
16706306	14470	-11242	-24590
16706634	14407	-11457	-23751
16706962	12683	-10601	-23182
16707290	11592	-9890	-22519
16707618	13018	-9939	-21534
16707946	14882	-11003	-19909
16708274	18115	-12123	-17396
16708602	20847	-12931	-14521
16708930	21139	-10775	-11507
16709258	20181	-8113	-8729
16709586	18652	-6878	-6281
16709914	16221	-5523	-3469
16710242	12986	-3850	-1851
16710570	9625	-1989	125
16710898	7666	-382	2138
16711226	5618	1134	3922
16711554	5699	-221	5777
16711882	6361	1933	7913
16712210	4812	3727	8429
16712538	2469	1777	7330
16712866	1899	602	6359
16713194	5110	-2001	6889
16713522	13397	-3365	7556
16713850	12934	4723	9196
16714178	10604	726	9184
16714506	13907	-781	7988
16714834	7987	2259	6535
16715162	4716	-2084	5502
16715490	4093	-836	4040
16715818	6432	-3490	4162
16716146	6407	-3582	4214
16716474	6869	-1768	4716
16716802	6829	-1329	4841
16717130	7135	338	4724
16717458	5288	1884	3993
16717786	2992	2119	2937
16718114	1287	2399	2865
16718442	-754	1166	2864
16718770	-406	1033	2488
16719098	-233	961	1984
16719426	-156	804	1594
16719754	693	630	1321
16720082	1210	542	787
16720410	1302	311	283
16720738	955	539	-132
16721066	81	676	-568
16721394	-1137	878	-901
16721722	-1745	1153	-1131
16722050	-1829	1222	-1294
16722378	-1658	980	-1396
16722706	-1234	817	-1749
16723034	-767	680	-1909
16723362	-223	633	-2024
16723690	128	620	-2045
16724018	292	655	-2077
16724346	347	600	-2105
16724674	-22	443	-2010
16725002	-1228	292	-1543
16725330	-1213	153	-1338
16725658	-832	-15	-1149
16725986	-600	43	-1056
16726314	5	-164	-1063
16726642	566	-415	-982
16726970	1011	-618	-790
16727298	1172	-756	-547
16727626	1183	-616	-302
16727954	1193	-546	-56
16728282	1132	-476	215
16728610	751	-325	443
16728938	638	-325	571
16729266	420	-83	766
16729594	266	150	874
16729922	268	301	948
16730250	549	407	969
16730578	460	567	1003
16730906	347	636	986
16731234	464	618	900
16731562	559	767	861
16731890	301	920	701
16732218	38	1175	500
16732546	104	1116	346
16732874	119	961	235
16733202	-35	752	149
16733530	-116	565	67
16733858	-82	337	-52
16734186	84	92	-161
16734514	573	-333	-237
16734842	677	-614	-339
16735170	688	-910	-432
16735498	939	-1301	-579
16735826	1343	-1540	-764
16736154	1754	-1837	-954
16736482	2173	-2060	-1142
16736810	2614	-2189	-1278
16737138	2874	-2371	-1440
16737466	2998	-2355	-1557
16737794	2733	-2378	-1609
16738122	2503	-2276	-1604
16738450	2067	-2016	-1513
16738778	1726	-1759	-1419
16739106	1505	-1652	-1332
16739434	1166	-1318	-1343
16739762	510	-1065	-1372
16740090	-299	-430	-1377
16740418	-331	118	-1362
16740746	337	102	-1405
16741074	769	222	-1466
16741402	1300	735	-1550
16741730	1972	1116	-1735
16742058	2361	1157	-1774
16742386	2404	1335	-1638
16742714	2356	1839	-1707
16743042	2397	1774	-1867
16743370	1941	1894	-1922
16743698	1270	1664	-1997
16744026	1355	1270	-1951
16744354	1153	1178	-2013
16744682	1496	851	-2007
16745010	2023	631	-1951
16745338	2570	176	-1942
16745666	3117	-141	-1910
16745994	3534	-71	-1829
16746322	4192	-406	-1719
16746650	4838	-948	-1551
16746978	5228	-1344	-1437
16747306	4817	-1485	-1436
16747634	4525	-1429	-1524
16747962	4412	-1540	-1483
16748290	3909	-1151	-1504
16748618	3365	-874	-1408
16748946	2848	-781	-1245
16749274	2046	-677	-982
16749602	1256	-632	-697
16749930	753	-568	-697
16750258	835	-682	-851
16750586	1336	-764	-1033
16750914	1811	-808	-1042
16751242	1928	-763	-1007
16751570	1774	-649	-888
16751898	1218	-496	-780
16752226	677	-634	-661
16752554	491	-677	-680
16752882	484	-906	-683
16753210	664	-1034	-726
16753538	1053	-953	-719
16753866	1630	-1163	-735
16754194	2188	-1584	-828
16754522	2308	-1652	-895
16754850	2299	-1635	-930
16755178	2436	-1737	-876
16755506	2368	-1586	-757
16755834	2329	-1833	-720
16756162	2331	-2045	-760
16756490	2446	-2021	-730
16756818	2681	-1907	-728
16757146	2736	-1949	-670
16757474	2503	-1568	-498
16757802	1924	-1411	-274
16758130	2122	-1872	-107
16758458	1818	-2279	-99
16758786	1529	-2532	-157
16759114	1472	-2610	-208
16759442	1376	-2501	-158
16759770	994	-2375	-48
16760098	515	-2129	19
16760426	346	-2013	27
16760754	269	-2235	30
16761082	93	-2514	97
16761410	-44	-2642	102
16761738	43	-2799	98
16762066	68	-3114	100
16762394	132	-3164	89
16762722	183	-3007	115
16763050	430	-3238	215
16763378	519	-3357	295
16763706	220	-3204	446
16764034	360	-3201	371
16764362	690	-3608	144
16764690	1258	-4498	52
16765018	1553	-4757	-14
16765346	1733	-4725	-166
16765674	2476	-5014	-359
16766002	3513	-5596	-483
16766330	4127	-5588	-525
16766658	4297	-5185	-654
16766986	5082	-5540	-877
16767314	5032	-5543	-759
16767642	3381	-4676	-559
16767970	1905	-4152	-500
16768298	1324	-4233	-337
16768626	1092	-4283	-244
16768954	975	-4275	-489
16769282	1495	-4172	-642
16769610	1816	-3926	-580
16769938	1544	-3491	-533
16770266	1346	-3214	-581
16770594	1086	-3114	-573
16770922	894	-2941	-568
16771250	912	-2876	-589
16771578	1365	-2970	-689
16771906	1537	-3173	-760
16772234	1745	-2948	-888
16772562	2104	-2976	-1047
16772890	2789	-2898	-1122
16773218	3738	-2645	-1166
16773546	3940	-2585	-1085
16773874	3183	-2155	-931
16774202	2719	-1830	-776
16774530	1381	-1575	-645
16774858	465	-1339	-613
16775186	221	-784	-636
16775514	189	-502	-612
16775842	67	-263	-622
16776170	-473	5	-440
16776498	-709	371	-68
16776826	-998	857	-86
16777154	-944	522	-385
266	-341	186	-564
594	-391	294	-593
922	-746	91	-475
1250	-1206	-61	-309
1578	-2108	-139	-316
1906	-2408	-73	-182
2234	-2719	-144	-253
2562	-2331	-556	-330
2890	-1719	-806	-445
3218	-973	-1160	-646
3546	-115	-1443	-853
3874	389	-1804	-996
4202	582	-1776	-1057
4530	630	-1916	-1156
4858	425	-2151	-1221
5186	-44	-2309	-1267
5514	-447	-2419	-1335
5842	-488	-2632	-1450
6170	-775	-3013	-1503
6498	-858	-3259	-1572
6826	-667	-3682	-1801
7154	-323	-4267	-1904
7482	-263	-4969	-2075
7810	1040	-6967	-2198
8138	1741	-7078	-2481
8466	2670	-7422	-2180
8794	3693	-7805	-1862
9122	4234	-8169	-1448
9450	4039	-7905	-701
9778	3322	-7398	102
10106	3057	-7548	758
10434	2044	-7402	990
10762	2221	-7493	771
11090	1711	-7687	468
11418	-4985	-6332	1100
11746	2110	-5126	-878
12074	8243	-9892	191
12402	12906	-9205	2139
12730	16677	-6056	4940
13058	21535	-3869	6195
13386	25695	-2990	6220
13714	27141	-1747	6241
14042	24351	-151	5813
14370	18756	1386	5863
14698	13004	2709	5835
15026	8057	2732	5913
15354	4314	1886	5791
15682	2136	294	5050
16010	2729	-986	3556
16338	4881	-1817	1529
16666	8004	-2929	-1453
16994	12219	-4214	-4592
17322	16325	-5043	-7456
17650	19799	-5265	-9790
17978	22534	-5596	-11688
18306	22908	-5873	-12977
18634	21236	-5926	-13933
18962	18517	-5985	-14456
19290	15117	-5895	-14790
19618	11137	-5391	-15086
19946	7747	-5464	-15126
20274	5450	-5606	-15396
20602	3878	-5616	-15854
20930	3160	-5792	-16525
21258	3194	-5889	-17192
21586	3548	-5620	-17681
21914	3765	-5189	-18058
22242	3730	-4752	-18374
22570	3741	-4213	-18646
22898	4267	-4357	-18835
23226	4211	-4338	-18797
23554	3867	-4058	-18781
23882	4223	-4877	-18625
24210	5086	-5968	-18021
24538	5767	-6161	-17649
24866	6225	-6474	-17410
25194	6775	-7178	-17197
25522	7232	-7570	-16800
25850	8180	-8078	-16813
26178	9636	-8608	-16590
26506	11131	-8405	-16242
26834	12493	-8095	-16048
27162	14069	-7832	-15166
27490	15746	-9311	-14106
27818	16382	-10568	-12920
28146	15426	-9653	-11286
28474	14210	-8859	-10478
28802	12065	-8410	-9352
29130	9911	-7491	-8005
29458	7047	-4896	-6703
29786	4253	-1768	-5104
30114	2293	-976	-3558
30442	1100	-856	-2282
30770	1483	-695	-1202
31098	2203	-703	-407
31426	2807	-651	296
31754	4137	130	910
32082	5587	1168	1417
32410	6574	1524	1969
32738	6886	1137	2474
33066	6829	1058	3672
33394	8758	-3984	4948
33722	8877	-3002	6267
34050	8469	-61	9688
34378	2704	5523	10480
34706	-457	6086	9235
35034	-1824	2650	6401
35362	-792	1954	5133
35690	73	3821	5091
36018	2474	5276	5937
36346	4036	4930	6610
36674	4898	4106	6763
37002	3031	5835	5906
37330	1926	5946	5197
37658	2063	4321	4804
37986	1612	4357	4778
38314	1692	4029	5255
38642	2030	3270	5489
38970	1913	3749	5139
39298	1734	3255	4858
39626	1837	2711	4750
39954	1376	2506	4471
40282	1576	1815	4288
40610	2144	1977	4061
40938	2843	1800	3534
41266	3397	1305	3112
41594	3618	905	3002
41922	3859	497	2909
42250	3787	-58	2756
42578	4258	-289	2617
42906	4331	-349	2478
43234	4251	-301	2538
43562	3731	-166	2638
43890	2738	-248	2617
44218	2252	-493	2542
44546	1718	-940	2335
44874	1740	-1123	2083
45202	2068	-1348	1771
45530	2495	-1578	1362
45858	2963	-1531	978
46186	3248	-1503	644
46514	3262	-1362	405
46842	2786	-994	238
47170	1941	-641	105
47498	1016	-134	-27
47826	-60	320	-180
48154	-719	1031	-253
48482	-1468	1008	-303
48810	-1539	173	-441
49138	-919	-398	-549
49466	-541	-993	-627
49794	227	-1231	-917
50122	1143	-981	-1150
50450	1928	-739	-1429
50778	2174	-811	-1646
51106	1571	-1010	-1786
51434	790	-1629	-1856
51762	241	-1938	-1850
52090	-44	-1925	-1876
52418	147	-1994	-1899
52746	356	-1995	-1965
53074	625	-1967	-2057
53402	688	-2072	-2193
53730	336	-2336	-2480
54058	57	-2501	-2727
54386	-398	-2738	-2968
54714	-290	-2565	-3151
55042	67	-2835	-3297
55370	-22	-2905	-3476
55698	-199	-3147	-3741
56026	-210	-3592	-4059
56354	209	-3764	-4368
56682	461	-3631	-4612
57010	795	-3807	-4786
57338	1394	-3745	-4826
57666	662	-3924	-5036
57994	637	-3936	-5303
58322	171	-3948	-5870
58650	-96	-4166	-6455
58978	-219	-3961	-7128
59306	177	-4565	-7338
59634	-1035	-4063	-7775
59962	-1375	-3714	-7883
60290	-3251	-3246	-8095
60618	-5789	-3324	-7973
60946	-8909	-1924	-7535
61274	-12613	-251	-7426
61602	-17567	1664	-7332
61930	-21340	4876	-6899
62258	-24609	6493	-7060
62586	-26940	4903	-5028
62914	-25020	2933	-1683
63242	-17430	1883	1766
63570	-10477	2734	3126
63898	-5487	2664	4582
64226	-3655	4299	6652
64554	-7385	7439	8494
64882	-10605	9953	9465
65210	-11121	7193	10353
65538	-11065	3878	11351
65866	-11024	2027	11748
66194	-8802	-555	11714
66522	-4696	-3312	11590
66850	-505	-4991	11574
67178	2584	-5684	11568
67506	4313	-4855	11354
67834	3289	-4197	11051
68162	1460	-3034	10616
68490	-798	-1889	10072
68818	-2863	-1789	9643
69146	-4535	-1927	9290
69474	-5798	-1655	8760
69802	-6808	-1527	8082
70130	-7723	-944	7231
70458	-8281	-705	6194
70786	-8171	-589	5247
71114	-7781	275	4305
71442	-7433	656	3308
71770	-6959	296	2363
72098	-6350	-58	1528
72426	-6330	126	792
72754	-6665	363	141
73082	-6585	503	-412
73410	-6375	244	-1023
73738	-6596	311	-1498
74066	-6548	504	-1878
74394	-6147	15	-2208
74722	-6306	-259	-2386
75050	-6073	-150	-2716
75378	-6161	246	-3003
75706	-6103	901	-3331
76034	-5874	763	-3724
76362	-4944	-520	-3969
76690	-4172	-1438	-4037
77018	-3492	-1833	-4014
77346	-3519	-2689	-3947
77674	-3636	-3250	-3892
78002	-3616	-2867	-3775
78330	-4054	-2119	-3749
78658	-4284	-1761	-3494
78986	-4196	-1739	-3391
79314	-3274	-1419	-3085
79642	-2501	-179	-2755
79970	-1823	-597	-1915
80298	-1753	-764	-941
80626	-2606	-553	135
80954	-4012	-338	1056
81282	-5100	792	1830
81610	-4945	1281	2701
81938	-4078	1655	3683
82266	-2416	660	4800
82594	2311	-1341	6089
82922	4759	-2423	7470
83250	6022	-2735	7732
83578	5026	2586	5711
83906	2827	5108	4709
84234	-2444	3053	5131
84562	-6433	6387	4821
84890	-8240	8640	5025
85218	-8608	6713	5496
85546	-8642	8002	6784
85874	-10403	8768	6648
86202	-11626	8626	5976
86530	-11537	8190	5442
86858	-9655	8190	5330
87186	-6911	8704	5429
87514	-4390	8124	4966
87842	-2532	7515	4149
88170	-1928	7087	3536
88498	-2293	6528	3331
88826	-2731	5619	3844
89154	-1473	4450	4566
89482	261	2756	5120
89810	942	1961	5358
90138	896	1454	4732
90466	94	1865	4049
90794	-1179	3478	3607
91122	-2115	4713	3553
91450	-2235	4291	3561
91778	-2256	3809	3484
92106	-2213	3512	3511
92434	-2568	3263	3826
92762	-2555	2794	4243
93090	-2373	3105	4604
93418	-2605	3650	4701
93746	-2724	4212	4402
94074	-2905	4712	4170
94402	-3609	5055	4191
94730	-4443	5251	4284
95058	-5272	5111	4614
95386	-5198	4436	5079
95714	-4114	3874	5161
96042	-2734	3200	5097
96370	-1424	2180	5088
96698	368	1915	5064
97026	2671	1640	5131
97354	5643	575	4785
97682	6513	1385	4284
98010	6979	1823	4050
98338	6316	1757	4119
98666	4836	1806	4416
98994	3161	1834	4666
99322	2428	1155	4687
99650	2570	498	4308
99978	3072	188	4009
100306	3449	303	3801
100634	4099	31	3453
100962	4685	-469	3093
101290	4690	-549	2882
101618	4539	-496	2701
101946	4634	-525	2418
102274	4474	-376	2215
102602	4060	9	2118
102930	3720	82	2125
103258	2367	264	2325
103586	1354	1311	2539
103914	685	1281	2653
104242	312	2075	2676
104570	-297	2636	2658
104898	-700	2786	2637
105226	-805	3239	2666
105554	-859	3659	2664
105882	-713	3840	2465
106210	10	4196	2245
106538	393	4569	2183
106866	-100	4903	2106
107194	-733	5312	2142
107522	-2024	5565	2296
107850	-3015	5756	2406
108178	-3297	5999	2402
108506	-4498	6371	2546
108834	-5428	6573	2704
109162	-5503	6742	2742
109490	-5468	8133	2789
109818	-6746	10551	2013
110146	-7700	12054	2161
110474	-10107	13701	2064
110802	-13459	14648	2226
111130	-16837	15550	2270
111458	-18504	15918	2308
111786	-19797	16283	2528
112114	-19886	16258	2709
112442	-18781	15962	2598
112770	-17670	15676	2328
113098	-16693	15466	2086
113426	-15561	15025	1835
113754	-15085	14587	1556
114082	-14993	14136	1434
114410	-15610	13712	1449
114738	-16000	13186	1518
115066	-16086	12596	1595
115394	-16667	11915	1616
115722	-16456	11247	1661
116050	-15892	10484	1529
116378	-15805	9637	1305
116706	-15028	8858	1168
117034	-14226	8083	1062
117362	-14019	7127	993
117690	-13960	6385	1009
118018	-13691	5626	909
118346	-12917	4484	598
118674	-11878	3797	400
119002	-10948	3112	114
119330	-10134	2591	-204
119658	-10100	2157	-517
119986	-10387	2054	-793
120314	-10356	2036	-1223
120642	-10109	2034	-1849
120970	-10197	1992	-2345
121298	-10492	1615	-2700
121626	-10643	1077	-2822
121954	-10376	679	-3070
122282	-9520	256	-3443
122610	-8831	471	-4146
122938	-7319	638	-4694
123266	-6117	962	-4988
123594	-5822	1041	-5092
123922	-6164	1287	-4807
124250	-6700	1212	-4554
124578	-7624	1173	-4454
124906	-8376	1442	-4274
125234	-8490	1286	-4056
125562	-8965	745	-3829
125890	-9697	340	-3498
126218	-10259	270	-3173
126546	-10736	274	-2865
126874	-10251	543	-3028
127202	-8384	1192	-3371
127530	-5386	1017	-3778
127858	-2609	443	-4071
128186	-1318	811	-4016
128514	-1559	1403	-3767
128842	-2713	1277	-3452
129170	-3416	558	-3032
129498	-3676	-409	-2795
129826	-2852	-1216	-2701
130154	-1437	-2040	-2627
130482	-461	-2202	-2637
130810	723	-1724	-2707
131138	1675	-975	-2639
131466	1763	-772	-2395
131794	1443	-742	-1970
132122	1130	-735	-1751
132450	679	-1046	-1479
132778	75	-1302	-1390
133106	134	-1882	-1222
133434	430	-2126	-1226
133762	550	-1954	-830
134090	627	-1662	-932
134418	1162	-1300	-670
134746	1612	-1037	-600
135074	1697	-886	-477
135402	1562	-655	-270
135730	1592	-179	-98
136058	1447	71	131
136386	1189	-49	375
136714	1302	-696	779
137042	2225	-1364	1361
137370	2662	-1116	2014
137698	2666	-737	2502
138026	3774	-486	2712
138354	4829	-473	2489
138682	6163	-1001	2167
139010	6856	-913	2010
139338	5727	-152	2023
139666	3860	653	2156
139994	2018	492	2342
140322	1120	171	2792
140650	1242	-116	3179
140978	1985	-454	3273
141306	2964	-558	3227
141634	3748	-357	3122
141962	4095	-70	3067
142290	4367	50	3037
142618	4093	9	3137
142946	3710	-206	3393
143274	2781	617	3818
143602	2191	1262	3997
143930	1407	1776	4063
144258	1315	1779	3895
144586	1209	1967	3968
144914	782	2337	3981
145242	1174	2244	3901
145570	1710	2040	3882
145898	1405	2267	3962
146226	915	2801	4004
146554	1427	2740	4002
146882	1635	2788	4051
147210	786	3538	4007
147538	-1232	3060	4125
147866	-1798	3561	4394
148194	-2324	3890	4398
148522	-2246	4394	4545
148850	-2196	4662	4350
149178	-1200	4882	4330
149506	524	4811	4017
149834	2359	4172	3471
150162	4016	3793	3005
150490	5497	3613	2649
150818	7364	2940	2107
151146	8869	2153	1492
151474	10305	1835	869
151802	11228	1125	304
152130	11678	796	-74
152458	12756	478	-403
152786	14551	-255	-875
153114	14793	-245	-1225
153442	13081	618	-1502
153770	11527	881	-1482
154098	9273	1296	-1101
154426	6932	1426	-564
154754	4382	1514	-195
155082	2556	1798	120
155410	2040	1597	99
155738	2537	1389	135
156066	3327	1312	278
156394	4671	707	-48
156722	5434	170	-247
157050	5081	-394	-533
157378	4501	-376	-532
157706	4143	-580	-527
158034	4099	-839	-725
158362	4010	-905	-791
158690	3728	-855	-880
159018	3704	-898	-877
159346	4577	-1109	-824
159674	5215	-1399	-796
160002	5512	-1851	-793
160330	5426	-2163	-836
160658	5399	-2818	-929
160986	5812	-3524	-948
161314	6170	-4186	-1027
161642	6788	-5096	-1038
161970	7561	-5831	-1121
162298	7710	-6465	-1195
162626	7917	-6959	-1307
162954	8500	-7699	-1528
163282	9653	-8243	-1344
163610	9857	-8811	-1189
163938	10401	-9492	-1220
164266	11330	-10286	-1373
164594	12065	-10987	-1400
164922	12871	-11436	-1368
165250	13772	-11848	-1318
165578	14188	-11819	-1318
165906	14669	-11677	-1404
166234	14604	-11501	-1514
166562	14257	-11081	-1504
166890	13784	-10913	-1519
167218	12949	-10653	-1559
167546	11819	-10317	-1514
167874	11148	-10190	-1407
168202	10841	-10118	-1304
168530	10569	-10103	-1166
168858	10597	-10276	-1180
169186	10890	-10513	-1344
169514	11339	-10732	-1456
169842	11645	-10980	-1555
170170	12147	-11131	-1625
170498	12648	-11248	-1717
170826	12893	-11323	-1739
171154	12796	-11123	-1614
171482	12404	-11177	-1494
171810	11818	-10970	-1429
172138	11279	-10804	-1372
172466	10765	-10463	-1443
172794	10475	-10320	-1578
173122	9890	-10102	-1822
173450	9818	-9706	-1912
173778	8704	-9312	-1834
174106	7551	-9378	-1583
174434	7176	-8888	-1479
174762	6672	-8466	-1369
175090	6043	-8065	-1260
175418	5537	-7766	-1290
175746	5223	-7641	-1367
176074	4704	-7460	-1435
176402	4234	-7346	-1550
176730	4071	-7317	-1664
177058	3882	-7116	-1878
177386	3764	-6757	-2020
177714	3825	-6105	-2097
178042	3957	-5481	-2134
178370	3613	-4746	-2088
178698	2937	-3978	-2019
179026	2289	-3256	-2009
179354	1427	-2788	-1914
179682	478	-2523	-1621
180010	-631	-2056	-1359
180338	-1638	-1438	-1218
180666	-2438	-1085	-1062
180994	-3316	-567	-852
181322	-3963	-31	-848
181650	-4527	344	-1074
181978	-5044	1053	-1390
182306	-3905	1174	-1812
182634	-978	499	-2418
182962	2590	-34	-2991
183290	6245	-36	-3552
183618	9094	-100	-4049
183946	10496	47	-4465
184274	10460	603	-4467
184602	9276	1069	-4415
184930	7548	1319	-4060
185258	5818	947	-3512
185586	3627	1608	-3315
185914	1222	2247	-3300
186242	-357	2465	-3261
186570	-1172	2791	-3225
186898	-1555	2998	-3207
187226	-887	2872	-3227
187554	1971	1586	-3497
187882	2703	1627	-3662
188210	3975	1245	-3600
188538	3887	1636	-3404
188866	3802	1414	-3226
189194	4547	533	-2777
189522	4538	243	-2260
189850	3879	-87	-1961
190178	1959	56	-1438
190506	-446	565	-1086
190834	-3410	1032	-604
191162	-5346	899	-112
191490	-5761	190	169
191818	-5422	-223	126
192146	-3248	-1370	55
192474	-938	-2569	-188
192802	1571	-3061	-1067
193130	4487	-3209	-1721
193458	6493	-2862	-2086
193786	7405	-2314	-2279
194114	6850	-1730	-2258
194442	5026	-508	-2079
194770	2679	536	-1653
195098	456	842	-1140
195426	-1502	617	-717
195754	-2914	454	-516
196082	-3098	432	-724
196410	-2472	-67	-972
196738	-1432	-50	-1034
197066	-414	437	-1253
197394	322	397	-1405
197722	310	409	-1296
198050	-241	847	-1258
198378	-877	743	-1112
198706	-1390	591	-1014
199034	-1847	668	-884
199362	-1883	600	-847
199690	-1925	287	-929
200018	-1787	236	-939
200346	-1621	439	-898
200674	-1438	216	-920
201002	-1093	25	-782
201330	-1201	82	-718
201658	-1061	143	-492
201986	-804	190	-388
202314	-383	67	-221
202642	78	-119	-103
202970	666	-106	-29
203298	1243	-63	62
203626	1752	-253	175
203954	1964	-320	276
204282	2009	-241	372
204610	1903	-136	487
204938	1642	61	594
205266	1227	89	677
205594	727	59	705
205922	442	48	711
206250	72	161	657
206578	-297	85	616
206906	-542	-3	598
207234	-672	220	503
207562	-757	169	437
207890	-862	161	399
208218	-858	182	341
208546	-908	87	284
208874	-918	48	203
209202	-832	55	223
209530	-869	41	134
209858	-659	-104	1
210186	-495	-124	-47
210514	-323	-208	-110
210842	-98	-222	-232
211170	24	-236	-266
211498	-16	-251	-297
211826	-73	-308	-327
212154	-195	-286	-435
212482	-432	-274	-451
212810	-640	-209	-489
213138	-811	-178	-502
213466	-883	-169	-497
213794	-1016	-86	-557
214122	-1095	-48	-566
214450	-1149	-118	-638
214778	-1157	-43	-606
215106	-1131	-6	-687
215434	-1033	-165	-714
215762	-951	-193	-736
216090	-886	-109	-810
216418	-780	-224	-865
216746	-588	-355	-852
217074	-226	-368	-1092
217402	-86	-498	-1151
217730	53	-558	-1184
218058	100	-446	-1204
218386	82	-423	-1179
218714	79	-503	-1163
219042	52	-426	-1175
219370	97	-360	-1214
219698	16	-447	-1181
220026	7	-497	-1164
220354	166	-441	-1136
220682	119	-456	-1153
221010	49	-487	-1118
221338	258	-416	-1131
221666	169	-335	-1161
221994	10	-335	-1172
222322	-70	-176	-1145
222650	-229	-14	-1149
222978	-359	-48	-1153
223306	-318	-98	-1141
223634	-193	44	-1193
223962	-45	130	-1270
224290	426	-161	-1379
224618	977	-433	-1478
224946	1380	-375	-1542
225274	1148	-139	-1572
225602	759	-146	-1514
225930	349	-208	-1398
226258	40	-151	-1241
226586	-251	-78	-1179
226914	-465	-235	-1182
227242	-335	-479	-1211
227570	-115	-524	-1241
227898	191	-561	-1239
228226	619	-548	-1256
228554	777	-481	-1297
228882	701	-460	-1294
229210	403	-206	-1191
229538	-16	231	-1067
229866	-508	490	-954
230194	-1037	672	-833
230522	-1323	844	-725
230850	-1458	825	-662
231178	-1492	598	-623
231506	-1219	260	-591
231834	-842	20	-567
232162	-420	-112	-551
232490	-78	-240	-507
232818	183	-309	-432
233146	287	-292	-312
233474	161	-195	-206
233802	-139	-28	-89
234130	-443	122	-41
234458	-818	289	58
234786	-895	417	135
235114	-774	486	168
235442	-760	405	179
235770	-667	355	234
236098	-425	381	271
236426	-186	336	288
236754	10	181	263
237082	136	23	261
237410	389	56	302
237738	385	132	329
238066	316	44	385
238394	234	135	460
238722	107	290	480
239050	-107	339	475
239378	-210	423	505
239706	-233	555	515
240034	-356	564	566
240362	-323	502	626
240690	-599	791	659
241018	-827	861	716
241346	-777	573	841
241674	-686	584	905
242002	-705	850	947
242330	-371	713	1044
242658	100	483	1123
242986	126	542	1187
243314	113	692	1217
243642	203	757	1284
243970	216	657	1367
244298	147	712	1518
244626	-213	973	1646
244954	-473	1110	1713
245282	-712	1123	1759
245610	-914	1259	1786
245938	-961	1214	1829
246266	-780	1122	1861
246594	-287	785	1746
246922	31	557	1664
247250	308	456	1574
247578	490	475	1511
247906	538	440	1416
248234	453	510	1339
248562	357	717	1279
248890	239	768	1226
249218	186	724	1180
249546	215	626	1094
249874	149	606	980
250202	213	427	921
250530	208	332	878
250858	252	556	886
251186	239	234	891
251514	-23	147	963
251842	-87	424	1008
252170	-107	471	953
252498	-36	373	874
252826	95	186	860
253154	237	244	881
253482	224	420	900
253810	136	444	900
254138	115	460	876
254466	8	486	835
254794	-23	429	812
255122	-153	301	802
255450	-173	504	815
255778	-253	566	867
256106	-391	543	871
256434	-371	434	900
256762	-395	387	915
257090	-336	427	881
257418	-269	559	911
257746	-112	519	962
258074	26	450	954
258402	106	520	965
258730	112	536	975
259058	136	564	1029
259386	93	633	1075
259714	55	602	1114
260042	34	611	1181
260370	-23	615	1235
260698	10	440	1300
261026	132	483	1291
261354	277	584	1243
261682	324	397	1193
262010	342	447	1191
262338	237	537	1210
262666	153	482	1220
262994	-26	405	1126
263322	-249	499	1044
263650	-348	304	985
263978	-473	257	868
264306	-260	662	981
264634	-76	619	998
264962	609	371	929
265290	738	337	858
265618	548	233	730
265946	301	92	662
266274	-386	-160	599
266602	-556	-68	667
266930	-575	169	683
267258	-470	81	603
267586	-288	151	574
267914	-17	185	510
268242	351	191	374
268570	483	134	227
268898	552	225	210
269226	408	264	280
269554	-28	381	351
269882	-807	615	438
270210	-1576	724	543
270538	-2228	923	648
270866	-2703	1071	744
271194	-2819	1143	854
271522	-2753	1170	851
271850	-2305	955	876
272178	-1908	937	863
272506	-1634	934	849
272834	-1306	804	829
273162	-1105	840	807
273490	-969	888	822
273818	-956	986	890
274146	-930	930	999
274474	-833	987	1085
274802	-721	933	1173
275130	-721	916	1351
275458	-618	983	1501
275786	-460	946	1595
276114	-160	957	1644
276442	339	848	1751
276770	959	619	1813
277098	2266	254	2011
277426	2806	323	2162
277754	3073	328	2417
278082	2899	305	2781
278410	2720	297	3131
278738	2104	977	3411
279066	1555	1143	3613
279394	1134	1166	3880
279722	457	1189	4018
280050	-153	1304	4096
280378	-480	1171	4141
280706	-205	991	4100
281034	294	662	4092
281362	1031	270	4267
281690	1941	-53	4326
282018	3253	-354	4236
282346	3228	-83	4236
282674	3187	-435	4377
283002	2667	-457	4663
283330	2361	-220	4793
283658	2552	-407	4685
283986	2268	-476	4403
284314	1878	-310	4060
284642	2312	-503	3262
284970	3176	-806	2547
285298	2394	-841	2172
285626	819	-408	1928
285954	2546	-478	1679
286282	2760	202	1307
286610	1140	1469	578
286938	-1634	2875	-1666
287266	-4255	3567	-5032
287594	-7272	1111	-5048
287922	-6686	-362	-2059
288250	-4796	671	-3370
288578	-4510	-37	-5586
288906	-3885	-120	-7779
289234	-3046	-764	-9662
289562	-2978	-2148	-10121
289890	-3661	-4422	-10275
290218	-4752	-6119	-10224
290546	-6985	-5452	-10281
290874	-11227	-2043	-11036
291202	-12593	1024	-11521
291530	-11677	1378	-13508
291858	-13533	3530	-16060
292186	-14380	7731	-15908
292514	-6949	2441	-10329
292842	2606	-4494	-1660
293170	4668	-2692	3297
293498	-1920	1288	5489
293826	-8361	4669	4944
294154	-10286	5368	4479
294482	-7617	3554	4238
294810	-3107	1204	3861
295138	1912	-1785	3090
295466	5722	-3577	1729
295794	8679	-3398	199
296122	12234	-3355	-1238
296450	15168	-4256	-2380
296778	16637	-4778	-3318
297106	16583	-4920	-3964
297434	15753	-4842	-4230
297762	14472	-4538	-4109
298090	12775	-4666	-3647
298418	10315	-4489	-2944
298746	7477	-3358	-2132
299074	5505	-1652	-1304
299402	3518	54	-665
299730	827	303	-201
300058	-1183	988	253
300386	-3547	1648	1046
300714	-5616	1769	2188
301042	-5457	1303	3248
301370	-4736	1679	4478
301698	-4280	2511	5241
302026	-3601	3070	5728
302354	-5533	4095	6364
302682	-12152	154	7708
303010	-6250	-21349	11207
303338	6489	1839	18073
303666	-11486	21602	16906
303994	6204	-1620	15673
304322	-5214	878	-3038
304650	13559	14683	6765
304978	7390	-549	4428
305306	8242	-652	5844
305634	9660	592	2723
305962	-641	3750	-4234
306290	-2906	-10590	9337
306618	8213	-3512	10245
306946	11122	4417	4344
307274	9300	-598	1396
307602	4886	-2312	-1618
307930	-586	-879	-881
308258	-2370	-42	-554
308586	-3145	546	-1045
308914	-3298	749	-1802
309242	-4204	898	-2277
309570	-5275	785	-2884
309898	-5936	570	-3341
310226	-5261	264	-3999
310554	-4035	-254	-4891
310882	-2632	-744	-5454
311210	-1203	-1101	-5693
311538	141	-1484	-5970
311866	1256	-1593	-6235
312194	1566	-1626	-6120
312522	1825	-1821	-5915
312850	2246	-1658	-5851
313178	2190	-1585	-5580
313506	1611	-1673	-5303
313834	1625	-1317	-4963
314162	1362	-702	-4741
314490	512	-545	-4216
314818	321	-259	-3607
315146	552	31	-3003
315474	188	33	-2390
315802	56	-101	-1878
316130	242	-113	-1426
316458	217	-52	-969
316786	572	-15	-601
317114	934	-255	-244
317442	643	-229	106
317770	-525	148	364
318098	-1469	709	398
318426	-1230	880	223
318754	-688	453	-48
319082	-116	-83	-357
319410	500	-40	-598
319738	873	87	-870
320066	671	31	-1108
320394	307	47	-1192
320722	-30	83	-1221
321050	-681	98	-1286
321378	-1348	140	-1324
321706	-1799	163	-1430
322034	-1910	371	-1262
322362	-2399	418	-1311
322690	-2298	400	-1303
323018	-2184	399	-1258
323346	-1177	160	-1308
323674	-382	-33	-1301
324002	167	-249	-1117
324330	707	-475	-1125
324658	1405	-559	-1054
324986	1787	-623	-1060
325314	1983	-593	-847
325642	1742	-676	-792
325970	1681	-679	-704
326298	1430	-540	-628
326626	949	-501	-641
326954	656	-247	-718
327282	597	-83	-808
327610	430	-88	-781
327938	196	136	-645
328266	-31	226	-727
328594	-194	-74	-729
328922	-440	-1	-562
329250	-663	144	-601
329578	-563	4	-554
329906	-631	-350	-380
330234	-845	-317	-307
330562	-1059	-134	-276
330890	-910	-46	-242
331218	-796	-18	-344
331546	-605	-46	-365
331874	-378	-214	-350
332202	32	-212	-323
332530	476	-307	-307
332858	398	-429	-304
333186	159	-379	-172
333514	18	-377	-68
333842	-157	-402	48
334170	-370	-412	108
334498	-686	-367	127
334826	-874	-402	173
335154	-896	-353	223
335482	-1020	-176	258
335810	-1196	-114	322
336138	-1311	-169	409
336466	-1185	-205	518
336794	-1192	-229	545
337122	-1173	-450	547
337450	-934	-594	542
337778	-749	-521	543
338106	-649	-421	543
338434	-625	-287	762
338762	-851	-341	965
339090	-1092	-274	1104
339418	-1286	-355	1155
339746	-1518	-567	1196
340074	-1591	-680	1237
340402	-1514	-686	1317
340730	-1420	-685	1355
341058	-1397	-806	1375
341386	-1384	-905	1346
341714	-1301	-861	1258
342042	-1276	-862	1101
342370	-1341	-893	920
342698	-1500	-838	758
343026	-1689	-813	663
343354	-2000	-772	614
343682	-2117	-635	565
344010	-2160	-721	488
344338	-2367	-827	249
344666	-2599	-807	63
344994	-2701	-651	-80
345322	-2720	-491	-198
345650	-2577	-476	-219
345978	-2589	-366	-316
346306	-2667	-288	-285
346634	-2798	-341	-297
346962	-2936	-331	-363
347290	-2987	-205	-288
347618	-3168	-97	-352
347946	-3121	-96	-291
348274	-2938	68	-317
348602	-2821	75	-346
348930	-2670	55	-409
349258	-2607	278	-385
349586	-2813	393	-278
349914	-2952	456	-179
350242	-3204	745	58
350570	-3614	976	277
350898	-4027	1081	487
351226	-4520	1131	723
351554	-5012	1257	938
351882	-5688	1379	1173
352210	-6479	1674	1404
352538	-7560	1987	1666
352866	-8503	2329	1922
353194	-9476	2805	2098
353522	-10115	2955	2189
353850	-10351	3015	2260
354178	-10385	2827	2291
354506	-10174	2013	2391
354834	-10217	2193	2349
355162	-10536	3185	2136
355490	-10159	3140	1852
355818	-9045	2587	1561
356146	-7437	2062	1327
356474	-5628	1722	1069
356802	-3895	1190	735
357130	-2327	466	415
357458	-1182	39	131
357786	-602	-68	-93
358114	-376	-155	-228
358442	-521	-109	-288
358770	-891	-66	-269
359098	-1357	-215	-172
359426	-1729	-342	-42
359754	-2000	-507	36
360082	-2010	-394	89
360410	-1737	-199	72
360738	-1304	-359	109
361066	-799	-509	173
361394	-488	-530	270
361722	-491	-380	392
362050	-384	-194	494
362378	-19	-94	581
362706	406	-54	704
363034	743	27	836
363362	1048	49	994
363690	1279	39	1141
364018	1294	221	1254
364346	973	432	1314
364674	384	579	1206
365002	384	452	760
365330	486	776	83
365658	308	1254	-662
365986	-367	1288	-1430
366314	-1054	1227	-1982
366642	-2241	1451	-2399
366970	-3927	2218	-2706
367298	-4341	1962	-2361
367626	-3161	710	-1554
367954	-617	-209	-589
368282	1260	-79	-50
368610	1818	640	-215
368938	1876	-121	-647
369266	1962	-810	-600
369594	1788	-430	-356
369922	1346	456	-148
370250	1195	631	28
370578	1170	378	60
370906	1228	347	195
371234	984	733	-96
371562	855	960	-45
371890	610	1088	75
372218	207	1191	114
372546	-188	1155	181
372874	-409	1052	320
373202	-472	979	241
373530	-468	965	232
373858	-319	858	232
374186	-84	704	179
374514	157	631	90
374842	392	568	35
375170	732	515	39
375498	1012	518	-28
375826	1158	501	-142
376154	1305	561	-179
376482	1413	556	-208
376810	1390	596	-217
377138	1352	619	-239
377466	1327	587	-254
377794	1305	565	-245
378122	1128	637	-269
378450	1090	661	-218
378778	792	686	-86
379106	662	591	-137
379434	627	620	-83
379762	461	641	-58
380090	367	651	-47
380418	311	692	-134
380746	333	626	-136
381074	352	553	-132
381402	429	466	-170
381730	684	358	-188
382058	803	312	-107
382386	959	279	-157
382714	1085	233	-194
383042	1149	142	-155
383370	1139	88	-113
383698	1111	49	-68
384026	1026	33	-6
384354	930	9	67
384682	891	17	97
385010	781	12	137
385338	649	126	283
385666	277	169	292
385994	194	190	330
386322	122	184	377
386650	-142	309	383
386978	-222	293	379
387306	-338	269	382
387634	-456	262	366
387962	-527	233	369
388290	-495	164	371
388618	-485	100	356
388946	-380	82	294
389274	-232	85	250
389602	-132	80	211
389930	-48	66	199
390258	-56	105	158
390586	-90	158	127
390914	-153	217	100
391242	-192	223	87
391570	-236	250	66
391898	-203	247	63
392226	-179	243	29
392554	-109	231	14
392882	-92	243	0
393210	-86	246	2
393538	-88	227	-3
393866	-64	227	15
394194	-45	197	7
394522	45	150	22
394850	116	119	24
395178	174	57	39
395506	280	19	47
395834	345	45	65
396162	385	31	104
396490	437	14	106
396818	501	46	122
397146	566	22	122
397474	650	-16	118
397802	644	17	136
398130	632	11	150
398458	681	-42	152
398786	677	-60	151
399114	658	-30	102
399442	602	-16	84
399770	606	-4	64
400098	423	25	51
400426	103	84	28
400754	-48	99	6
401082	-207	155	-12
401410	-371	189	-38
401738	-450	212	-71
402066	-542	290	-109
402394	-577	285	-141
402722	-624	287	-167
403050	-662	348	-202
403378	-663	375	-223
403706	-662	386	-189
404034	-662	438	-212
404362	-634	449	-185
404690	-600	447	-240
405018	-527	451	-261
405346	-449	428	-248
405674	-389	399	-319
406002	-313	385	-291
406330	-262	354	-290
406658	-254	319	-285
406986	-234	334	-308
407314	-255	331	-301
407642	-229	277	-282
407970	-243	294	-277
408298	-282	307	-271
408626	-329	313	-250
408954	-440	309	-220
409282	-482	286	-199
