Time Stamp	Gyroscope X	Gyroscope Y	Gyroscope Z
RAW	RAW	RAW	RAW
no units	no units	no units	no units
11305336	-69	126	-12
11305664	-46	79	-17
11305992	-45	133	-9
11306320	-45	118	-23
11306648	-62	104	-20
11306976	-56	132	-1
11307304	-44	109	-10
11307632	-41	135	-8
11307960	-26	142	-11
11308288	-7	118	-12
11308616	-16	139	-6
11308944	-33	155	-3
11309272	-35	138	5
11309600	-34	123	2
11309928	-39	143	0
11310256	-46	118	-3
11310584	-32	136	-3
11310912	-7	132	-7
11311240	-9	122	-24
11311568	7	158	-9
11311896	10	152	-8
11312224	-29	133	-7
11312552	-12	146	-12
11312880	-30	136	-4
11313208	-39	152	-11
11313536	-34	133	-8
11313864	-55	151	-15
11314192	-31	123	-20
11314520	-31	130	-14
11314848	-29	146	-14
11315176	-35	146	-16
11315504	-19	147	-13
11315832	-18	141	-24
11316160	-6	145	-18
11316488	-11	130	-23
11316816	-10	143	-21
11317144	-13	152	-12
11317472	-12	149	-16
11317800	8	154	-25
11318128	1	150	-22
11318456	-2	144	-31
11318784	-16	148	-31
11319112	1	144	-30
11319440	-17	133	-25
11319768	-45	138	-31
11320096	-39	147	-25
11320424	-41	134	-33
11320752	-49	163	-29
11321080	-44	133	-26
11321408	-42	93	-31
11321736	-30	134	-37
11322064	-47	133	-29
11322392	-49	100	-31
11322720	-60	117	-41
11323048	-65	137	-25
11323376	-59	123	-46
11323704	-63	116	-44
11324032	-53	125	-47
11324360	-66	164	-41
11324688	-40	136	-43
11325016	-41	137	-45
11325344	-31	156	-51
11325672	-35	131	-38
11326000	-35	147	-43
11326328	-33	147	-35
11326656	-33	143	-31
11326984	-33	145	-39
11327312	-56	148	-33
11327640	-47	136	-33
11327968	-38	137	-38
11328296	-33	138	-36
11328624	-32	160	-48
11328952	-32	129	-38
11329280	-55	134	-39
11329608	-54	137	-38
11329936	-57	150	-36
11330264	-59	150	-35
11330592	-62	120	-34
11330920	-53	133	-47
11331248	-43	130	-42
11331576	-33	124	-52
11331904	-28	118	-42
11332232	-42	127	-33
11332560	-41	137	-33
11332888	-56	132	-35
11333216	-37	130	-39
11333544	-62	137	-32
11333872	-62	130	-39
11334200	-54	145	-34
11334528	-61	139	-32
11334856	-70	147	-30
11335184	-74	140	-31
11335512	-59	170	-26
11335840	-55	143	-26
11336168	-41	141	-26
11336496	-66	163	-30
11336824	-63	157	-25
11337152	-65	141	-33
11337480	-62	155	-25
11337808	-54	149	-42
11338136	-56	117	-47
11338464	-37	142	-48
11338792	-47	131	-45
11339120	-25	131	-38
11339448	-49	141	-50
11339776	-49	142	-47
11340104	-49	135	-38
11340432	-47	157	-31
11340760	-50	162	-37
11341088	-38	126	-37
11341416	-44	136	-43
11341744	-42	151	-35
11342072	-48	148	-42
11342400	-37	134	-41
11342728	-42	141	-37
11343056	-34	141	-39
11343384	-40	122	-42
11343712	-57	169	-38
11344040	-56	145	-44
11344368	-36	129	-38
11344696	-24	152	-38
11345024	-23	140	-31
11345352	-19	137	-32
11345680	-10	130	-35
11346008	8	152	-37
11346336	-12	125	-54
11346664	-2	97	-32
11346992	-8	132	-49
11347320	2	139	-36
11347648	-16	116	-38
11347976	-18	129	-37
11348304	-12	137	-42
11348632	-39	133	-30
11348960	-64	151	-44
11349288	-67	152	-30
11349616	-85	156	-36
11349944	-70	185	-44
11350272	-70	149	-44
11350600	-86	156	-58
11350928	-106	171	-52
11351256	-87	166	-58
11351584	-104	176	-44
11351912	-101	148	-56
11352240	-91	162	-53
11352568	-53	164	-46
11352896	-70	165	-56
11353224	-53	142	-61
11353552	-56	139	-55
11353880	-64	160	-58
11354208	-79	150	-61
11354536	-95	146	-53
11354864	-90	145	-49
11355192	-81	144	-56
11355520	-86	131	-59
11355848	-93	141	-58
11356176	-103	139	-48
11356504	-93	124	-60
11356832	-100	120	-50
11357160	-86	143	-53
11357488	-76	144	-51
11357816	-88	146	-69
11358144	-88	142	-53
11358472	-78	138	-53
11358800	-63	143	-46
11359128	-61	162	-48
11359456	-59	134	-44
11359784	-47	132	-51
11360112	-25	162	-39
11360440	-19	152	-44
11360768	-40	133	-42
11361096	-50	146	-32
11361424	-62	158	-22
11361752	-73	149	-32
11362080	-61	144	-33
11362408	-63	152	-19
11362736	-61	146	-19
11363064	-62	159	-26
11363392	-64	168	-24
11363720	-57	159	-24
11364048	-58	142	-12
11364376	-32	162	-7
11364704	-26	162	-38
11365032	-42	122	-19
11365360	-37	130	-30
11365688	-60	157	-30
11366016	-62	142	-29
11366344	-57	157	-26
11366672	-49	127	-31
11367000	-45	143	-31
11367328	-42	148	-37
11367656	-56	130	-24
11367984	-56	149	-32
11368312	-47	143	-22
11368640	-50	134	-41
11368968	-51	152	-24
11369296	-39	125	-32
11369624	-55	143	-32
11369952	-79	144	-21
11370280	-86	122	-25
11370608	-99	138	-23
11370936	-93	145	-37
11371264	-95	140	-17
11371592	-97	126	-35
11371920	-111	124	-19
11372248	-145	135	-27
11372576	-162	144	-22
11372904	-156	142	-17
11373232	-142	148	-15
11373560	-132	130	-5
11373888	-124	155	-11
11374216	-130	162	-18
11374544	-149	120	-7
11374872	-126	127	-13
11375200	-135	147	-17
11375528	-121	109	-15
11375856	-117	131	-25
11376184	-100	165	-16
11376512	-87	105	-20
11376840	-64	113	-19
11377168	-65	150	-20
11377496	-46	144	-21
11377824	-39	125	-16
11378152	-56	130	-25
11378480	-55	145	-28
11378808	-55	147	-22
11379136	-56	170	-29
11379464	-29	128	-30
11379792	-28	120	-31
11380120	-28	166	-30
11380448	-36	139	-25
11380776	-32	119	-27
11381104	-20	141	-26
11381432	0	141	-12
11381760	4	130	-15
11382088	-6	168	-25
11382416	-6	141	-23
11382744	-6	120	-8
11383072	-28	155	-20
11383400	-30	175	-9
11383728	-56	168	-4
11384056	-47	156	-13
11384384	-48	181	-8
11384712	-11	152	-12
11385040	-23	163	-21
11385368	-23	192	-22
11385696	-27	144	-26
11386024	-25	144	-29
11386352	-21	181	-35
11386680	-63	153	-40
11387008	-90	153	-37
11387336	-101	180	-46
11387664	-82	166	-31
11387992	-58	144	-57
11388320	-45	154	-36
11388648	-27	172	-53
11388976	-8	141	-59
11389304	-26	144	-47
11389632	-20	173	-52
11389960	-28	136	-59
11390288	-36	168	-57
11390616	-47	161	-64
11390944	-37	159	-55
11391272	-30	152	-52
11391600	-25	166	-61
11391928	-23	166	-54
11392256	-39	158	-51
11392584	-46	193	-63
11392912	-31	182	-46
11393240	-44	173	-31
11393568	-51	213	-44
11393896	-59	183	-36
11394224	-68	192	-40
11394552	-53	184	-37
11394880	-46	182	-38
11395208	-39	174	-50
11395536	-36	182	-44
11395864	-42	175	-41
11396192	-93	157	-35
11396520	-87	181	-39
11396848	-67	173	-35
11397176	-44	174	-26
11397504	-51	199	-31
11397832	-38	184	-26
11398160	-58	197	-33
11398488	-45	208	-12
11398816	-39	197	-25
11399144	-43	186	-21
11399472	-43	197	-20
11399800	-34	198	-15
11400128	-20	192	-24
11400456	11	165	-14
11400784	23	165	-33
11401112	29	181	-14
11401440	18	175	-26
11401768	54	172	-13
11402096	53	181	-18
11402424	39	174	-24
11402752	41	169	-19
11403080	12	170	-20
11403408	-1	179	-21
11403736	-27	165	-22
11404064	-22	162	-12
11404392	-46	153	-27
11404720	-36	143	-22
11405048	-36	157	-25
11405376	-24	146	-24
11405704	-30	155	-24
11406032	-36	146	-38
11406360	-11	167	-37
11406688	-25	160	-26
11407016	-27	157	-22
11407344	-34	159	-29
11407672	-27	163	-29
11408000	-35	162	-18
11408328	-44	168	-8
11408656	-29	164	-16
11408984	-29	177	-14
11409312	-13	155	-23
11409640	-41	176	-20
11409968	-26	155	-33
11410296	-4	129	-18
11410624	-44	162	-28
11410952	-25	140	-30
11411280	-16	113	-26
11411608	7	148	-31
11411936	-2	147	-41
11412264	3	128	-40
11412592	-20	134	-47
11412920	-61	130	-35
11413248	-50	138	-40
11413576	-69	139	-40
11413904	-75	152	-34
11414232	-62	168	-40
11414560	-67	99	-51
11414888	-81	134	-48
11415216	-100	162	-38
11415544	-114	120	-50
11415872	-117	128	-45
11416200	-83	147	-32
11416528	-69	140	-34
11416856	-60	143	-50
11417184	-63	99	-59
11417512	-49	127	-49
11417840	-40	166	-38
11418168	-44	107	-38
11418496	-59	116	-45
11418824	-45	120	-39
11419152	-49	124	-30
11419480	-57	102	-34
11419808	-49	119	-33
11420136	-64	126	-26
11420464	-65	124	-40
11420792	-68	128	-28
11421120	-81	163	-29
11421448	-69	141	-29
11421776	-80	128	-35
11422104	-68	144	-24
11422432	-54	139	-26
11422760	-46	130	-42
11423088	-61	138	-38
11423416	-74	162	-23
11423744	-85	143	-27
11424072	-76	149	-19
11424400	-71	137	-26
11424728	-58	144	-23
11425056	-52	143	-22
11425384	-48	136	-18
11425712	-85	133	-4
11426040	-72	148	-3
11426368	-58	143	-3
11426696	-62	164	-4
11427024	-49	148	-2
11427352	-20	89	-3
11427680	-24	133	-7
11428008	-7	169	-4
11428336	-12	97	0
11428664	0	139	-6
11428992	8	140	1
11429320	2	122	-8
11429648	-5	130	-19
11429976	-30	125	-14
11430304	-38	130	-16
11430632	-32	141	-13
11430960	-41	133	-24
11431288	-44	142	-22
11431616	-42	133	-21
11431944	-48	140	-18
11432272	-22	151	-17
11432600	-28	114	-21
11432928	-26	147	-22
11433256	-2	147	-26
11433584	-22	118	-25
11433912	-29	138	-24
11434240	-53	139	-21
11434568	-60	123	-10
11434896	-56	134	-14
11435224	-54	110	-25
11435552	-39	97	-30
11435880	-35	124	-25
11436208	-58	103	-21
11436536	-56	137	-28
11436864	-25	124	-26
11437192	-45	121	-33
11437520	-29	138	-31
11437848	-27	136	-23
11438176	-15	137	-24
11438504	-43	117	-13
11438832	-59	132	-15
11439160	-1167	406	-77
11439488	-357	6229	143
11439816	-415	1148	-110
11440144	-123	159	-105
11440472	-275	2771	-76
11440800	-163	2978	-63
11441128	-545	2093	-69
11441456	-188	2332	-78
11441784	-440	2021	-27
11442112	-94	1435	-35
11442440	-97	840	-39
11442768	-279	659	1
11443096	-245	543	-12
11443424	-177	426	11
11443752	-131	136	18
11444080	-173	208	7
11444408	-235	308	17
11444736	-268	55	4
11445064	-357	-240	38
11445392	-220	-521	32
11445720	12	-623	60
11446048	255	-1251	65
11446376	576	-2024	73
11446704	818	-2532	-3
11447032	1015	-2935	-27
11447360	808	-3645	-212
11447688	512	-2804	-135
11448016	-1001	-1671	166
11448344	18	-287	-61
11448672	-182	465	-49
11449000	-131	577	-68
11449328	17	-327	-8
11449656	-94	-147	-37
11449984	-135	321	-4
11450312	-25	95	17
11450640	-112	-40	-14
11450968	-28	110	-19
11451296	-87	106	-5
11451624	-42	106	-8
11451952	-54	80	-6
11452280	-32	95	1
11452608	-36	125	-6
11452936	-26	96	2
11453264	-20	77	-11
11453592	-30	114	-4
11453920	4	140	-5
11454248	-8	101	0
11454576	-6	105	0
11454904	-2	123	-9
11455232	-12	101	-9
11455560	-39	119	-4
11455888	-30	119	-5
11456216	-34	103	9
11456544	-64	131	-3
11456872	-34	118	0
11457200	-28	94	0
11457528	-71	128	-3
11457856	-83	131	6
11458184	-71	84	-16
11458512	-70	133	-7
11458840	-51	149	-6
11459168	-36	92	-12
11459496	-39	94	-13
11459824	-40	140	-13
11460152	-32	102	-14
11460480	-25	92	-18
11460808	3	120	-7
11461136	-10	105	-3
11461464	-20	108	-6
11461792	-25	115	-9
11462120	-40	103	-8
11462448	-67	143	8
11462776	-69	138	-3
11463104	-102	112	-7
11463432	-101	134	-3
11463760	-84	133	5
11464088	-101	137	-4
11464416	-79	148	-8
11464744	-111	119	-19
11465072	-128	144	-1
11465400	-142	155	-8
11465728	-190	150	-8
11466056	-193	153	5
11466384	-191	155	-6
11466712	-184	177	13
11467040	-178	158	3
11467368	-176	138	-3
11467696	-204	139	5
11468024	-224	186	11
11468352	-191	150	7
11468680	-169	143	6
11469008	-112	203	5
11469336	-91	157	6
11469664	-28	123	4
11469992	-3	138	8
11470320	79	142	2
11470648	98	101	-1
11470976	133	105	-6
11471304	127	106	9
11471632	85	124	-4
11471960	54	124	-7
11472288	24	139	-5
11472616	26	153	-1
11472944	49	106	-9
11473272	36	134	5
11473600	49	150	5
11473928	93	98	8
11474256	127	86	9
11474584	163	99	-1
11474912	165	85	3
11475240	131	86	0
11475568	119	88	5
11475896	79	74	-2
11476224	90	88	0
11476552	84	87	-13
11476880	91	79	-12
11477208	60	81	-22
11477536	80	79	-21
11477864	43	98	-9
11478192	25	103	-21
11478520	17	68	-23
11478848	-17	72	-9
11479176	-17	111	-12
11479504	-31	98	-24
11479832	-20	96	-21
11480160	-32	113	-17
11480488	-45	116	-19
11480816	-70	90	-16
11481144	-91	98	-4
11481472	-96	123	-9
11481800	-99	108	-17
11482128	-83	66	-23
11482456	-103	110	-22
11482784	-113	100	-19
11483112	-110	85	-11
11483440	-107	94	-17
11483768	-107	104	-24
11484096	-106	119	-32
11484424	-106	104	-20
11484752	-106	58	-14
11485080	-88	102	-16
11485408	-60	128	-17
11485736	-59	65	-43
11486064	-49	62	-30
11486392	-39	101	-35
11486720	-71	103	-19
11487048	-80	84	-24
11487376	-81	104	-29
11487704	-88	105	-25
11488032	-89	95	-19
11488360	-77	71	-16
11488688	-73	99	-21
11489016	-91	70	-23
11489344	-128	91	-17
11489672	-109	125	-13
11490000	-137	115	-4
11490328	-164	123	-18
11490656	-146	158	-11
11490984	-110	130	-9
11491312	-98	106	-15
11491640	-70	130	-16
11491968	-69	126	-10
11492296	-59	120	-9
11492624	-24	110	-15
11492952	-35	103	-25
11493280	-50	126	-19
11493608	-46	107	-31
11493936	-35	97	-18
11494264	-39	120	-25
11494592	-35	97	-33
11494920	-22	90	-21
11495248	-32	115	-30
11495576	-8	97	-28
11495904	-25	112	-33
11496232	-31	128	-25
11496560	-44	102	-18
11496888	-71	105	-21
11497216	-82	117	-22
11497544	-85	70	-26
11497872	-88	81	-23
11498200	-99	94	-19
11498528	-100	91	-28
11498856	-110	97	-12
11499184	-116	92	-28
11499512	-100	109	-14
11499840	-123	93	-21
11500168	-107	103	-8
11500496	-142	124	2
11500824	-114	112	-9
11501152	-83	116	-13
11501480	-65	102	-9
11501808	-29	101	-9
11502136	-45	79	0
11502464	-75	115	-1
11502792	-84	132	7
11503120	-121	114	28
11503448	-81	109	14
11503776	-97	150	20
11504104	-72	143	14
11504432	-51	85	16
11504760	-33	139	9
11505088	-44	165	5
11505416	-53	102	13
11505744	-40	132	11
11506072	-51	182	21
11506400	-71	174	25
11506728	-57	140	24
11507056	-54	145	17
11507384	-63	133	14
11507712	-82	130	14
11508040	-70	128	17
11508368	-84	131	15
11508696	-123	132	9
11509024	-118	116	14
11509352	-114	135	1
11509680	-88	143	11
11510008	-75	105	14
11510336	-48	110	6
11510664	-29	102	10
11510992	-13	111	14
11511320	1	112	0
11511648	-19	96	1
11511976	-27	110	7
11512304	-21	68	9
11512632	-13	90	2
11512960	-31	128	11
11513288	-30	113	10
11513616	-69	141	14
11513944	-58	120	18
11514272	-59	87	15
11514600	-79	148	23
11514928	-40	144	26
11515256	-48	124	22
11515584	-59	164	35
11515912	-21	151	33
11516240	-20	122	33
11516568	-22	116	28
11516896	-17	144	37
11517224	-33	113	32
11517552	-17	103	24
11517880	-46	152	25
11518208	-50	125	45
11518536	-37	113	33
11518864	-72	140	25
11519192	-62	105	32
11519520	-47	109	32
11519848	-56	131	35
11520176	-82	136	36
11520504	-83	134	45
11520832	-63	115	31
11521160	-63	90	27
11521488	-60	112	35
11521816	-79	103	26
11522144	-84	118	26
11522472	-70	78	21
11522800	-70	101	27
11523128	-55	112	9
11523456	-56	111	16
11523784	-33	100	19
11524112	-46	80	19
11524440	-68	114	15
11524768	-75	130	12
11525096	-81	107	2
11525424	-68	94	7
11525752	-65	110	-3
11526080	-79	134	2
11526408	-88	108	-9
11526736	-86	117	1
11527064	-83	120	-5
11527392	-65	129	-5
11527720	-63	122	-6
11528048	-97	140	-25
11528376	-87	120	-27
11528704	-102	111	-19
11529032	-93	159	-12
11529360	-99	146	-14
11529688	-78	132	-20
11530016	-69	153	-8
11530344	-60	159	-3
11530672	-60	142	1
11531000	-69	150	-32
11531328	-110	168	-6
11531656	-90	158	10
11531984	-91	170	16
11532312	-138	221	11
11532640	-171	227	26
11532968	-199	199	18
11533296	-223	232	16
11533624	-256	246	13
11533952	-306	242	35
11534280	-334	283	34
11534608	-342	302	33
11534936	-368	263	35
11535264	-364	317	32
11535592	-325	339	40
11535920	-237	277	45
11536248	-141	269	44
11536576	-6	309	47
11536904	96	259	54
11537232	166	238	60
11537560	253	272	71
11537888	366	242	80
11538216	448	190	47
11538544	506	165	63
11538872	543	169	82
11539200	513	271	86
11539528	451	209	100
11539856	460	154	72
11540184	529	191	77
11540512	573	228	73
11540840	598	183	73
11541168	586	144	55
11541496	562	172	50
11541824	542	213	61
11542152	523	166	40
11542480	516	179	48
11542808	520	195	41
11543136	558	171	35
11543464	539	95	28
11543792	531	185	19
11544120	491	183	21
11544448	423	139	18
11544776	318	266	38
11545104	288	278	39
11545432	274	174	25
11545760	227	180	20
11546088	258	223	37
11546416	298	268	48
11546744	319	261	37
11547072	259	142	22
11547400	301	182	36
11547728	292	306	47
11548056	363	181	19
11548384	409	44	-3
11548712	424	203	26
11549040	439	298	34
11549368	356	88	8
11549696	349	136	-2
11550024	417	248	-2
11550352	358	185	-10
11550680	365	184	-20
11551008	312	122	-8
11551336	242	235	-9
11551664	174	263	-13
11551992	180	118	-26
11552320	137	127	-26
11552648	116	259	-44
11552976	61	163	-53
11553304	-45	126	-51
11553632	-94	255	-38
11553960	-150	171	-56
11554288	-209	119	-77
11554616	-193	189	-70
11554944	-207	191	-81
11555272	-220	147	-95
11555600	-262	133	-95
11555928	-313	164	-88
11556256	-367	167	-95
11556584	-410	103	-97
11556912	-415	99	-106
11557240	-395	128	-92
11557568	-380	98	-105
11557896	-357	98	-102
11558224	-371	57	-102
11558552	-369	62	-111
11558880	-410	119	-95
11559208	-412	130	-107
11559536	-426	23	-105
11559864	-450	21	-97
11560192	-409	129	-98
11560520	-393	62	-111
11560848	-413	22	-125
11561176	-437	38	-119
11561504	-455	92	-116
11561832	-521	66	-121
11562160	-569	19	-159
11562488	-521	22	-137
11562816	-487	42	-142
11563144	-493	12	-152
11563472	-481	19	-171
11563800	-542	39	-156
11564128	-584	15	-163
11564456	-585	-18	-153
11564784	-569	29	-178
11565112	-546	-17	-182
11565440	-553	22	-180
11565768	-576	59	-167
11566096	-637	17	-181
11566424	-649	48	-162
11566752	-684	33	-148
11567080	-667	6	-165
11567408	-669	7	-167
11567736	-645	30	-148
11568064	-582	29	-149
11568392	-627	36	-142
11568720	-651	10	-147
11569048	-628	37	-123
11569376	-618	96	-130
11569704	-587	45	-130
11570032	-518	63	-114
11570360	-451	75	-97
11570688	-439	-14	-99
11571016	-413	9	-97
11571344	-349	70	-60
11571672	-354	45	-56
11572000	-335	44	-74
11572328	-248	19	-74
11572656	-193	33	-58
11572984	-171	93	-80
11573312	-92	46	-69
11573640	-108	23	-59
11573968	-104	82	-44
11574296	-108	134	-27
11574624	-103	54	-32
11574952	-53	45	-33
11575280	-13	101	-26
11575608	13	135	-18
11575936	39	99	3
11576264	45	99	-2
11576592	43	123	-6
11576920	46	92	3
11577248	82	104	4
11577576	67	110	1
11577904	73	109	0
11578232	54	94	13
11578560	43	115	8
11578888	59	135	4
11579216	87	101	16
11579544	120	98	25
11579872	127	115	33
11580200	152	118	21
11580528	150	145	24
11580856	143	143	43
11581184	157	126	39
11581512	158	109	40
11581840	172	117	31
11582168	205	124	30
11582496	206	140	33
11582824	222	148	32
11583152	228	136	38
11583480	197	106	36
11583808	182	141	35
11584136	170	129	35
11584464	166	149	34
11584792	155	143	35
11585120	163	115	33
11585448	146	134	38
11585776	90	151	36
11586104	53	126	35
11586432	37	112	34
11586760	42	152	44
11587088	53	129	32
11587416	47	77	32
11587744	58	139	42
11588072	36	112	47
11588400	24	94	46
11588728	27	113	37
11589056	38	100	36
11589384	50	96	29
11589712	35	110	36
11590040	-9	133	31
11590368	-30	98	35
11590696	-63	114	46
11591024	-74	141	28
11591352	-97	148	35
11591680	-105	122	45
11592008	-92	100	46
11592336	-107	128	44
11592664	-107	119	42
11592992	-124	90	32
11593320	-136	116	45
11593648	-131	124	49
11593976	-144	134	47
11594304	-150	135	51
11594632	-211	116	68
11594960	-250	173	61
11595288	-260	177	74
11595616	-240	137	72
11595944	-205	148	71
11596272	-181	168	70
11596600	-140	143	80
11596928	-123	158	82
11597256	-94	125	87
11597584	-76	160	80
11597912	-54	144	86
11598240	-46	126	95
11598568	-32	154	91
11598896	-56	143	91
11599224	-71	127	90
11599552	-70	165	85
11599880	-99	164	85
11600208	-112	142	93
11600536	-111	140	81
11600864	-101	154	79
11601192	-100	155	81
11601520	-99	155	82
11601848	-99	141	75
11602176	-117	140	77
11602504	-90	153	75
11602832	-114	163	78
11603160	-96	155	83
11603488	-96	146	81
11603816	-82	164	72
11604144	-64	155	71
11604472	-59	160	78
11604800	-45	160	75
11605128	-46	122	79
11605456	-38	132	74
11605784	-49	158	71
11606112	-49	140	58
11606440	-63	129	49
11606768	-53	128	60
11607096	-60	118	52
11607424	-49	140	56
11607752	-50	125	69
11608080	-70	119	51
11608408	-53	112	48
11608736	-82	142	60
11609064	-125	139	64
11609392	-160	131	67
11609720	-156	158	59
11610048	-127	144	57
11610376	-158	151	70
11610704	-153	178	63
11611032	-158	141	59
11611360	-139	153	70
11611688	-135	173	70
11612016	-185	175	87
11612344	-200	208	97
11612672	-233	233	69
11613000	-206	202	87
11613328	-158	182	92
11613656	-114	186	108
11613984	-37	143	98
11614312	-38	135	76
11614640	-9	140	79
11614968	-13	167	85
11615296	-40	152	77
11615624	-57	165	78
11615952	-61	169	80
11616280	-66	169	75
11616608	-13	211	64
11616936	36	154	78
11617264	89	112	67
11617592	113	166	69
11617920	126	158	87
11618248	120	133	75
11618576	139	134	68
11618904	133	185	64
11619232	122	192	81
11619560	89	216	61
11619888	83	246	64
11620216	87	206	68
11620544	85	220	64
11620872	92	233	68
11621200	124	229	67
11621528	91	238	77
11621856	97	248	72
11622184	103	294	83
11622512	86	300	87
11622840	45	323	82
11623168	12	272	73
11623496	19	362	90
11623824	14	341	87
11624152	39	315	79
11624480	78	371	71
11624808	91	297	71
11625136	75	436	78
11625464	56	394	79
11625792	23	338	56
11626120	31	365	36
11626448	71	367	31
11626776	-12	362	23
11627104	24	363	13
11627432	-49	441	18
11627760	-16	313	-29
11628088	-27	279	-52
11628416	-22	398	-37
11628744	-34	363	-46
11629072	-62	315	-79
11629400	-39	287	-89
11629728	-13	335	-92
11630056	4	242	-127
11630384	-10	302	-126
11630712	-52	330	-120
11631040	-85	271	-143
11631368	-104	279	-145
11631696	-110	295	-147
11632024	-89	266	-170
11632352	-79	260	-160
11632680	-89	304	-170
11633008	-104	271	-186
11633336	-77	233	-184
11633664	-55	274	-202
11633992	-41	265	-192
11634320	-46	236	-197
11634648	-70	247	-203
11634976	-99	264	-197
11635304	-78	267	-197
11635632	-74	236	-219
11635960	-84	244	-214
11636288	-71	248	-216
11636616	-67	242	-206
11636944	-91	238	-225
11637272	-88	243	-239
11637600	-81	234	-238
11637928	-83	236	-227
11638256	-54	261	-220
11638584	-76	261	-240
11638912	-79	265	-235
11639240	-107	280	-234
11639568	-135	275	-231
11639896	-116	255	-223
11640224	-102	247	-232
11640552	-19	238	-224
11640880	58	235	-229
11641208	59	264	-222
11641536	135	240	-229
11641864	152	187	-245
11642192	114	171	-221
11642520	235	232	-237
11642848	292	134	-238
11643176	306	100	-253
11643504	363	238	-230
11643832	388	143	-228
11644160	358	127	-237
11644488	399	171	-229
11644816	408	136	-208
11645144	483	224	-210
11645472	510	173	-209
11645800	557	159	-200
11646128	591	161	-175
11646456	566	188	-178
11646784	537	242	-143
11647112	551	228	-148
11647440	527	168	-131
11647768	575	273	-114
11648096	614	287	-110
11648424	590	228	-115
11648752	602	275	-90
11649080	598	324	-84
11649408	557	312	-75
11649736	558	293	-70
11650064	560	325	-68
11650392	553	315	-63
11650720	544	347	-63
11651048	545	333	-57
11651376	528	338	-43
11651704	491	303	-57
11652032	502	293	-70
11652360	469	278	-63
11652688	441	325	-70
11653016	430	323	-78
11653344	418	266	-81
11653672	439	302	-78
11654000	443	320	-78
11654328	426	305	-99
11654656	350	314	-70
11654984	377	296	-58
11655312	379	309	-64
11655640	386	278	-74
11655968	354	252	-90
11656296	421	327	-36
11656624	377	378	-21
11656952	163	328	-25
11657280	220	261	-21
11657608	138	316	13
11657936	102	385	13
11658264	63	372	17
11658592	102	264	4
11658920	32	330	1
11659248	21	373	15
11659576	-24	300	16
11659904	-78	258	5
11660232	-88	307	6
11660560	-26	321	0
11660888	-99	226	-4
11661216	-45	238	3
11661544	-58	299	21
11661872	-48	297	22
11662200	-37	248	16
11662528	-50	251	49
11662856	40	254	55
11663184	58	201	74
11663512	59	291	90
11663840	90	314	105
11664168	-8	254	118
11664496	-64	298	167
11664824	-88	320	221
11665152	-17	271	227
11665480	46	256	247
11665808	138	235	248
11666136	237	278	278
11666464	281	242	291
11666792	306	184	283
11667120	384	157	270
11667448	407	168	271
11667776	508	184	290
11668104	537	128	287
11668432	494	131	278
11668760	502	136	298
11669088	467	176	321
11669416	378	144	306
11669744	431	120	313
11670072	448	117	291
11670400	520	87	324
11670728	545	136	315
11671056	460	95	302
11671384	436	59	310
11671712	425	85	311
11672040	398	90	309
11672368	403	99	291
11672696	331	99	290
11673024	354	126	282
11673352	303	102	265
11673680	323	85	260
11674008	261	80	263
11674336	293	120	245
11674664	245	97	231
11674992	167	113	230
11675320	150	180	237
11675648	90	114	224
11675976	-20	116	218
11676304	62	256	215
11676632	12	121	207
11676960	23	119	185
11677288	100	188	183
11677616	64	111	168
11677944	11	168	164
11678272	37	207	168
11678600	-57	84	143
11678928	-49	177	137
11679256	-7	176	136
11679584	-14	115	95
11679912	20	136	110
11680240	62	88	105
11680568	103	73	78
11680896	126	133	96
11681224	137	138	95
11681552	75	108	116
11681880	-35	126	155
11682208	-116	193	217
11682536	-248	179	221
11682864	-194	172	207
11683192	-136	58	211
11683520	-74	172	194
11683848	57	267	209
11684176	100	106	201
11684504	51	36	191
11684832	55	199	186
11685160	27	192	216
11685488	-61	43	201
11685816	-24	151	208
11686144	-38	151	233
11686472	-23	150	205
11686800	-30	168	213
11687128	-69	107	208
11687456	-90	183	204
11687784	-129	132	191
11688112	-154	108	191
11688440	-101	185	182
11688768	-84	110	170
11689096	-64	76	148
11689424	-76	125	163
11689752	-88	117	168
11690080	-77	101	151
11690408	-49	71	130
11690736	-34	104	140
11691064	-51	144	129
11691392	-59	119	129
11691720	-84	94	118
11692048	-99	118	129
11692376	-114	173	135
11692704	-113	173	118
11693032	-131	140	121
11693360	-105	165	125
11693688	-124	191	141
11694016	-168	212	151
11694344	-188	201	143
11694672	-207	228	140
11695000	-179	250	153
11695328	-157	216	134
11695656	-163	350	150
11695984	-207	290	161
11696312	-230	245	163
11696640	-158	357	167
11696968	-132	297	183
11697296	-98	248	157
11697624	-20	328	172
11697952	19	279	156
11698280	38	250	142
11698608	67	262	145
11698936	81	266	130
11699264	90	233	131
11699592	81	173	114
11699920	88	207	111
11700248	98	195	91
11700576	101	155	85
11700904	111	164	67
11701232	106	154	55
11701560	35	121	39
11701888	38	148	40
11702216	37	50	18
11702544	25	10	-14
11702872	56	76	-11
11703200	50	59	-21
11703528	59	25	-43
11703856	63	11	-39
11704184	42	45	-51
11704512	9	32	-46
11704840	24	7	-58
11705168	31	24	-58
11705496	41	30	-53
11705824	66	8	-62
11706152	32	36	-62
11706480	10	38	-57
11706808	-20	34	-63
11707136	-44	24	-67
11707464	-40	16	-67
11707792	-20	51	-51
11708120	-1	40	-72
11708448	-5	27	-61
11708776	-20	43	-66
11709104	-45	59	-47
11709432	-71	68	-51
11709760	-87	68	-50
11710088	-101	87	-54
11710416	-80	64	-51
11710744	-61	58	-51
11711072	-51	67	-52
11711400	-64	63	-49
11711728	-39	73	-41
11712056	-26	97	-48
11712384	-23	54	-49
11712712	-16	49	-40
11713040	5	83	-57
11713368	-4	71	-45
11713696	-31	69	-45
11714024	-30	86	-47
11714352	-28	99	-40
11714680	-41	88	-34
11715008	-37	123	-26
11715336	-61	83	-34
11715664	-73	83	-29
11715992	-58	125	-24
11716320	-27	123	-20
11716648	-39	108	-27
11716976	-33	126	-18
11717304	-38	171	-10
11717632	-36	146	3
11717960	-29	132	-2
11718288	-45	178	6
11718616	-55	186	13
11718944	-80	191	1
11719272	-100	209	9
11719600	-76	190	2
11719928	-79	199	10
11720256	-87	191	-5
11720584	-92	142	9
11720912	-107	179	17
11721240	-126	227	-3
11721568	-142	197	-4
11721896	-145	189	-14
11722224	-98	219	-8
11722552	-113	214	-12
11722880	-130	206	-15
11723208	-123	217	-13
11723536	-135	263	-5
11723864	-101	223	-5
11724192	-127	192	-21
11724520	-80	206	-17
11724848	-62	226	-19
11725176	-98	214	-11
11725504	-92	203	-25
11725832	-75	235	-25
11726160	-64	241	-29
11726488	-89	225	-10
11726816	-107	224	-14
11727144	-129	212	-16
11727472	-135	207	-17
11727800	-167	225	-7
11728128	-139	214	-19
11728456	-116	204	-14
11728784	-104	245	-19
11729112	-59	223	-29
11729440	-63	202	-23
11729768	-78	179	-21
11730096	-54	234	-23
11730424	-31	212	-31
11730752	-34	197	-18
11731080	-15	187	-33
11731408	-2	222	-23
11731736	27	188	-26
11732064	58	187	-25
11732392	53	194	-22
11732720	52	214	-14
11733048	48	162	-2
11733376	41	200	-23
11733704	79	245	-14
11734032	90	193	-14
11734360	83	209	-7
11734688	76	245	-8
11735016	65	204	-17
11735344	102	185	-12
11735672	71	233	-7
11736000	59	227	-14
11736328	42	185	-18
11736656	30	214	-32
11736984	4	240	-33
11737312	-11	200	-48
11737640	1	166	-59
11737968	12	213	-64
11738296	8	196	-67
11738624	-12	163	-85
11738952	-10	205	-86
11739280	-30	223	-90
11739608	-41	195	-91
11739936	-60	177	-96
11740264	-78	206	-89
11740592	-80	211	-100
11740920	-51	156	-102
11741248	-18	175	-108
11741576	-28	184	-116
11741904	-7	168	-120
11742232	-30	174	-117
11742560	5	180	-115
11742888	-12	166	-113
11743216	-11	176	-128
11743544	6	181	-122
11743872	-24	199	-130
11744200	-22	185	-123
11744528	-29	172	-128
11744856	-25	181	-126
11745184	-29	164	-130
11745512	-13	185	-135
11745840	8	192	-132
11746168	8	167	-140
11746496	20	166	-130
11746824	24	148	-137
11747152	47	131	-149
11747480	46	149	-141
11747808	32	141	-145
11748136	44	122	-145
11748464	49	118	-153
11748792	62	118	-146
11749120	66	91	-151
11749448	75	77	-152
11749776	65	88	-150
11750104	84	101	-163
11750432	96	75	-149
11750760	93	54	-165
11751088	107	77	-159
11751416	99	82	-149
11751744	99	102	-151
11752072	87	89	-151
11752400	105	67	-156
11752728	103	93	-154
11753056	113	102	-157
11753384	111	115	-154
11753712	112	87	-163
11754040	110	94	-157
11754368	123	120	-157
11754696	125	82	-164
11755024	102	115	-152
11755352	97	115	-152
11755680	92	110	-159
11756008	98	133	-151
11756336	96	113	-160
11756664	83	115	-156
11756992	80	110	-161
11757320	58	130	-147
11757648	51	149	-138
11757976	42	118	-146
11758304	57	111	-152
11758632	55	139	-158
11758960	16	131	-148
11759288	14	142	-143
11759616	20	142	-133
11759944	37	115	-158
11760272	26	113	-146
11760600	31	123	-135
11760928	34	150	-133
11761256	57	63	-141
11761584	48	82	-127
11761912	40	130	-132
11762240	-3	101	-117
11762568	-33	95	-117
11762896	-27	106	-123
11763224	-2	89	-124
11763552	-2	71	-131
11763880	26	72	-133
11764208	33	110	-101
11764536	-5	124	-103
11764864	-12	92	-104
11765192	-15	70	-119
11765520	-6	103	-120
11765848	1	115	-113
11766176	-42	90	-111
11766504	-70	100	-117
11766832	-87	85	-118
11767160	-117	50	-122
11767488	-114	99	-120
11767816	-86	116	-114
11768144	-120	72	-117
11768472	-117	72	-131
11768800	-43	29	-119
11769128	-84	41	-123
11769456	-67	179	-105
11769784	-2	26	-132
11770112	-51	-40	-127
11770440	-31	147	-116
11770768	-63	33	-115
11771096	-67	-22	-128
11771424	-38	85	-132
11771752	-61	21	-145
11772080	-26	40	-125
11772408	-104	43	-112
11772736	-142	69	-97
11773064	-124	46	-104
11773392	-103	-26	-108
11773720	-109	53	-101
11774048	-93	89	-80
11774376	-68	27	-91
11774704	-96	37	-82
11775032	-101	74	-69
11775360	-95	59	-57
11775688	-115	68	-76
11776016	-111	46	-61
11776344	-91	63	-63
11776672	-64	59	-49
11777000	-48	61	-65
11777328	-57	41	-75
11777656	-49	58	-54
11777984	-32	49	-62
11778312	-68	51	-64
11778640	-74	39	-64
11778968	-76	28	-67
11779296	-92	15	-80
11779624	-60	24	-72
11779952	-59	12	-92
11780280	-56	-47	-95
11780608	-56	11	-85
11780936	-73	79	-88
11781264	-75	-54	-105
11781592	-95	-58	-95
11781920	-40	28	-105
11782248	-63	-49	-106
11782576	-50	-16	-92
11782904	-52	-29	-105
11783232	-33	-49	-100
11783560	-55	-40	-106
11783888	5	-43	-105
11784216	-52	-56	-103
11784544	-4	-41	-112
11784872	-86	-36	-100
11785200	-70	-40	-107
11785528	-154	-4	-98
11785856	-60	-30	-98
11786184	-112	-66	-124
11786512	-78	-24	-110
11786840	-108	-34	-99
11787168	-115	-12	-88
11787496	-110	-68	-110
11787824	-148	-95	-90
11788152	-46	-66	-88
11788480	-96	-31	-84
11788808	-35	-20	-70
11789136	-90	-56	-71
11789464	-22	-63	-61
11789792	-83	-30	-55
11790120	-50	-36	-58
11790448	-67	-47	-60
11790776	-64	-12	-37
11791104	-34	-14	-26
11791432	-41	-31	-19
11791760	-56	27	-6
11792088	-2	3	-12
11792416	-3	-59	-20
11792744	3	29	11
11793072	-8	91	24
11793400	-40	34	13
11793728	-15	19	29
11794056	-9	37	33
11794384	-11	-22	26
11794712	-33	40	49
11795040	-41	87	51
11795368	-69	6	45
11795696	-62	27	51
11796024	-61	62	54
11796352	-82	50	53
11796680	-86	58	58
11797008	-83	57	54
11797336	-73	59	60
11797664	-67	77	62
11797992	-56	83	61
11798320	-37	90	72
11798648	-40	103	71
11798976	-89	76	66
11799304	-89	79	67
11799632	-72	92	76
11799960	-60	77	79
11800288	-50	66	69
11800616	-74	75	66
11800944	-67	81	75
11801272	-89	67	77
11801600	-113	66	74
11801928	-143	95	75
11802256	-125	79	73
11802584	-130	76	77
11802912	-135	106	90
11803240	-133	86	71
11803568	-120	24	59
11803896	-126	65	71
11804224	-110	90	66
11804552	-136	96	71
11804880	-125	80	71
11805208	-135	86	80
11805536	-161	75	73
11805864	-145	92	88
11806192	-157	119	86
11806520	-149	104	77
11806848	-138	73	80
11807176	-150	119	97
11807504	-126	140	95
11807832	-133	108	76
11808160	-135	104	89
11808488	-143	128	101
11808816	-135	124	95
11809144	-82	128	96
11809472	-87	112	94
11809800	-87	92	87
11810128	-96	94	89
11810456	-93	136	101
11810784	-116	95	82
11811112	-123	53	80
11811440	-136	140	95
11811768	-155	98	91
11812096	-161	83	90
11812424	-157	137	118
11812752	-172	85	121
11813080	-180	119	120
11813408	-163	181	150
11813736	-200	115	151
11814064	-277	175	170
11814392	-336	219	185
11814720	-372	198	200
11815048	-420	163	195
11815376	-373	187	173
11815704	-300	195	156
11816032	-228	96	154
11816360	-192	133	167
11816688	-193	221	147
11817016	-215	137	144
11817344	-244	114	171
11817672	-240	213	161
11818000	-167	213	171
11818328	-115	101	169
11818656	-108	112	164
11818984	-80	165	170
11819312	-57	137	165
11819640	-153	158	195
11819968	-67	231	191
11820296	-55	145	181
11820624	-89	164	199
11820952	-7	190	186
11821280	-3	133	191
11821608	-34	207	199
11821936	59	229	183
11822264	-13	151	190
11822592	-5	218	202
11822920	25	288	189
11823248	1	199	212
11823576	-3	172	203
11823904	-11	224	184
11824232	-31	144	186
11824560	-72	219	214
11824888	11	268	198
11825216	-33	162	182
11825544	-29	194	193
11825872	-6	111	176
11826200	22	247	168
11826528	86	283	176
11826856	68	67	151
11827184	88	160	125
11827512	98	242	132
11827840	45	109	121
11828168	-17	187	148
11828496	-13	254	154
11828824	-47	183	127
11829152	-58	158	108
11829480	-92	275	141
11829808	-32	284	141
11830136	-42	177	126
11830464	-69	237	123
11830792	-58	318	144
11831120	-30	319	142
11831448	-30	256	134
11831776	-94	270	146
11832104	-77	358	146
11832432	-67	288	160
11832760	-89	285	149
11833088	-19	397	135
11833416	12	322	118
11833744	-53	214	97
11834072	-138	328	134
11834400	-136	405	140
11834728	-196	301	133
11835056	-204	261	128
11835384	-145	391	128
11835712	-75	368	124
11836040	-29	281	100
11836368	-48	323	115
11836696	-99	443	151
11837024	-46	531	178
11837352	-21	361	145
11837680	7	262	120
11838008	-42	443	155
11838336	59	532	173
11838664	-58	368	161
11838992	-111	403	187
11839320	29	486	178
11839648	-72	394	167
11839976	-35	451	161
11840304	-52	569	191
11840632	-89	483	204
11840960	-123	515	200
11841288	-155	527	221
11841616	-127	568	221
11841944	-102	593	222
11842272	-107	581	232
11842600	-94	618	255
11842928	-141	653	276
11843256	-72	608	287
11843584	-119	584	293
11843912	-77	632	293
11844240	-77	582	274
11844568	-14	539	245
11844896	-23	540	260
11845224	-90	627	272
11845552	-144	641	301
11845880	-164	578	298
11846208	-183	593	294
11846536	-65	599	298
11846864	-30	560	299
11847192	-53	655	300
11847520	-96	707	309
11847848	-123	624	308
11848176	5	556	298
11848504	110	504	307
11848832	183	548	310
11849160	231	509	300
11849488	342	431	289
11849816	412	422	268
11850144	427	394	220
11850472	497	335	185
11850800	522	283	136
11851128	439	308	72
11851456	351	362	57
11851784	248	326	38
11852112	188	267	11
11852440	131	274	-38
11852768	164	292	-73
11853096	266	201	-92
11853424	266	186	-110
11853752	270	244	-115
11854080	335	193	-136
11854408	433	72	-165
11854736	511	103	-175
11855064	508	197	-184
11855392	533	148	-182
11855720	483	45	-199
11856048	478	77	-224
11856376	442	124	-247
11856704	435	60	-255
11857032	400	49	-258
11857360	320	157	-271
11857688	250	203	-257
11858016	119	136	-248
11858344	167	90	-228
11858672	165	167	-237
11859000	158	134	-230
11859328	194	79	-212
11859656	101	119	-200
11859984	98	104	-203
11860312	139	66	-206
11860640	121	113	-213
11860968	179	94	-234
11861296	195	39	-255
11861624	197	67	-244
11861952	210	35	-268
11862280	133	26	-277
11862608	127	56	-286
11862936	85	50	-290
11863264	103	48	-279
11863592	101	40	-277
11863920	116	23	-281
11864248	91	67	-281
11864576	111	43	-264
11864904	112	59	-243
11865232	133	97	-231
11865560	169	119	-219
11865888	187	109	-208
11866216	190	137	-189
11866544	187	181	-172
11866872	125	125	-154
11867200	62	143	-155
11867528	71	171	-136
11867856	30	130	-151
11868184	103	158	-137
11868512	120	181	-127
11868840	40	149	-144
11869168	49	122	-159
11869496	13	121	-169
11869824	2	91	-177
11870152	-5	43	-207
11870480	78	74	-233
11870808	-5	-25	-278
11871136	22	-20	-275
11871464	-17	60	-282
11871792	-76	-37	-323
11872120	-24	-102	-340
11872448	-32	-71	-345
11872776	3	-7	-356
11873104	22	-75	-376
11873432	11	-90	-360
11873760	8	-44	-360
11874088	-31	-61	-362
11874416	-38	-63	-357
11874744	-56	-45	-363
11875072	-67	-18	-347
11875400	-41	-37	-325
11875728	-75	7	-293
11876056	-81	33	-288
11876384	-83	36	-279
11876712	-40	54	-240
11877040	-82	132	-238
11877368	-96	113	-226
11877696	-44	119	-205
11878024	-21	148	-207
11878352	27	114	-186
11878680	72	198	-186
11879008	62	182	-182
11879336	43	121	-174
11879664	43	141	-163
11879992	33	177	-159
11880320	31	99	-156
11880648	68	66	-157
11880976	83	120	-158
11881304	116	87	-168
11881632	93	19	-173
11881960	115	87	-175
11882288	83	125	-167
11882616	35	101	-169
11882944	27	67	-158
11883272	41	89	-161
11883600	79	108	-181
11883928	79	108	-173
11884256	90	58	-156
11884584	49	153	-142
11884912	6	145	-157
11885240	-51	8	-154
11885568	-23	98	-151
11885896	-7	149	-139
11886224	-29	69	-146
11886552	-60	117	-144
11886880	-71	110	-139
11887208	-48	149	-124
11887536	11	135	-126
11887864	6	149	-120
11888192	3	145	-117
11888520	-30	150	-119
11888848	-21	148	-104
11889176	-22	146	-112
11889504	20	149	-108
11889832	34	139	-113
11890160	29	153	-116
11890488	51	138	-97
11890816	55	140	-106
11891144	68	95	-118
11891472	63	99	-125
11891800	53	83	-127
11892128	26	56	-115
11892456	17	55	-115
11892784	31	75	-139
11893112	21	83	-130
11893440	36	41	-130
11893768	11	49	-147
11894096	9	54	-140
11894424	7	30	-135
11894752	33	16	-141
11895080	54	34	-147
11895408	62	30	-136
11895736	64	-2	-141
11896064	63	5	-153
11896392	80	48	-142
11896720	53	15	-146
11897048	57	21	-137
11897376	104	21	-141
11897704	135	-7	-145
11898032	137	-2	-149
11898360	155	31	-140
11898688	163	17	-138
11899016	144	25	-150
11899344	163	22	-142
11899672	115	72	-131
11900000	62	87	-139
11900328	29	43	-143
11900656	20	55	-133
11900984	44	84	-141
11901312	22	61	-155
11901640	21	47	-160
11901968	11	78	-137
11902296	-33	82	-156
11902624	-97	12	-158
11902952	-89	109	-127
11903280	-45	136	-137
11903608	-122	-28	-149
11903936	-134	87	-126
11904264	-94	143	-126
11904592	-139	9	-134
11904920	-102	96	-124
11905248	-82	117	-110
11905576	-77	84	-116
11905904	-17	85	-99
11906232	-23	97	-114
11906560	-26	133	-108
11906888	5	80	-107
11907216	-12	113	-96
11907544	-5	135	-94
11907872	-20	86	-99
11908200	-33	114	-94
11908528	-32	135	-77
11908856	-64	115	-83
11909184	-34	104	-91
11909512	-62	108	-93
11909840	-51	110	-89
11910168	-35	111	-85
11910496	-64	128	-87
11910824	-42	113	-85
11911152	-50	98	-93
11911480	-83	74	-94
11911808	-71	100	-95
11912136	-90	122	-82
11912464	-102	96	-99
11912792	-91	98	-94
11913120	-87	112	-95
11913448	-89	117	-97
11913776	-83	113	-93
11914104	-88	117	-88
11914432	-133	131	-83
11914760	-114	143	-79
11915088	-121	141	-90
11915416	-112	119	-63
11915744	-80	128	-62
11916072	-72	136	-74
11916400	-47	104	-76
11916728	-27	122	-80
11917056	-18	93	-79
11917384	-42	124	-69
11917712	-30	133	-81
11918040	-38	106	-79
11918368	-69	127	-74
11918696	-36	132	-78
11919024	-51	94	-70
11919352	-33	125	-85
11919680	-18	156	-66
11920008	-13	113	-67
11920336	-13	119	-80
11920664	11	120	-65
11920992	10	137	-53
11921320	5	142	-41
11921648	-20	146	-52
11921976	-22	129	-59
11922304	-29	143	-50
11922632	-26	133	-44
11922960	-3	148	-54
11923288	7	115	-44
11923616	4	142	-51
11923944	-17	130	-55
11924272	-48	161	-52
11924600	-102	175	-50
11924928	-140	162	-36
11925256	-159	179	-27
11925584	-164	191	-22
11925912	-165	176	-21
11926240	-117	151	-8
11926568	-99	194	-6
11926896	-55	193	-6
11927224	-23	139	7
11927552	-13	177	9
11927880	-3	221	9
11928208	-42	162	28
11928536	-63	195	29
11928864	-68	185	33
11929192	-87	143	24
11929520	-101	188	26
11929848	-71	140	29
11930176	-74	149	10
11930504	-18	145	0
11930832	-36	140	-1
11931160	-63	160	-19
11931488	-37	132	-22
11931816	-27	120	-33
11932144	-51	137	-37
11932472	-41	112	-47
11932800	-27	109	-47
11933128	-29	122	-50
11933456	-7	97	-58
11933784	0	92	-58
11934112	4	113	-67
11934440	-13	127	-47
11934768	-32	100	-54
11935096	-57	124	-59
11935424	-72	107	-50
11935752	-70	126	-51
11936080	-70	100	-63
11936408	-85	118	-65
11936736	-95	108	-64
11937064	-103	95	-61
11937392	-87	124	-67
11937720	-84	121	-69
11938048	-77	105	-69
11938376	-66	97	-71
11938704	-66	113	-66
11939032	-59	105	-68
11939360	-79	115	-69
11939688	-84	129	-72
11940016	-100	110	-69
11940344	-89	109	-71
11940672	-105	104	-70
11941000	-102	101	-71
11941328	-91	128	-61
11941656	-69	90	-70
11941984	-75	108	-58
11942312	-82	146	-62
11942640	-68	108	-51
11942968	-86	100	-55
11943296	-74	135	-55
11943624	-72	110	-53
11943952	-74	87	-48
11944280	-43	116	-62
11944608	-56	128	-57
11944936	-59	95	-48
11945264	-69	118	-48
11945592	-85	122	-53
11945920	-95	107	-39
11946248	-105	102	-32
11946576	-130	147	-37
11946904	-149	136	-22
11947232	-146	145	-12
11947560	-119	147	-19
11947888	-90	132	-20
11948216	-101	132	-18
11948544	-84	167	-18
11948872	-111	145	0
11949200	-79	131	0
11949528	-91	160	-7
11949856	-114	144	-1
11950184	-128	154	8
11950512	-137	156	0
11950840	-130	166	6
11951168	-109	147	-2
11951496	-123	141	10
11951824	-104	169	6
11952152	-77	147	-3
11952480	-58	126	-2
11952808	-28	153	0
11953136	-29	166	1
11953464	-14	157	-8
11953792	-12	130	-12
11954120	-14	141	-4
11954448	9	136	-13
11954776	-19	121	-13
11955104	-27	155	-10
11955432	-38	141	-5
11955760	-108	149	-19
11956088	-91	148	-17
11956416	-96	153	-14
11956744	-86	146	-19
11957072	-57	125	-17
11957400	-75	144	-17
11957728	-68	172	-8
11958056	-67	150	-19
11958384	-57	155	-21
11958712	-69	128	-5
11959040	-65	153	-19
11959368	-68	178	-9
11959696	-97	154	-24
11960024	-102	131	-16
11960352	-112	135	-15
11960680	-78	164	-30
11961008	-69	142	-42
11961336	-71	113	-37
11961664	-68	157	-35
11961992	-68	164	-38
11962320	-48	147	-37
11962648	-53	121	-31
11962976	-57	156	-26
11963304	-78	140	-47
11963632	-95	118	-34
11963960	-80	119	-38
11964288	-39	127	-44
11964616	-41	139	-45
11964944	-72	153	-40
11965272	-89	132	-29
11965600	-91	112	-42
11965928	-95	141	-42
11966256	-129	164	-41
11966584	-83	140	-22
11966912	-95	138	-39
11967240	-78	153	-38
11967568	-120	136	-30
11967896	-130	133	-29
11968224	-116	150	-36
11968552	-102	148	-30
11968880	-88	108	-30
11969208	-78	145	-27
11969536	-66	130	-34
11969864	-72	118	-31
11970192	-64	143	-32
11970520	-61	131	-28
11970848	-36	141	-30
11971176	-43	168	-23
11971504	-43	183	-22
11971832	-85	171	-27
11972160	-74	135	-23
11972488	-71	142	-12
11972816	-49	179	-15
11973144	-22	133	-28
11973472	-16	120	-19
11973800	-6	139	-15
11974128	17	112	-22
11974456	-6	135	-7
11974784	-4	158	-8
11975112	-26	140	-7
11975440	-26	161	-4
11975768	-29	172	2
11976096	18	138	3
11976424	5	147	-10
11976752	16	141	-10
11977080	0	142	0
11977408	-17	135	-19
11977736	-30	144	-4
11978064	-41	165	-10
11978392	-26	182	-13
11978720	-52	199	-15
11979048	-68	211	13
11979376	-84	188	5
11979704	-94	160	-2
11980032	-141	195	15
11980360	-151	210	15
11980688	-167	201	5
11981016	-154	186	2
11981344	-205	202	10
11981672	-198	225	26
11982000	-197	188	16
11982328	-201	193	9
11982656	-199	206	3
11982984	-223	181	4
11983312	-200	192	2
11983640	-222	215	7
11983968	-221	209	12
11984296	-227	149	9
11984624	-195	145	9
11984952	-172	186	7
11985280	-171	182	15
11985608	-160	139	9
11985936	-126	158	19
11986264	-99	192	21
11986592	-91	169	28
11986920	-109	162	35
11987248	-128	200	37
11987576	-133	205	35
11987904	-146	148	47
11988232	-113	203	47
11988560	-44	174	47
11988888	-50	151	48
11989216	-41	174	53
11989544	-22	174	47
11989872	-48	147	44
11990200	-42	150	46
11990528	-40	172	46
11990856	-34	190	40
11991184	14	146	30
11991512	0	150	41
11991840	-10	174	22
11992168	-6	149	33
11992496	-16	166	26
11992824	-27	167	19
11993152	-34	164	19
11993480	-38	167	25
11993808	-8	161	27
11994136	-1	154	29
11994464	2	157	16
11994792	27	127	12
11995120	24	156	11
11995448	16	183	15
11995776	1	150	-4
11996104	18	122	1
11996432	-16	157	6
11996760	-55	141	12
11997088	-41	115	1
11997416	-38	133	-17
11997744	-12	142	-8
11998072	-13	114	-18
11998400	-27	143	-5
11998728	-13	167	-16
11999056	-7	122	-8
11999384	-22	126	-7
11999712	-25	163	-28
12000040	-60	140	-31
12000368	-53	111	-31
12000696	-79	155	-34
12001024	-70	153	-33
12001352	-77	122	-51
12001680	-83	138	-45
12002008	-82	151	-36
12002336	-78	110	-51
12002664	-64	115	-59
12002992	-57	142	-53
12003320	-51	131	-48
12003648	-64	101	-55
12003976	-46	140	-48
12004304	-33	129	-65
12004632	-23	110	-52
12004960	-4	123	-53
12005288	3	120	-53
12005616	5	83	-56
12005944	16	99	-57
12006272	2	95	-42
12006600	0	123	-50
12006928	-25	109	-50
12007256	-27	102	-44
12007584	-60	152	-44
12007912	-61	142	-60
12008240	-83	113	-47
12008568	-93	133	-36
12008896	-105	140	-42
12009224	-73	114	-43
12009552	-36	149	-47
12009880	-40	145	-43
12010208	-31	148	-38
12010536	-46	120	-35
12010864	-49	149	-39
12011192	-11	140	-20
12011520	-10	115	-36
12011848	21	109	-34
12012176	31	108	-42
12012504	37	102	-38
12012832	56	97	-43
12013160	49	90	-41
12013488	39	95	-45
12013816	41	111	-43
12014144	15	116	-37
12014472	5	131	-38
12014800	1	132	-31
12015128	8	136	-43
12015456	11	141	-34
12015784	34	119	-30
12016112	28	103	-31
12016440	-7	148	-35
12016768	3	160	-30
12017096	-5	116	-22
12017424	-31	164	-13
12017752	-51	196	-21
12018080	-83	154	-16
12018408	-80	156	-28
12018736	-62	157	-37
12019064	-49	174	-40
12019392	-26	133	-50
12019720	-6	139	-36
12020048	-23	133	-39
12020376	-21	133	-47
12020704	-43	145	-43
12021032	-40	132	-44
12021360	-75	164	-36
12021688	-107	179	-41
12022016	-97	153	-36
12022344	-97	178	-30
12022672	-75	203	-11
12023000	-57	175	-14
12023328	-65	173	-12
12023656	-46	170	-7
12023984	-48	193	-23
12024312	-65	177	-13
12024640	-52	179	-14
12024968	-64	158	-8
12025296	-77	126	-19
12025624	-83	147	-23
12025952	-79	164	-20
12026280	-94	150	-13
12026608	-91	136	-30
12026936	-53	144	-24
12027264	-48	165	-36
12027592	-29	141	-26
12027920	-36	131	-41
12028248	-18	144	-43
12028576	-10	114	-44
12028904	6	90	-36
12029232	24	120	-41
12029560	11	137	-45
12029888	8	119	-27
12030216	-17	144	-27
12030544	-57	142	-18
12030872	-63	129	-17
12031200	-45	138	-10
12031528	-4	150	-16
12031856	-4	130	-16
12032184	-18	147	16
12032512	-81	192	3
12032840	-98	159	2
12033168	-95	158	6
12033496	-95	166	4
12033824	-34	130	9
12034152	-54	144	15
12034480	-88	154	12
12034808	-83	157	1
12035136	-71	153	17
12035464	-71	185	16
12035792	-74	196	15
12036120	-96	155	21
12036448	-88	151	14
12036776	-58	182	19
12037104	-60	189	21
12037432	-46	187	30
12037760	-82	163	23
12038088	-103	190	31
12038416	-77	200	38
12038744	-68	168	36
12039072	-88	176	36
12039400	-80	196	36
12039728	-87	200	39
12040056	-119	197	51
12040384	-98	165	34
12040712	-72	177	34
12041040	-42	183	38
12041368	-27	166	50
12041696	-8	171	36
12042024	-10	152	43
12042352	-9	160	33
12042680	31	158	30
12043008	45	142	22
12043336	55	154	14
12043664	56	160	14
12043992	72	150	47
12044320	83	129	32
12044648	88	159	38
12044976	180	186	32
12045304	166	141	50
12045632	148	80	38
12045960	109	149	69
12046288	105	206	64
12046616	98	234	85
12046944	194	140	111
12047272	174	196	142
12047600	167	286	186
12047928	126	352	229
12048256	163	431	270
12048584	145	446	295
12048912	40	590	346
12049240	66	679	412
12049568	167	761	445
12049896	78	830	476
12050224	193	273	521
12050552	49	1180	558
12050880	-174	1504	709
12051208	-194	1417	789
12051536	-302	1686	837
12051864	-11	2117	1019
12052192	-313	2327	1120
12052520	-244	2653	1344
12052848	-640	3202	1676
12053176	-620	3656	1845
12053504	-665	3194	2015
12053832	-874	3100	2074
12054160	-852	3514	2201
12054488	-660	3838	2417
12054816	-494	3608	2578
12055144	215	3201	2775
12055472	157	3051	3015
12055800	321	3256	3158
12056128	267	3500	3304
12056456	832	3465	3313
12056784	1132	3057	3340
12057112	1932	2659	3219
12057440	1812	2541	3098
12057768	1491	2859	2848
12058096	729	2930	2708
12058424	150	2633	2452
12058752	-144	2304	2202
12059080	181	1926	1706
12059408	-17	2154	1285
12059736	605	2398	531
12060064	965	1513	-129
12060392	556	348	-789
12060720	-69	-434	-1440
12061048	-865	-673	-1660
12061376	-1342	-729	-2060
12061704	-1303	-945	-2236
12062032	-1318	-1198	-2270
12062360	-887	-1563	-2338
12062688	-1090	-2194	-2109
12063016	-1868	-2742	-2208
12063344	-2405	-3583	-2325
12063672	-3447	-4604	-2224
12064000	-4566	-5429	-2059
12064328	-5450	-6460	-1753
12064656	-6716	-7084	-1857
12064984	-7181	-7163	-2532
12065312	-7306	-6284	-2966
12065640	-8084	-4705	-3850
12065968	-3051	-7535	-3556
12066296	-2586	-8509	-2488
12066624	3068	-2978	-1091
12066952	6022	3308	-505
12067280	6742	550	1168
12067608	6166	-2613	1321
12067936	4985	-1108	1892
12068264	3463	471	1592
12068592	2327	415	1755
12068920	2385	-87	1091
12069248	2811	-458	1040
12069576	3055	-270	602
12069904	2621	-94	346
12070232	2067	-29	-165
12070560	1531	149	-423
12070888	423	203	-666
12071216	-841	512	-888
12071544	-758	620	-902
12071872	-446	-151	-704
12072200	-815	1170	-201
12072528	-504	1671	256
12072856	-682	843	394
12073184	-345	518	309
12073512	-645	1222	-207
12073840	11329	-1206	-511
12074168	3994	1790	-1045
12074496	5218	18836	-2552
12074824	9592	32767	-4319
12075152	3728	-2742	-627
12075480	-20142	-8147	-2328
12075808	27081	3295	5162
12076136	6214	-6625	7524
12076464	-1429	1737	7840
12076792	8344	4749	4533
12077120	-4464	-1668	-1341
12077448	-3142	-8766	-5156
12077776	-9468	-12229	-1342
12078104	-10508	-1034	3622
12078432	-5814	10712	-1282
12078760	3434	5809	-5425
12079088	4032	-6148	-4782
12079416	9653	-6373	-4272
12079744	9760	-3021	-2496
12080072	7089	-4583	-2035
12080400	3143	-6564	-2239
12080728	-1520	-5896	-2098
12081056	-2683	-2010	-1835
12081384	-2600	220	-1958
12081712	-1808	-1058	-1827
12082040	355	-2837	-1801
12082368	3111	-942	-1718
12082696	2284	299	-1679
12083024	2393	752	-1808
12083352	1599	515	-1816
12083680	762	-84	-1628
12084008	-81	-1271	-1175
12084336	-1128	-1539	-837
12084664	-1173	-897	-761
12084992	-1091	-235	-757
12085320	-810	-229	-623
12085648	-878	-491	-585
12085976	-860	-675	-527
12086304	-1139	-811	-514
12086632	-1537	-404	-501
12086960	-1881	-164	-433
12087288	-2268	-176	-384
12087616	-2239	-242	-367
12087944	-1504	-325	-436
12088272	-548	-500	-510
12088600	565	-266	-459
12088928	1393	-61	-438
12089256	1883	64	-425
12089584	2085	-155	-406
12089912	1914	-53	-303
12090240	1583	224	-255
12090568	1090	199	-250
12090896	653	-51	-229
12091224	301	-153	-200
12091552	220	-3	-164
12091880	113	136	-132
12092208	-11	37	-87
12092536	-64	-35	-66
12092864	-230	-6	-45
12093192	-343	-24	-41
12093520	-410	9	-9
12093848	-574	67	32
12094176	-607	22	45
12094504	-683	-13	34
12094832	-688	-4	18
12095160	-638	38	39
12095488	-529	117	43
12095816	-398	126	35
12096144	-273	89	19
12096472	-46	139	-15
12096800	141	113	-54
12097128	295	133	-56
12097456	402	186	-62
12097784	392	187	-64
12098112	294	161	-65
12098440	222	141	-48
12098768	142	99	-48
12099096	14	125	-34
12099424	-74	140	-44
12099752	-133	79	-42
12100080	-222	16	-54
12100408	-329	109	-19
12100736	-393	157	-8
12101064	-439	23	6
12101392	-500	23	-2
12101720	-506	132	5
12102048	-432	56	18
12102376	-382	41	30
12102704	-361	118	15
12103032	-277	114	22
12103360	-252	99	25
12103688	-196	116	29
12104016	-113	136	27
12104344	5	108	13
12104672	66	114	11
12105000	118	121	16
12105328	73	147	9
12105656	80	126	10
12105984	48	114	12
12106312	-4	125	1
12106640	2	87	11
12106968	-11	87	17
12107296	-8	100	4
12107624	-30	70	4
12107952	-28	70	10
12108280	-21	84	-7
12108608	-57	43	-4
12108936	-52	54	-2
12109264	-25	55	-6
12109592	13	52	-4
12109920	19	49	-3
12110248	20	69	-2
12110576	42	49	0
12110904	49	47	-2
12111232	109	106	-26
12111560	153	72	-34
12111888	165	54	-36
12112216	132	107	-24
12112544	110	110	-21
12112872	60	73	-28
12113200	67	100	-21
12113528	83	112	-24
12113856	76	100	-21
12114184	77	77	-35
12114512	82	94	-37
12114840	101	76	-44
12115168	89	86	-53
12115496	92	127	-44
12115824	130	85	-46
12116152	126	87	-56
12116480	146	105	-49
12116808	143	68	-52
12117136	136	98	-52
12117464	167	83	-59
12117792	196	102	-46
12118120	176	96	-54
12118448	144	138	-52
12118776	118	132	-39
12119104	65	141	-49
12119432	15	137	-46
12119760	30	130	-39
12120088	54	143	-28
12120416	49	176	-33
12120744	63	165	-19
12121072	70	146	-24
12121400	80	142	-27
12121728	43	118	-25
12122056	80	114	-30
12122384	58	122	-14
12122712	34	129	-10
12123040	57	148	-20
12123368	32	106	-27
12123696	36	102	-33
12124024	82	134	-39
12124352	6	124	-32
12124680	37	147	-38
12125008	3	125	-22
12125336	-42	127	-28
12125664	-60	138	-39
12125992	-41	118	-36
12126320	-58	113	-29
12126648	-33	144	-43
12126976	-106	98	-36
12127304	-60	111	-49
12127632	-95	127	-52
12127960	-125	150	-49
12128288	-163	173	-43
12128616	-220	153	-41
12128944	-266	170	-39
12129272	-289	163	-41
12129600	-287	148	-42
12129928	-252	151	-25
12130256	-230	177	-41
12130584	-211	159	-37
12130912	-212	145	-38
12131240	-218	143	-51
12131568	-220	159	-53
12131896	-267	147	-57
12132224	-301	103	-66
12132552	-300	130	-49
12132880	-286	153	-49
12133208	-281	117	-58
12133536	-238	122	-35
12133864	-198	118	-56
12134192	-147	134	-43
12134520	-132	150	-54
12134848	-124	90	-56
12135176	-128	61	-63
12135504	-129	128	-66
12135832	-197	123	-53
12136160	-238	92	-63
12136488	-220	81	-56
12136816	-219	107	-47
12137144	-175	115	-56
12137472	-108	86	-53
12137800	-79	94	-57
12138128	-31	111	-50
12138456	-34	86	-49
12138784	-96	93	-55
12139112	-125	147	-48
12139440	-128	132	-45
12139768	-104	84	-47
12140096	-67	118	-36
12140424	-53	146	-41
12140752	-48	140	-34
12141080	-29	133	-31
12141408	-23	112	-32
12141736	-23	161	-22
12142064	2	123	-39
12142392	36	96	-31
12142720	40	91	-25
12143048	29	139	-25
12143376	31	168	-20
12143704	25	111	-25
12144032	-5	120	-34
12144360	21	139	-37
12144688	17	153	-4
12145016	-18	137	-22
12145344	1	132	-26
12145672	4	157	-16
12146000	26	166	-34
12146328	-1	141	-13
12146656	-48	185	-13
12146984	-59	166	-9
12147312	-101	136	1
12147640	-100	190	-1
12147968	-147	173	-9
12148296	-138	139	-10
12148624	-106	152	-3
12148952	-96	162	-11
12149280	-91	163	-7
12149608	-112	149	-10
12149936	-118	190	-16
12150264	-110	167	-14
12150592	-102	137	-6
12150920	-92	194	1
12151248	-83	202	-9
12151576	-98	155	2
12151904	-66	141	-11
12152232	-44	175	-1
12152560	-25	184	-4
12152888	-47	157	-9
12153216	-9	168	-6
12153544	-27	169	1
12153872	-10	167	-2
12154200	-33	164	-14
12154528	-28	142	-13
12154856	-62	130	-18
12155184	-89	143	-13
12155512	-80	142	-7
12155840	-95	92	-10
12156168	-37	105	-10
12156496	-17	149	-9
12156824	4	153	-7
12157152	25	150	-6
12157480	11	145	2
12157808	35	153	-3
12158136	36	141	-1
12158464	8	176	12
12158792	-24	173	5
12159120	-39	128	2
12159448	2	144	-17
12159776	-23	208	21
12160104	-63	146	3
12160432	-30	136	6
12160760	8	169	30
12161088	-21	157	18
12161416	-18	168	7
12161744	-3	149	17
12162072	-25	143	14
12162400	8	154	-7
12162728	-11	154	5
12163056	-6	160	16
12163384	-27	163	9
12163712	-15	156	1
12164040	-7	145	3
12164368	-8	171	4
12164696	-45	140	-6
12165024	-48	137	0
12165352	-69	163	-11
12165680	-50	135	-12
12166008	-45	125	-18
12166336	-33	153	-7
12166664	-28	148	-29
12166992	-31	138	-31
12167320	-50	147	-18
12167648	-65	151	-27
12167976	-67	149	-23
12168304	-73	149	-30
12168632	-66	154	-27
12168960	-38	160	-35
12169288	-47	140	-34
12169616	-46	142	-37
12169944	-75	140	-30
12170272	-87	132	-37
12170600	-109	155	-45
12170928	-110	150	-40
12171256	-87	151	-33
12171584	-101	130	-35
12171912	-104	143	-35
12172240	-98	145	-44
12172568	-55	135	-30
12172896	-42	143	-33
12173224	-52	152	-36
12173552	-55	162	-30
12173880	-64	167	-25
12174208	-48	154	-30
12174536	-26	147	-36
12174864	-1	154	-29
12175192	18	142	-27
12175520	-5	167	-20
12175848	-10	148	-30
12176176	-33	130	-42
12176504	-46	176	-30
12176832	-18	165	-29
12177160	-26	135	-34
12177488	-4	151	-32
12177816	11	174	-15
12178144	3	142	-40
12178472	8	177	-31
12178800	-1	169	-24
12179128	-12	138	-15
12179456	-35	159	-23
12179784	-29	175	-27
12180112	-33	134	-26
12180440	-62	165	-14
12180768	-43	157	-24
12181096	-33	131	-29
12181424	-24	163	-35
12181752	-8	167	-19
12182080	-27	147	-31
12182408	-16	159	-34
12182736	-17	159	-27
12183064	-28	139	-23
12183392	-17	165	-23
12183720	1	168	-14
12184048	-8	160	-28
12184376	-4	146	-30
12184704	-17	153	-27
12185032	-41	171	-31
12185360	-31	136	-35
12185688	-48	134	-33
12186016	-45	160	-18
12186344	-22	151	-16
12186672	-35	146	-26
12187000	-18	182	-39
12187328	-47	171	-33
12187656	-38	151	-38
12187984	-4	159	-23
12188312	-37	182	-34
12188640	-30	157	-30
12188968	-40	147	-22
12189296	-66	183	-34
12189624	-76	174	-21
12189952	-88	189	-34
12190280	-93	167	-30
12190608	-96	191	-40
12190936	-75	182	-18
12191264	-49	169	-22
12191592	-55	193	-19
12191920	-42	167	-6
12192248	-64	176	-22
12192576	-62	186	-24
12192904	-37	179	-17
12193232	-4	169	-16
12193560	-16	168	-5
12193888	-8	168	-6
12194216	-20	179	2
12194544	-14	184	9
12194872	-14	166	-15
12195200	-4	164	-14
12195528	-25	169	-18
12195856	-29	161	-2
12196184	-36	159	-21
12196512	-29	157	-20
12196840	-44	179	-19
12197168	-40	147	-21
12197496	-38	144	-7
12197824	-50	165	-18
12198152	-36	188	-12
12198480	-55	163	-22
12198808	-59	158	-33
12199136	-60	177	-18
12199464	-48	161	-19
12199792	-43	167	-31
12200120	-80	155	-34
12200448	-72	147	-30
12200776	-74	160	-38
12201104	-77	154	-27
12201432	-64	147	-33
12201760	-40	132	-39
12202088	-25	165	-49
12202416	-31	159	-35
12202744	-40	158	-43
12203072	-28	151	-35
12203400	-44	150	-47
12203728	-30	169	-39
12204056	-26	146	-50
12204384	-30	127	-42
12204712	-49	192	-35
12205040	-31	148	-37
12205368	-48	121	-47
12205696	-19	159	-35
12206024	-16	146	-47
12206352	-10	148	-41
12206680	-20	157	-43
12207008	-16	152	-48
12207336	-32	124	-41
12207664	-44	160	-44
12207992	-47	146	-42
12208320	-62	150	-41
12208648	-70	155	-51
12208976	-61	161	-47
12209304	-57	154	-43
12209632	-44	143	-49
12209960	-47	152	-47
12210288	-45	152	-44
12210616	-66	143	-48
12210944	-64	146	-53
12211272	-26	142	-56
12211600	-11	174	-54
12211928	-6	151	-52
12212256	-16	142	-46
12212584	-8	151	-55
12212912	-13	161	-55
12213240	-20	146	-55
12213568	-29	155	-51
12213896	-17	154	-35
12214224	-11	157	-53
12214552	-12	167	-41
12214880	-20	155	-47
12215208	-3	140	-37
12215536	-13	158	-42
12215864	26	162	-42
12216192	50	135	-43
12216520	38	144	-43
12216848	39	161	-49
12217176	57	158	-34
12217504	58	164	-40
12217832	55	147	-42
12218160	62	150	-42
12218488	51	149	-35
12218816	51	170	-25
12219144	53	164	-24
12219472	40	151	-21
12219800	40	143	-24
12220128	50	160	-30
12220456	13	146	-31
12220784	18	163	-27
12221112	16	144	-30
12221440	22	138	-44
12221768	24	170	-27
12222096	-15	158	-42
12222424	-19	142	-32
12222752	-28	152	-42
12223080	-33	156	-46
12223408	-42	137	-32
12223736	-44	150	-38
12224064	-49	164	-41
12224392	-47	144	-44
12224720	-37	125	-34
12225048	-39	141	-44
12225376	-51	145	-45
12225704	-44	137	-40
12226032	-53	148	-42
12226360	-41	155	-39
12226688	-41	141	-44
12227016	-40	129	-41
12227344	-49	139	-37
12227672	-32	131	-44
12228000	-42	140	-40
12228328	-39	141	-36
12228656	-56	125	-36
12228984	-55	138	-45
12229312	-80	149	-46
12229640	-59	133	-46
12229968	-63	148	-43
12230296	-62	145	-42
12230624	-71	140	-42
12230952	-80	131	-43
12231280	-51	133	-27
12231608	-51	145	-32
12231936	-63	140	-30
12232264	-75	127	-31
12232592	-83	149	-31
12232920	-104	148	-20
12233248	-123	147	-28
12233576	-139	162	-32
12233904	-131	155	-28
12234232	-126	162	-33
12234560	-132	197	-19
12234888	-132	156	-31
12235216	-140	153	-38
12235544	-132	194	-42
12235872	-127	193	-42
12236200	-155	154	-39
12236528	-163	203	-44
12236856	-143	178	-48
12237184	-121	173	-61
12237512	-96	217	-77
12237840	-81	202	-92
12238168	-56	214	-90
12238496	-54	245	-58
12238824	-89	256	-32
12239152	18	240	26
12239480	6	339	19
12239808	161	288	-16
12240136	251	123	-4
12240464	215	228	40
12240792	147	371	33
12241120	-100	218	15
12241448	-97	348	27
12241776	-66	429	42
12242104	-97	363	22
12242432	-104	322	18
12242760	-106	394	32
12243088	-90	497	40
12243416	-14	583	18
12243744	33	557	-4
12244072	98	567	35
12244400	185	619	52
12244728	272	691	31
12245056	368	581	-36
12245384	444	457	-82
12245712	309	482	-127
12246040	359	603	-86
12246368	205	714	-64
12246696	133	745	-75
12247024	162	652	-119
12247352	339	436	-182
12247680	537	566	-155
12248008	622	1005	-60
12248336	564	929	-36
12248664	705	475	-107
12248992	698	381	-144
12249320	779	563	-74
12249648	712	814	-57
12249976	611	730	-56
12250304	435	502	-113
12250632	527	545	-106
12250960	159	859	-132
12251288	174	866	-137
12251616	-54	494	-178
12251944	-41	425	-250
12252272	-130	587	-266
12252600	-107	551	-273
12252928	-182	494	-237
12253256	-281	659	-242
12253584	-314	590	-187
12253912	-475	358	-169
12254240	-373	231	-147
12254568	-395	251	-92
12254896	-385	324	-12
12255224	-458	345	80
12255552	-467	173	110
12255880	-445	7	170
12256208	-368	69	209
12256536	-150	77	245
12256864	-60	-226	290
12257192	40	-498	337
12257520	60	-351	412
12257848	63	-198	451
12258176	-38	-231	476
12258504	34	-225	501
12258832	105	-126	551
12259160	29	47	615
12259488	3	210	687
12259816	-116	228	762
12260144	-175	299	832
12260472	-257	449	937
12260800	-303	553	1040
12261128	-304	547	1140
12261456	-333	591	1273
12261784	-300	677	1359
12262112	-258	566	1431
12262440	-269	524	1543
12262768	-222	760	1683
12263096	-338	874	1811
12263424	-537	724	1894
12263752	-669	680	2009
12264080	-688	731	2130
12264408	-656	771	2184
12264736	-580	691	2228
12265064	-498	777	2289
12265392	-388	939	2336
12265720	-458	986	2370
12266048	-535	889	2416
12266376	-455	769	2412
12266704	-432	694	2432
12267032	-382	696	2437
12267360	-356	834	2515
12267688	-372	906	2654
12268016	-414	784	2710
12268344	-209	568	2925
12268672	-64	600	2962
12269000	342	826	3018
12269328	556	959	3086
12269656	736	929	3266
12269984	932	905	3355
12270312	1266	763	3374
12270640	980	772	3461
12270968	949	880	3523
12271296	513	1036	3520
12271624	152	922	3518
12271952	-90	705	3470
12272280	-122	317	3344
12272608	-1062	1422	3293
12272936	-1039	2460	3317
12273264	-1494	2590	3476
12273592	-470	787	3608
12273920	201	-1241	3732
12274248	1399	-2360	3703
12274576	2411	-2898	3667
12274904	3114	-3246	3655
12275232	3955	-3518	3175
12275560	4388	-4064	3037
12275888	4937	-4451	2817
12276216	4848	-4716	2687
12276544	4036	-4736	2545
12276872	2699	-4784	2452
12277200	901	-5009	2305
12277528	-731	-5078	2076
12277856	-1891	-5033	1762
12278184	-2376	-5627	1324
12278512	-2003	-6543	573
12278840	-1322	-7147	-117
12279168	330	-7128	-753
12279496	1426	-6637	-1049
12279824	5515	-6352	-1004
12280152	7770	-5938	-789
12280480	4881	-2548	-514
12280808	7412	-287	451
12281136	7160	-289	399
12281464	7219	-845	590
12281792	4464	-2366	420
12282120	793	-1420	-485
12282448	-1591	689	-1873
12282776	-3745	1243	-2866
12283104	-4741	1847	-3159
12283432	-4204	1913	-2596
12283760	-4016	1390	-2124
12284088	-3767	854	-2114
12284416	-3604	815	-2031
12284744	-2757	1189	-1782
12285072	-2253	1261	-1470
12285400	-1641	1080	-1370
12285728	-683	793	-1305
12286056	15	1037	-996
12286384	159	1010	-877
12286712	-88	1028	-868
12287040	30	1035	-822
12287368	0	914	-810
12287696	104	868	-677
12288024	516	936	-527
12288352	853	824	-370
12288680	1307	493	-297
12289008	1607	562	-198
12289336	1587	933	-184
12289664	1466	1114	-220
12289992	1007	1036	-191
12290320	452	977	-199
12290648	67	979	-178
12290976	-244	834	-140
12291304	-234	802	-78
12291632	-11	794	31
12291960	221	778	42
12292288	505	593	35
12292616	801	420	34
12292944	1080	469	74
12293272	1116	635	82
12293600	864	643	-14
12293928	493	515	12
12294256	1	388	44
12294584	-287	428	79
12294912	-409	428	129
12295240	-365	371	134
12295568	-304	415	106
12295896	-224	429	61
12296224	-182	370	43
12296552	-187	270	13
12296880	-259	286	-8
12297208	-337	320	-17
12297536	-414	263	-24
12297864	-474	162	-45
12298192	-446	133	-59
12298520	-306	113	-72
12298848	-273	96	-76
12299176	-244	108	-90
12299504	-279	84	-109
12299832	-263	125	-118
12300160	-277	129	-101
12300488	-295	94	-73
12300816	-403	37	-72
12301144	-509	27	-74
12301472	-488	45	-80
12301800	-538	58	-95
12302128	-536	12	-75
12302456	-513	-23	-42
12302784	-557	10	-8
12303112	-552	84	2
12303440	-553	147	9
12303768	-698	220	73
12304096	-699	211	83
12304424	-663	231	110
12304752	-652	263	168
12305080	-602	279	198
12305408	-552	314	251
12305736	-527	358	332
12306064	-396	361	394
12306392	-274	395	462
12306720	-72	409	561
12307048	43	461	654
12307376	176	645	755
12307704	327	901	854
12308032	510	1062	937
12308360	586	1232	1035
12308688	526	1607	1124
12309016	244	1990	1184
12309344	-460	2331	1232
12309672	-631	2431	1392
12310000	-690	2104	1719
12310328	-459	1866	2141
12310656	155	1757	2551
12310984	941	1560	2763
12311312	1671	1561	2938
12311640	2461	1760	3041
12311968	2932	1943	3173
12312296	2379	2259	3269
12312624	2364	2554	3196
12312952	1587	2249	3309
12313280	1520	1606	3434
12313608	1174	254	3394
12313936	791	-858	3493
12314264	546	-1467	3454
12314592	487	-1861	3407
12314920	556	-2036	3508
12315248	542	-2243	3295
12315576	442	-3209	3591
12315904	-276	-3696	3895
12316232	-1262	-3905	4119
12316560	-2108	-4570	4273
12316888	-2605	-5345	4234
12317216	-2225	-5818	3945
12317544	-1975	-5687	3591
12317872	-1680	-4940	3186
12318200	-1068	-4362	2715
12318528	-695	-4284	2214
12318856	867	-3998	1615
12319184	2710	-4212	1395
12319512	2877	-3844	1339
12319840	4517	-2916	1033
12320168	5957	-3437	1028
12320496	6105	-3078	892
12320824	5807	-481	394
12321152	7581	2007	-85
12321480	9531	870	-658
12321808	9787	-934	-1931
12322136	5462	1129	-4191
12322464	2525	4147	-6629
12322792	-970	2851	-7155
12323120	-4443	3098	-6386
12323448	-5257	5447	-5464
12323776	-6157	5310	-5518
12324104	-5476	5139	-5149
12324432	-3620	4872	-4521
12324760	-1530	4173	-3065
12325088	1145	3781	-2211
12325416	2336	3358	-1950
12325744	3056	2774	-1380
12326072	3326	2541	-1807
12326400	4224	4945	-1369
12326728	6575	4525	-1013
12327056	5774	-1791	443
12327384	7988	-1695	-266
12327712	7983	3231	-396
12328040	7192	3364	-571
12328368	4243	1780	-579
12328696	1550	2067	-199
12329024	-384	1579	758
12329352	-403	273	503
12329680	296	629	-72
12330008	1768	1057	-288
12330336	2992	1149	-115
12330664	2970	904	11
12330992	1892	426	-41
12331320	367	-137	-121
12331648	-736	-143	-83
12331976	-785	378	48
12332304	-324	472	134
12332632	479	-131	73
12332960	967	-384	-63
12333288	954	-263	-139
12333616	322	-236	-121
12333944	-71	-621	-72
12334272	-278	-712	-147
12334600	-239	-417	-110
12334928	-252	-1148	-264
12335256	-494	-945	-367
12335584	-904	-919	-155
12335912	-1056	-1373	-60
12336240	-878	-2126	0
12336568	-648	-2578	158
12336896	-101	-2909	237
12337224	181	-3097	443
12337552	142	-3468	616
12337880	9	-3831	668
12338208	-52	-3591	730
12338536	18	-3338	839
12338864	-176	-3376	1073
12339192	-233	-3637	1325
12339520	-32	-3663	1667
12339848	633	-3954	2162
12340176	1103	-4080	2835
12340504	1891	-3789	3351
12340832	2952	-3468	3785
12341160	4090	-3387	4329
12341488	4613	-3263	4948
12341816	4660	-3171	5940
12342144	3483	-2712	6834
12342472	1966	-1985	7728
12342800	1728	-1733	8456
12343128	2347	-2187	8954
12343456	4945	-2165	10542
12343784	7213	-1828	11692
12344112	9866	-747	11456
12344440	10514	641	11347
12344768	4476	3583	9990
12345096	8603	2293	7926
12345424	19345	-4559	5531
12345752	8161	-2159	2976
12346080	16182	2837	-706
12346408	9453	2897	-1367
12346736	13564	-102	-2631
12347064	12304	-953	-5065
12347392	11228	-336	-8327
12347720	8635	-467	-11588
12348048	4792	-1259	-13570
12348376	2705	-2438	-13470
12348704	945	-5704	-13321
12349032	520	-8267	-13018
12349360	1983	-10304	-13421
12349688	2750	-12536	-13935
12350016	4425	-14753	-13636
12350344	6535	-15864	-13546
12350672	7796	-16224	-13640
12351000	10503	-16542	-13304
12351328	12453	-18269	-12927
12351656	12949	-20933	-12065
12351984	13666	-22604	-11104
12352312	14593	-24137	-10737
12352640	13287	-23485	-9814
12352968	12919	-21353	-9270
12353296	12083	-18761	-8329
12353624	11342	-16764	-7554
12353952	9704	-16155	-6339
12354280	8415	-16941	-4398
12354608	6221	-16360	-2735
12354936	5046	-14289	-2672
12355264	4829	-12092	-2550
12355592	6053	-9408	-2602
12355920	7626	-4986	-1806
12356248	8809	-1418	-448
12356576	8269	760	1091
12356904	8308	2987	2330
12357232	7346	4962	3408
12357560	6734	8009	4316
12357888	8282	10169	5226
12358216	8475	11394	5460
12358544	6044	9858	5815
12358872	6036	5366	5236
12359200	3166	5243	3795
12359528	3458	7161	2174
12359856	2637	7717	962
12360184	3165	7105	515
12360512	4415	5514	1315
12360840	5484	1721	2834
12361168	5337	918	3445
12361496	5655	3167	2796
12361824	4902	3848	1810
12362152	4345	3892	1361
12362480	3706	3530	898
12362808	3258	2970	647
12363136	2737	2648	646
12363464	2525	2479	776
12363792	2394	2436	641
12364120	2627	1930	466
12364448	2733	1769	468
12364776	2730	2236	200
12365104	2363	2767	205
12365432	1896	2848	248
12365760	1535	3048	165
12366088	617	2911	35
12366416	236	3163	145
12366744	-298	3005	20
12367072	-306	2842	72
12367400	-805	2614	166
12367728	-759	2381	254
12368056	-980	2432	302
12368384	-387	2414	313
12368712	16	1745	406
12369040	415	1481	460
12369368	789	1522	716
12369696	1232	932	1191
12370024	1234	349	1405
12370352	1440	535	1481
12370680	1359	304	1414
12371008	1341	-462	1244
12371336	1356	-1169	1130
12371664	979	-1251	923
12371992	571	-963	553
12372320	-6	-1076	374
12372648	-455	-1406	360
12372976	-695	-1663	373
12373304	-445	-2063	569
12373632	-5	-2563	849
12373960	792	-2612	790
12374288	1348	-1984	587
12374616	1385	-1496	558
12374944	787	-1406	548
12375272	44	-1294	381
12375600	-466	-1276	253
12375928	-1029	-1670	214
12376256	-1374	-1970	157
12376584	-1846	-1840	70
12376912	-2368	-1708	100
12377240	-2826	-1730	25
12377568	-3174	-2014	-10
12377896	-3101	-2409	-132
12378224	-2785	-2456	-380
12378552	-2110	-2477	-541
12378880	-1805	-2863	-616
12379208	-1684	-3319	-799
12379536	-1869	-3328	-1044
12379864	-1886	-3222	-1215
12380192	-1674	-3739	-1226
12380520	-2078	-4499	-1359
12380848	-2214	-4620	-1582
12381176	-2548	-4515	-1693
12381504	-3024	-4856	-1879
12381832	-3717	-5566	-2031
12382160	-4279	-5917	-2378
12382488	-4236	-6253	-2551
12382816	-4772	-6577	-2754
12383144	-5006	-7028	-3066
12383472	-5621	-7642	-3247
12383800	-6236	-7580	-3954
12384128	-6783	-5487	-4093
12384456	-10463	-2411	-4703
12384784	-7726	-6020	-4785
12385112	-10921	-10134	-4347
12385440	-8577	-8818	-3522
12385768	-9612	-4625	-2403
12386096	-7937	-467	-923
12386424	-6714	2679	994
12386752	-5197	4440	3257
12387080	-1644	5624	5549
12387408	-135	7413	7728
12387736	1683	8140	8904
12388064	1304	9134	9445
12388392	90	10880	9214
12388720	-785	12688	9006
12389048	-3846	14836	8936
12389376	-6829	16452	8499
12389704	-9255	17765	8125
12390032	-11234	18745	8362
12390360	-12053	18071	9340
12390688	-12093	16591	9605
12391016	-11011	15699	9635
12391344	-10818	15298	9217
12391672	-10244	15896	8736
12392000	-10040	16662	8307
12392328	-9871	17217	7298
12392656	-10283	17850	6421
12392984	-10624	17148	5356
12393312	-11672	15984	4943
12393640	-12614	15160	5340
12393968	-12683	15136	5153
12394296	-13544	15528	4889
12394624	-14314	15381	4379
12394952	-15067	14734	3626
12395280	-15548	13944	2497
12395608	-16796	13083	1651
12395936	-16498	11289	1611
12396264	-15942	9349	1049
12396592	-15913	9913	500
12396920	-15919	12046	-59
12397248	-15497	12721	-869
12397576	-17571	9190	-2593
12397904	-17623	7757	-3293
12398232	-17061	6749	-4171
12398560	-16177	6181	-5617
12398888	-16648	6282	-7250
12399216	-16120	6568	-8757
12399544	-14919	4856	-10379
12399872	-17672	2837	-10692
12400200	-21059	3285	-10173
12400528	-18265	6454	-9024
12400856	-16449	8677	-8401
12401184	-14869	7864	-7579
12401512	-14771	6015	-6903
12401840	-11766	6339	-6258
12402168	-9122	7067	-6193
12402496	-7799	7259	-5804
12402824	-6669	6802	-5089
12403152	-6949	5409	-4577
12403480	-7142	6450	-4607
12403808	-7863	6018	-3538
12404136	-7519	4546	-3032
12404464	-6957	2957	-1941
12404792	-6571	2454	-1356
12405120	-4795	3040	-1609
12405448	-2887	3910	-2229
12405776	-1962	4344	-2197
12406104	-1207	4426	-2284
12406432	-1004	3418	-2399
12406760	-955	2273	-1983
12407088	-1270	1811	-1668
12407416	-1856	2127	-1196
12407744	-1868	2216	-1003
12408072	-1652	1752	-1035
12408400	-891	1003	-1024
12408728	-45	504	-1007
12409056	423	874	-702
12409384	188	936	-429
12409712	-661	797	-269
12410040	-1413	613	-356
12410368	-1566	118	-316
12410696	-940	-510	-314
12411024	-259	-726	-101
12411352	328	-665	13
12411680	597	-295	56
12412008	735	-160	-119
12412336	661	-510	-217
12412664	423	-1146	-125
12412992	62	-1649	-30
12413320	-50	-1832	2
12413648	-237	-1807	87
12413976	-435	-1946	62
12414304	-617	-1983	57
12414632	-1030	-1926	8
12414960	-1156	-1855	-40
12415288	-1214	-1874	-96
12415616	-1226	-2008	-129
12415944	-1236	-1996	-3
12416272	-1253	-1903	75
12416600	-1286	-1991	161
12416928	-1108	-1963	250
12417256	-942	-1892	274
12417584	-704	-1803	313
12417912	-565	-1724	441
12418240	-466	-1514	526
12418568	-664	-1390	648
12418896	-765	-1465	724
12419224	-689	-1782	789
12419552	-508	-1773	880
12419880	-49	-1390	1021
12420208	-115	-1489	1157
12420536	-27	-2205	1269
12420864	-18	-2564	1334
12421192	285	-2753	1407
12421520	512	-3342	1423
12421848	719	-3843	1379
12422176	794	-3979	1402
12422504	707	-4065	1392
12422832	645	-4641	1197
12423160	262	-5335	1059
12423488	690	-5530	775
12423816	973	-5714	337
12424144	915	-6280	174
12424472	472	-6607	-225
12424800	-254	-7196	-427
12425128	-1972	-8170	-785
12425456	-1976	-8383	-935
12425784	-3011	-7650	-1637
12426112	-3880	-6563	-2334
12426440	-5186	-5627	-2294
12426768	-6256	-3828	-2291
12427096	-10893	196	-2403
12427424	-12105	1174	-2939
12427752	-9360	-1565	-1811
12428080	-6100	2227	-457
12428408	-3811	4685	1175
12428736	-1288	5853	2991
12429064	831	7647	4408
12429392	2284	9611	6054
12429720	3922	10804	6980
12430048	4176	11919	7481
12430376	3245	13101	7078
12430704	1744	14278	6095
12431032	-1596	16336	5628
12431360	-3967	17977	5421
12431688	-5908	18687	4739
12432016	-8452	19123	3655
12432344	-9061	19554	1599
12432672	-10306	18472	2581
12433000	-9554	17531	3062
12433328	-9254	17588	3063
12433656	-8709	18106	3195
12433984	-8403	18681	3275
12434312	-7286	17676	3278
12434640	-6583	16992	3274
12434968	-5996	16780	2992
12435296	-5620	16432	2669
12435624	-5594	15782	2112
12435952	-5208	15336	1338
12436280	-5232	14296	576
12436608	-4884	13237	91
12436936	-4516	12553	-533
12437264	-4460	11209	-1145
12437592	-4469	10075	-1911
12437920	-4378	8936	-3094
12438248	-3954	7307	-3458
12438576	-3782	6033	-4008
12438904	-3776	4843	-4657
12439232	-3694	1947	-5557
12439560	-4123	162	-6335
12439888	-4460	-1186	-7248
12440216	-3844	-2473	-7574
12440544	-3248	-1661	-7665
12440872	-2320	-313	-6448
12441200	-3477	811	-5272
12441528	-4411	2098	-2765
12441856	-4193	2022	-1029
12442184	-2473	-1195	467
12442512	-1098	-5638	1120
12442840	801	-5440	848
12443168	2757	-3731	-544
12443496	4208	-2223	-2730
12443824	4196	-178	-2774
12444152	2151	3082	-2158
12444480	610	4619	-1676
12444808	-113	2429	-1028
12445136	-961	-129	-991
12445464	629	-343	-1259
12445792	2633	170	-1251
12446120	3335	-74	-913
12446448	2346	159	-790
12446776	698	1055	-496
12447104	-770	1282	-389
12447432	-739	1000	-168
12447760	-343	426	-92
12448088	267	162	319
12448416	207	401	641
12448744	-474	244	657
12449072	-1077	315	725
12449400	-1723	895	739
12449728	-1878	1504	923
12450056	-1814	1345	993
12450384	-1591	1151	933
12450712	-1246	1095	837
12451040	-969	992	692
12451368	-898	1004	731
12451696	-1143	1224	880
12452024	-1458	1233	978
12452352	-1555	661	1058
12452680	-1828	426	1137
12453008	-2299	747	1266
12453336	-3106	1230	1441
12453664	-3768	1482	1647
12453992	-4318	1197	1790
12454320	-4326	794	1778
12454648	-4417	725	1823
12454976	-4620	842	2091
12455304	-4672	1105	2175
12455632	-5004	1487	2190
12455960	-5690	1916	2390
12456288	-6159	2308	2601
12456616	-6494	2199	3054
12456944	-7106	2216	3543
12457272	-8221	3602	4400
12457600	-8273	4666	4795
12457928	-8250	4905	5250
12458256	-5617	4940	5908
12458584	-5649	5849	5858
12458912	-4586	7418	6435
12459240	-5626	7625	6815
12459568	-7215	7251	6397
12459896	-6429	5247	6265
12460224	-4716	1655	5949
12460552	-2694	-2386	5844
12460880	-2250	-5183	5464
12461208	-3057	-5909	4732
12461536	-4277	-4775	1974
12461864	-4946	-1406	-1169
12462192	-4315	-202	-5672
12462520	-5899	-3159	-7504
12462848	-5430	-7221	-8546
12463176	-6798	-8986	-8572
12463504	-7159	-8468	-8357
12463832	-8267	-5570	-7832
12464160	-7952	-3688	-6648
12464488	-6730	-4545	-5740
12464816	-3697	-5801	-5929
12465144	683	-3890	-4494
12465472	4852	-934	-2334
12465800	6129	83	-40
12466128	5942	163	2657
12466456	3986	-115	4458
12466784	530	61	4609
12467112	-491	-842	3267
12467440	727	-1058	1997
12467768	2126	495	1119
12468096	2499	1153	1091
12468424	829	129	967
12468752	-2411	-1862	-225
12469080	-4822	-2130	-1172
12469408	-5427	-107	-1398
12469736	-4611	1287	-1478
12470064	-3088	1295	-430
12470392	-2610	-173	-187
12470720	-1262	-1531	-458
12471048	-789	-825	-236
12471376	-211	240	3
12471704	-74	-97	42
12472032	340	-457	-94
12472360	400	-47	-184
12472688	406	683	-226
12473016	426	912	-175
12473344	668	735	-96
12473672	892	607	-102
12474000	1158	661	-180
12474328	1461	702	-193
12474656	1600	751	-249
12474984	1792	707	-252
12475312	2238	485	-212
12475640	2501	307	-174
12475968	2893	388	-175
12476296	3302	361	-222
12476624	3591	193	-249
12476952	3769	94	-268
12477280	3877	38	-240
12477608	3798	-190	-247
12477936	3957	-168	-298
12478264	4139	-378	-423
12478592	4132	-773	-599
12478920	3965	-1017	-701
12479248	3777	-1055	-975
12479576	3373	-715	-899
12479904	2890	-657	-1103
12480232	2912	-875	-1250
12480560	3171	-1009	-1558
12480888	3223	-1038	-1846
12481216	3039	-907	-2067
12481544	2881	-865	-2268
12481872	2678	-830	-2485
12482200	2295	-682	-2734
12482528	1605	-394	-3166
12482856	357	404	-3504
12483184	-1357	1553	-3499
12483512	-2042	2189	-3047
12483840	-2097	1583	-2422
12484168	-2623	-86	-2227
12484496	-850	-1543	-2693
12484824	1307	-53	-3170
12485152	3191	1837	-2989
12485480	3304	1899	-2667
12485808	2713	1367	-2695
12486136	1407	1133	-2552
12486464	41	929	-2316
12486792	-423	443	-1790
12487120	995	-108	-1144
12487448	1726	-272	-1105
12487776	2039	-485	-836
12488104	1686	-377	-831
12488432	1673	-370	-825
12488760	1545	-469	-863
12489088	1832	-378	-817
12489416	1972	-254	-741
12489744	1937	-501	-685
12490072	1996	-744	-594
12490400	2024	-831	-587
12490728	1848	-859	-427
12491056	1909	-917	-344
12491384	1768	-1008	-241
12491712	1875	-1066	-112
12492040	2141	-1127	-9
12492368	2342	-1268	145
12492696	2706	-1530	379
12493024	2793	-1656	577
12493352	3156	-1794	702
12493680	3339	-1874	812
12494008	3439	-1891	1000
12494336	3492	-2220	1228
12494664	3575	-2812	1568
12494992	4024	-3500	2136
12495320	4891	-4054	2568
12495648	5864	-4301	2865
12495976	7368	-4465	3193
12496304	8589	-4602	3587
12496632	9453	-4782	4131
12496960	9730	-5136	4597
12497288	9776	-5382	4905
12497616	9736	-5263	5150
12497944	9315	-4906	5515
12498272	8833	-4852	5963
12498600	8324	-4786	6270
12498928	8105	-4413	6657
12499256	8130	-4083	6993
12499584	8372	-4008	7374
12499912	8585	-3816	7830
12500240	8525	-3196	8230
12500568	7783	-1916	8595
12500896	8304	-802	9079
12501224	7674	-698	8904
12501552	6075	1256	8924
12501880	6374	2193	9143
12502208	6834	683	9023
12502536	11866	-3248	8966
12502864	13278	-5177	7353
12503192	11174	-3602	6275
12503520	13816	-40	5084
12503848	15783	-559	3720
12504176	11740	-2683	3062
12504504	14697	-6175	2363
12504832	14850	-7293	999
12505160	15381	-6515	-398
12505488	15059	-6012	-1995
12505816	12952	-6257	-2861
12506144	11181	-8011	-3485
12506472	8468	-10221	-3846
12506800	5945	-11557	-4342
12507128	4440	-12142	-4791
12507456	3214	-13169	-5395
12507784	3576	-15076	-5670
12508112	3688	-17212	-6106
12508440	4530	-18492	-6725
12508768	6137	-19026	-7309
12509096	8175	-18569	-7469
12509424	9826	-18413	-7965
12509752	11034	-19177	-8090
12510080	11265	-20218	-7797
12510408	10687	-20861	-7563
12510736	10502	-21964	-7231
12511064	9622	-22481	-6722
12511392	7798	-21813	-6025
12511720	5885	-20027	-5365
12512048	5372	-17625	-3620
12512376	4783	-16278	-2696
12512704	4579	-16078	-2352
12513032	3555	-16154	-2795
12513360	4563	-16270	-1888
12513688	4204	-14774	-1210
12514016	3652	-12983	-647
12514344	3655	-10918	-508
12514672	4102	-8450	-392
12515000	6373	-6266	-37
12515328	7866	-5095	241
12515656	9547	-4493	920
12515984	10739	-3451	1537
12516312	10763	-1559	1928
12516640	11077	-135	2059
12516968	9957	612	2281
12517296	7742	4018	2063
12517624	6851	6212	1989
12517952	6439	6036	1670
12518280	3915	5203	1547
12518608	2687	6287	1335
12518936	1172	7904	1047
12519264	269	7490	1036
12519592	-256	5484	1364
12519920	-962	4836	1466
12520248	-121	4737	1354
12520576	1726	4243	914
12520904	2276	3253	814
12521232	2999	3373	754
12521560	3544	4211	628
12521888	3009	4403	483
12522216	3218	4134	224
12522544	3013	3221	49
12522872	2442	2391	122
12523200	2094	2802	212
12523528	2110	3440	187
12523856	1767	3233	240
12524184	1519	3069	214
12524512	1526	3056	151
12524840	1053	3192	-9
12525168	899	3013	-334
12525496	424	2576	261
12525824	53	2260	521
12526152	213	1684	691
12526480	-466	1343	678
12526808	-351	1696	622
12527136	-504	1896	477
12527464	-234	2188	326
12527792	-353	2507	48
12528120	-282	2352	29
12528448	-42	1408	205
12528776	42	215	528
12529104	-435	381	712
12529432	-1218	1954	600
12529760	-1941	2371	339
12530088	-2445	2089	155
12530416	-2640	2409	71
12530744	-2902	2334	67
12531072	-3075	1724	-6
12531400	-3073	1334	-69
12531728	-3118	1259	-82
12532056	-2941	1174	-164
12532384	-3006	909	-244
12532712	-3215	985	-345
12533040	-3543	1273	-411
12533368	-3850	1639	-498
12533696	-4188	1892	-746
12534024	-4885	2332	-1165
12534352	-5574	2912	-1637
12534680	-6470	3240	-2074
12535008	-7257	3419	-2498
12535336	-7942	3764	-2861
12535664	-8389	4230	-3017
12535992	-8435	4328	-3137
12536320	-8528	4015	-2986
12536648	-8086	4136	-2932
12536976	-7756	4387	-2892
12537304	-7052	4452	-2881
12537632	-6600	4674	-2834
12537960	-5521	4679	-2678
12538288	-4438	4364	-2544
12538616	-3373	4103	-2347
12538944	-2285	3937	-2168
12539272	-1375	3729	-1744
12539600	-372	3134	-1221
12539928	416	2574	-481
12540256	1517	1840	420
12540584	2817	852	1297
12540912	3574	551	1876
12541240	4532	1751	1832
12541568	5555	3346	1299
12541896	5954	3023	768
12542224	6020	2727	62
12542552	5974	3027	-636
12542880	5719	2372	-1003
12543208	4492	1716	-841
12543536	2375	2269	-428
12543864	528	3108	192
12544192	-1048	2584	582
12544520	-1416	1381	553
12544848	-663	1235	143
12545176	598	1825	-219
12545504	1842	2259	-402
12545832	2718	2400	-488
12546160	2906	2159	-566
12546488	2646	1856	-668
12546816	1955	1656	-714
12547144	1262	1718	-718
12547472	579	1760	-663
12547800	-183	1881	-498
12548128	-407	1965	-456
12548456	-578	2030	-373
12548784	-1056	1961	-312
12549112	-1470	1870	-164
12549440	-1734	1633	-108
12549768	-1937	1429	-71
12550096	-1998	1531	-72
12550424	-1936	1672	-43
12550752	-1832	1829	-6
12551080	-1722	1861	52
12551408	-1804	1681	119
12551736	-1828	1425	227
12552064	-1809	1503	305
12552392	-1822	1579	395
12552720	-1705	1534	443
12553048	-1673	1595	485
12553376	-1656	1866	558
12553704	-1778	2082	617
12554032	-2087	2209	683
12554360	-2196	2205	731
12554688	-2350	2131	785
12555016	-2229	2186	848
12555344	-2363	2286	945
12555672	-2279	2302	1004
12556000	-2403	2216	1051
12556328	-2187	2179	1057
12556656	-2040	2284	1193
12556984	-2117	2382	1373
12557312	-1966	2295	1487
12557640	-1982	2187	1648
12557968	-1853	2044	1790
12558296	-1727	1916	1907
12558624	-1432	1689	1959
12558952	-1360	1529	1945
12559280	-1481	1809	1857
12559608	-1580	2154	1712
12559936	-1970	2234	1647
12560264	-2327	2267	1573
12560592	-2810	2263	1527
12560920	-3706	2219	1531
12561248	-4159	2180	1434
12561576	-4558	2223	1396
12561904	-4636	2373	1455
12562232	-4727	2389	1619
12562560	-4357	1891	2087
12562888	-4036	1112	2580
12563216	-3539	720	2998
12563544	-2680	351	3604
12563872	-2038	-160	4154
12564200	-615	-488	4093
12564528	72	-28	4397
12564856	674	699	4789
12565184	957	846	4917
12565512	808	726	5158
12565840	353	893	5480
12566168	-774	1504	5902
12566496	-1929	2015	5998
12566824	-2939	2014	6363
12567152	-3551	2302	6864
12567480	-4122	3634	7453
12567808	-1927	4254	8254
12568136	-97	4471	9246
12568464	2798	2866	9624
12568792	2682	3012	8495
12569120	2396	5248	7941
12569448	3233	5279	7052
12569776	946	2859	5614
12570104	6186	-2625	3455
12570432	6642	-2753	2505
12570760	975	3270	2373
12571088	1328	9829	1763
12571416	-413	8249	-64
12571744	-2907	974	-1516
12572072	-572	-2756	-2280
12572400	1763	-2243	-3593
12572728	2406	-1409	-5757
12573056	2650	-1773	-8198
12573384	2260	-3283	-9823
12573712	1246	-4465	-10137
12574040	689	-5060	-9999
12574368	108	-6241	-9527
12574696	-739	-7824	-9477
12575024	-363	-9334	-9638
12575352	-19	-10062	-9475
12575680	973	-10288	-9190
12576008	1653	-11250	-9281
12576336	2387	-12312	-9465
12576664	3489	-12851	-9440
12576992	4532	-14531	-9393
12577320	5280	-15920	-9405
12577648	5443	-16760	-9251
12577976	5266	-17356	-9308
12578304	4751	-17473	-9425
12578632	4747	-17690	-8572
12578960	4510	-17820	-8092
12579288	3987	-17941	-7652
12579616	3955	-17582	-6989
12579944	3808	-16819	-5948
12580272	3881	-16063	-4621
12580600	4164	-16347	-3805
12580928	4451	-17075	-3553
12581256	5749	-17194	-4638
12581584	6728	-17272	-3842
12581912	8152	-14086	-3678
12582240	9267	-11741	-3422
12582568	9384	-11954	-3469
12582896	9913	-11077	-3097
12583224	10388	-9402	-2618
12583552	10838	-8405	-2062
12583880	10754	-7532	-1597
12584208	9919	-4792	-1195
12584536	9347	-2816	-746
12584864	8252	-1453	-323
12585192	7747	-512	-8
12585520	6554	660	387
12585848	5718	2252	808
12586176	5150	2491	1161
12586504	5139	3095	1489
12586832	5973	4538	1892
12587160	6121	5621	1793
12587488	6075	6211	1990
12587816	4951	6094	1830
12588144	3261	6030	1539
12588472	1561	6223	1354
12588800	-4	6356	1126
12589128	-1190	6563	1123
12589456	-1123	6550	560
12589784	-1095	5948	101
12590112	-675	5187	-78
12590440	247	4738	99
12590768	567	4484	282
12591096	1528	4525	532
12591424	2047	4086	585
12591752	2212	3346	484
12592080	1728	3591	220
12592408	1428	4131	29
12592736	681	4233	-182
12593064	254	4098	-459
12593392	-955	4563	-845
12593720	-1014	5426	-1119
12594048	452	5229	-1104
12594376	164	1774	33
12594704	1531	-1008	867
12595032	1552	1167	1155
12595360	632	3661	770
12595688	-790	4224	249
12596016	-1604	2795	-281
12596344	-2944	2480	-731
12596672	-2453	3229	-809
12597000	-2187	3094	-601
12597328	-1485	2525	-308
12597656	-519	1849	3
12597984	276	1447	180
12598312	1067	1544	338
12598640	1410	1818	451
12598968	1445	1799	372
12599296	1235	1735	214
12599624	1041	1718	121
12599952	783	1809	41
12600280	589	1896	34
12600608	669	2001	90
12600936	559	2084	214
12601264	1024	1977	273
12601592	1396	2122	350
12601920	1467	2309	428
12602248	1625	2067	434
12602576	1844	2162	339
12602904	2035	2763	81
12603232	1795	2942	46
12603560	1496	2646	69
12603888	1575	2358	84
12604216	1753	2098	38
12604544	1538	1807	-41
12604872	2335	1756	-147
12605200	2862	2072	-282
12605528	2956	2035	-365
12605856	3363	1530	-461
12606184	3593	1106	-466
12606512	3862	1088	-377
12606840	4415	1192	-451
12607168	4757	1170	-585
12607496	5104	1196	-597
12607824	5499	1438	-555
12608152	5413	1362	-327
12608480	5439	879	-210
12608808	5283	590	-94
12609136	5139	591	59
12609464	4753	239	567
12609792	4597	-178	870
12610120	4224	-448	1130
12610448	4147	-496	1435
12610776	4194	-570	1718
12611104	4577	-877	1765
12611432	5268	-1139	1802
12611760	5949	-897	1851
12612088	6328	-553	1969
12612416	6256	-657	2211
12612744	6244	-1243	2413
12613072	6243	-1666	2537
12613400	6497	-1496	2633
12613728	6662	-1349	2825
12614056	7159	-2035	3124
12614384	7775	-3138	3472
12614712	8814	-3728	3963
12615040	9570	-3620	4480
12615368	10248	-4050	4861
12615696	11268	-5433	5063
12616024	12539	-6044	5361
12616352	13475	-6029	5825
12616680	13786	-6280	6490
12617008	13987	-7008	6775
12617336	14311	-7492	6787
12617664	14752	-7567	6849
12617992	14900	-7609	7127
12618320	15101	-8115	7492
12618648	15357	-9274	7815
12618976	15649	-10331	7883
12619304	16061	-10515	7944
12619632	16627	-10110	7946
12619960	17016	-10219	8048
12620288	17745	-10925	8355
12620616	18148	-11551	8540
12620944	18651	-11855	8748
12621272	18876	-12055	8847
12621600	19177	-12076	8907
12621928	19368	-11900	8903
12622256	19289	-11689	8946
12622584	19111	-11379	8841
12622912	18605	-11056	8879
12623240	18189	-10739	8950
12623568	17428	-10423	8979
12623896	16843	-9966	8838
12624224	16001	-9027	8675
12624552	15163	-7372	8826
12624880	13924	-6225	9078
12625208	12514	-6405	9341
12625536	11096	-6353	9604
12625864	9929	-5234	9682
12626192	9127	-3888	9987
12626520	8959	-3036	10128
12626848	9354	-2576	10452
12627176	10175	-2262	10433
12627504	10304	-1698	9664
12627832	6576	1416	8831
12628160	3824	3519	7921
12628488	8113	-1349	6710
12628816	11088	-8214	5114
12629144	6754	-7983	3818
12629472	7345	-1043	1016
12629800	9097	2632	-186
12630128	6932	-2529	-1214
12630456	5958	-8675	-2483
12630784	6707	-8691	-4023
12631112	6391	-5401	-5380
12631440	5391	-4624	-6776
12631768	4337	-6136	-7476
12632096	3344	-8388	-7771
12632424	3116	-9988	-8011
12632752	2870	-11194	-8372
12633080	3046	-12119	-8776
12633408	3895	-13046	-8901
12633736	4582	-13873	-9057
12634064	5800	-14545	-9120
12634392	6896	-15211	-9204
12634720	8443	-16384	-9183
12635048	9875	-17496	-9176
12635376	10656	-18326	-9029
12635704	11158	-19069	-8813
12636032	11696	-20126	-8572
12636360	11779	-20961	-8040
12636688	11024	-20940	-7416
12637016	9900	-20496	-6691
12637344	9167	-20036	-5547
12637672	8357	-19401	-4599
12638000	8044	-18949	-4892
12638328	6394	-18688	-4668
12638656	5675	-16607	-4289
12638984	6610	-16757	-3413
12639312	6559	-16583	-2467
12639640	8491	-13509	-1705
12639968	10499	-9720	-1604
12640296	12802	-4461	382
12640624	13055	-2400	1867
12640952	12349	-511	2678
12641280	10793	1512	3234
12641608	9520	3592	3816
12641936	8144	5991	4291
12642264	7882	8264	3793
12642592	7153	8479	3487
12642920	4838	6247	3254
12643248	2594	4748	2380
12643576	1840	5469	1937
12643904	1842	6796	1934
12644232	1157	7377	1214
12644560	899	7631	1057
12644888	1511	7217	1398
12645216	1512	5398	1331
12645544	2877	3968	1336
12645872	3936	2745	972
12646200	4367	3337	836
12646528	5289	4463	737
12646856	5823	5001	86
12647184	4087	4705	-677
12647512	2329	4277	-1075
12647840	737	4519	-1374
12648168	-153	4768	-1895
12648496	-2717	3576	-1184
12648824	-2613	2148	-1022
12649152	-2207	2039	-742
12649480	-1671	3009	-479
12649808	-1137	3384	-285
12650136	107	2776	-258
12650464	1008	2530	-305
12650792	2037	2627	-331
12651120	2203	2502	-168
12651448	1685	2107	161
12651776	858	1487	509
12652104	-287	970	569
12652432	-239	958	355
12652760	-216	1268	104
12653088	98	1790	-29
12653416	386	2059	-89
12653744	864	1621	37
12654072	1161	743	233
12654400	1453	101	493
12654728	1469	177	458
12655056	1387	427	335
12655384	1132	-62	230
12655712	701	-574	117
12656040	763	-611	133
12656368	618	-915	164
12656696	284	-1182	222
12657024	359	-1406	200
12657352	512	-1780	149
12657680	491	-1772	77
12658008	665	-1519	18
12658336	487	-1539	-27
12658664	125	-1990	-107
12658992	-50	-2246	-221
12659320	-304	-2307	-346
12659648	-526	-2469	-367
12659976	-869	-2519	-400
12660304	-1243	-2624	-427
12660632	-1665	-2918	-611
12660960	-1776	-3131	-791
12661288	-1787	-3214	-1029
12661616	-1792	-3418	-1260
12661944	-1855	-3627	-1333
12662272	-1847	-4120	-1438
12662600	-1995	-4624	-1511
12662928	-2003	-5043	-1536
12663256	-2117	-5373	-1688
12663584	-2189	-5653	-2025
12663912	-2476	-5734	-2393
12664240	-2529	-6067	-2544
12664568	-2956	-6282	-3231
12664896	-3322	-6283	-3633
12665224	-4373	-6622	-3872
12665552	-5777	-6699	-3992
12665880	-5487	-6449	-4294
12666208	-9631	-5034	-4472
12666536	-9257	-4158	-5077
12666864	-10974	-5397	-5028
12667192	-9680	-4587	-4387
12667520	-9717	-2863	-4005
12667848	-10614	-1484	-2191
12668176	-11038	1099	275
12668504	-11567	4584	1584
12668832	-11156	6312	2952
12669160	-9809	8511	4171
12669488	-8467	11157	5300
12669816	-6737	11622	6217
12670144	-6939	12395	7015
12670472	-7451	13748	7417
12670800	-9070	14861	7756
12671128	-10215	14283	8375
12671456	-10850	13483	8221
12671784	-12059	12975	8571
12672112	-11551	12447	8709
12672440	-11778	13746	7384
12672768	-11380	13499	7290
12673096	-11094	11249	7812
12673424	-9217	11120	7157
12673752	-9043	10515	7107
12674080	-7577	9240	6730
12674408	-7097	8535	6141
12674736	-6886	8917	5485
12675064	-7519	9621	4711
12675392	-8435	9704	3622
12675720	-9697	9331	2526
12676048	-11743	9254	1616
12676376	-13773	9128	913
12676704	-16514	9495	650
12677032	-19000	10213	595
12677360	-20555	9811	460
12677688	-20258	9252	686
12678016	-19825	9019	451
12678344	-18874	9056	411
12678672	-15852	9226	119
12679000	-13226	9123	-419
12679328	-10188	8473	-950
12679656	-7441	7430	-1502
12679984	-4331	6173	-2369
12680312	-2915	5036	-3214
12680640	-3055	3916	-4263
12680968	-2990	3257	-5055
12681296	-3460	3556	-5553
12681624	-5412	4914	-5332
12681952	-6039	6227	-3701
12682280	-4806	4862	-2056
12682608	-1539	1420	149
12682936	239	-4418	1729
12683264	2706	-6473	1464
12683592	7056	-2843	167
12683920	8915	2446	1
12684248	10589	5211	-2168
12684576	10009	6654	-2864
12684904	7665	5212	-2363
12685232	3719	1509	-1438
12685560	-1060	-1494	-782
12685888	-3029	-375	-492
12686216	-2294	2303	-484
12686544	-1034	2468	-437
12686872	556	580	43
12687200	1501	90	407
12687528	1440	719	550
12687856	701	1344	746
12688184	-155	1277	443
12688512	-518	1064	378
12688840	-893	1062	460
12689168	-1106	1184	504
12689496	-1045	1444	561
12689824	-1084	1676	662
12690152	-1047	2011	800
12690480	-1302	2074	941
12690808	-1952	1960	1043
12691136	-2617	1938	1040
12691464	-3367	2038	1139
12691792	-4140	2405	1121
12692120	-4395	2765	1133
12692448	-4583	3215	889
12692776	-4970	3523	705
12693104	-5444	3687	801
12693432	-5959	3820	758
12693760	-6467	4194	922
12694088	-6726	3604	1122
12694416	-7043	3045	1170
12694744	-7256	3004	1296
12695072	-7098	2709	1384
12695400	-6968	2097	1605
12695728	-7032	2456	1784
12696056	-7060	2800	1967
12696384	-7092	2539	2210
12696712	-7911	2218	2478
12697040	-9048	2693	2518
12697368	-10610	3193	2414
12697696	-12116	3762	1925
12698024	-13087	4244	1650
12698352	-13730	4158	1499
12698680	-14168	3845	1201
12699008	-13982	3255	785
12699336	-14209	2531	246
12699664	-14765	1696	487
12699992	-14794	1440	516
12700320	-14367	1302	650
12700648	-13412	1011	765
12700976	-11674	946	915
12701304	-9657	1097	898
12701632	-7051	992	814
12701960	-4487	557	1039
12702288	-123	828	978
12702616	631	867	1126
12702944	880	917	1158
12703272	969	785	1185
12703600	893	593	1114
12703928	64	793	1026
12704256	-333	1155	952
12704584	-479	948	909
12704912	-600	1137	723
12705240	-969	1454	773
12705568	-1846	949	382
12705896	-2123	1103	242
12706224	-2067	1040	109
12706552	-1791	831	133
12706880	-1488	1040	8
12707208	-1106	1235	-28
12707536	-1161	1400	-22
12707864	-1292	1257	-172
12708192	-1393	1042	-260
12708520	-1585	855	-314
12708848	-1769	791	-294
12709176	-1867	570	-227
12709504	-1542	114	-259
12709832	-1063	-221	-238
12710160	-527	-63	-240
12710488	36	-204	-234
12710816	522	-485	-207
12711144	1004	-536	-208
12711472	1358	-484	-134
12711800	1796	-337	-53
12712128	2108	-376	45
12712456	2295	-362	205
12712784	2731	-507	318
12713112	2908	-888	322
12713440	3268	-895	187
12713768	3547	-781	155
12714096	3720	-829	103
12714424	3549	-809	35
12714752	3413	-645	-57
12715080	3400	-607	-100
12715408	3508	-672	-153
12715736	3836	-618	-237
12716064	4320	-654	-364
12716392	4795	-756	-477
12716720	5037	-699	-581
12717048	5116	-604	-656
12717376	5119	-610	-836
12717704	4982	-695	-1029
12718032	4714	-650	-1283
12718360	4411	-561	-1554
12718688	4248	-628	-1849
12719016	3779	-604	-2210
12719344	3035	-216	-2552
12719672	1863	235	-3030
12720000	381	1033	-3536
12720328	-962	1545	-3819
12720656	-2408	1568	-3920
12720984	-3349	1873	-3506
12721312	-1859	1512	-2778
12721640	-414	-234	-1642
12721968	1353	-2284	-2414
12722296	5522	-2640	-3657
12722624	8542	-120	-3626
12722952	10258	1760	-3458
12723280	9078	1362	-2680
12723608	6065	-117	-2508
12723936	3653	-277	-2285
12724264	1993	114	-1930
12724592	1402	367	-1752
12724920	1829	-171	-1671
12725248	2535	-1026	-1474
12725576	2454	-822	-1315
12725904	1916	-27	-1210
12726232	1067	465	-987
12726560	1155	150	-859
12726888	1351	-475	-840
12727216	1996	-598	-940
12727544	2406	-631	-928
12727872	2515	-972	-727
12728200	2536	-1112	-494
12728528	2728	-971	-398
12728856	2921	-911	-391
12729184	2890	-878	-265
12729512	2579	-741	62
12729840	2252	-672	312
12730168	2239	-656	356
12730496	2629	-487	420
12730824	2724	-295	541
12731152	2964	-737	684
12731480	2894	-1291	864
12731808	3002	-1234	1127
12732136	3298	-1172	1412
12732464	3819	-1572	1667
12732792	4479	-2260	1865
12733120	4837	-2295	1993
12733448	5160	-2152	2500
12733776	5171	-2281	2651
12734104	5054	-2168	2867
12734432	4967	-2068	3093
12734760	4767	-1675	3261
12735088	4876	-1135	3535
12735416	4366	-544	3788
12735744	4057	-99	4136
12736072	3131	529	4430
12736400	2527	1449	4769
12736728	1623	2580	5168
12737056	1109	3770	5563
12737384	863	4466	6198
12737712	765	4419	6601
12738040	150	4643	7426
12738368	489	4959	8684
12738696	1920	4683	8947
12739024	2239	4436	8985
12739352	4740	4364	7458
12739680	5348	3653	6720
12740008	10321	-75	5193
12740336	13058	-5577	3034
12740664	8655	-5367	1266
12740992	9501	-916	-1512
12741320	9270	357	-2282
12741648	7446	-2245	-3065
12741976	10098	-5132	-4822
12742304	10562	-5503	-6623
12742632	10008	-4914	-7854
12742960	8786	-5044	-9147
12743288	7282	-7252	-9890
12743616	5275	-10731	-9869
12743944	3428	-13062	-9884
12744272	2639	-14340	-9743
12744600	2229	-14797	-9529
12744928	1905	-15729	-9330
12745256	2361	-17257	-9035
12745584	3143	-18788	-8418
12745912	3834	-20024	-8087
12746240	4544	-20859	-7882
12746568	5453	-21933	-8330
12746896	6836	-22553	-8756
12747224	8543	-22263	-8945
12747552	9993	-19956	-8671
12747880	10423	-16933	-8043
12748208	9097	-15420	-6937
12748536	8849	-16245	-5750
12748864	7174	-16976	-4784
12749192	5499	-15694	-3190
12749520	5056	-13289	-1528
12749848	3903	-11774	-1557
12750176	3299	-11025	-1706
12750504	3180	-9066	-1497
12750832	4246	-5599	-1002
12751160	5657	-3679	-43
12751488	6655	-2268	800
12751816	7082	-425	1723
12752144	6762	1403	2725
12752472	5962	2681	3511
12752800	5017	3939	4214
12753128	4138	6859	4514
12753456	5395	8613	4321
12753784	4591	8261	4075
12754112	2527	7430	3672
12754440	164	6743	2946
12754768	748	6383	2345
12755096	764	6652	1908
12755424	1193	6589	1557
12755752	2275	4850	2134
12756080	2084	3067	2694
12756408	2220	2626	2467
12756736	3763	2928	2487
12757064	4409	3148	2337
12757392	5297	2962	1940
12757720	5978	2459	1626
12758048	5615	2275	1382
12758376	5403	2743	1018
12758704	4075	2567	850
12759032	2894	2150	623
12759360	1987	1923	727
12759688	1448	1867	693
12760016	1321	1552	603
12760344	923	1054	414
12760672	761	1090	188
12761000	591	1441	-161
12761328	687	1892	-331
12761656	417	1737	-504
12761984	373	1207	-557
12762312	67	858	-587
12762640	-35	1264	-539
12762968	555	1497	-335
12763296	-601	1372	-260
12763624	-830	1630	-84
12763952	-1259	1669	33
12764280	-1499	1598	63
12764608	-1815	2106	63
12764936	-1648	2973	163
12765264	-2235	3536	318
12765592	-2818	2324	337
12765920	-3284	1945	187
12766248	-3739	1955	128
12766576	-4101	2139	168
12766904	-4358	2031	77
12767232	-5040	2198	-145
12767560	-6482	3006	-764
12767888	-6750	4152	-1517
12768216	-7205	5257	-2529
12768544	-7949	6675	-2544
12768872	-8363	5609	-2565
12769200	-8555	5033	-2322
12769528	-8526	5056	-2174
12769856	-8171	5604	-2054
12770184	-7137	5933	-2177
12770512	-5775	5662	-2167
12770840	-4042	5534	-2382
12771168	-2791	5126	-2277
12771496	-1862	4826	-2057
12771824	-964	4228	-1624
12772152	-428	3630	-1239
12772480	-39	3475	-759
12772808	283	3231	-69
12773136	1181	2523	965
12773464	2456	1271	2017
12773792	3508	306	2543
12774120	4160	1235	2270
12774448	5490	3743	1699
12774776	6542	3783	881
12775104	7095	2465	-147
12775432	7029	2162	-743
12775760	6876	1430	-971
12776088	4294	901	-951
12776416	1416	2452	-372
12776744	-1254	3898	568
12777072	-2340	2652	972
12777400	-1639	562	529
12777728	-681	236	119
12778056	1141	1410	-111
12778384	2530	2047	-446
12778712	3104	2139	-676
12779040	2959	2410	-737
12779368	1897	2377	-764
12779696	540	1679	-657
12780024	-1016	1580	-334
12780352	-2062	1866	-234
12780680	-2715	1914	-185
12781008	-2701	1896	-159
12781336	-2555	1969	-219
12781664	-2364	2273	-267
12781992	-2236	2695	-271
12782320	-2106	2942	-190
12782648	-2173	2886	-68
12782976	-2356	2748	-77
12783304	-2512	3214	7
12783632	-2743	3741	114
12783960	-3086	3481	289
12784288	-3358	3051	377
12784616	-3488	3079	452
12784944	-3732	3155	539
12785272	-3924	3120	648
12785600	-3978	2974	821
12785928	-3953	2958	995
12786256	-3597	3165	1066
12786584	-3211	3094	1145
12786912	-3059	2909	1177
12787240	-3085	2921	1258
12787568	-3432	2651	1386
12787896	-3775	2390	1519
12788224	-4166	2252	1599
12788552	-4096	2096	1839
12788880	-3772	1560	2076
12789208	-3208	626	2256
12789536	-2758	150	2368
12789864	-2415	565	2294
12790192	-2794	1126	2317
12790520	-3183	1439	2402
12790848	-4170	1670	2387
12791176	-5645	2192	2411
12791504	-6593	2611	2277
12791832	-7180	2755	2244
12792160	-7855	2871	2534
12792488	-7801	2904	3090
12792816	-7407	2705	3754
12793144	-6479	2248	4278
12793472	-5203	1816	5056
12793800	-4399	1545	5389
12794128	-3699	1789	6040
12794456	-3460	1770	6568
12794784	-3071	1769	6934
12795112	-3268	1999	7467
12795440	-3725	2397	8044
12795768	-3697	3022	8177
12796096	-3161	3556	8710
12796424	-2374	4932	9013
12796752	-42	5658	9719
12797080	1944	6187	9247
12797408	1399	7594	9792
12797736	-360	6369	10777
12798064	2514	2264	6957
12798392	6411	3590	5657
12798720	7786	3633	4443
12799048	6187	1959	3894
12799376	4423	1010	2074
12799704	2345	1913	-497
12800032	1496	2977	-2637
12800360	3081	881	-4344
12800688	4256	-3231	-6627
12801016	3369	-4585	-8914
12801344	3158	-3992	-10735
12801672	3691	-4501	-11464
12802000	2343	-6580	-12105
12802328	2733	-8776	-12358
12802656	2980	-10861	-13002
12802984	2826	-12547	-13565
12803312	3890	-13582	-13920
12803640	3939	-14385	-14087
12803968	4367	-14907	-13978
12804296	5496	-15993	-14013
12804624	6536	-17092	-13625
12804952	7437	-18391	-13402
12805280	7550	-19301	-13182
12805608	8071	-20163	-13226
12805936	8053	-21507	-12943
12806264	8611	-22861	-12841
12806592	8753	-22777	-12715
12806920	9415	-20210	-12294
12807248	9349	-17237	-11099
12807576	9598	-16156	-9099
12807904	9495	-17970	-7248
12808232	9054	-19758	-5705
12808560	9111	-19399	-5362
12808888	9048	-16859	-5021
12809216	9314	-14842	-4654
12809544	9930	-13296	-4139
12809872	10527	-9944	-3355
12810200	11527	-7210	-1661
12810528	11833	-6135	-485
12810856	11809	-4817	683
12811184	11055	-2203	1403
12811512	9720	141	2132
12811840	8636	1756	3009
12812168	7469	2904	3533
12812496	6213	5727	3854
12812824	6173	8209	4186
12813152	4843	11564	2712
12813480	2131	15431	2801
12813808	274	12810	4898
12814136	-1495	10480	1564
12814464	-2629	5851	2260
12814792	-2775	861	3473
12815120	-668	751	2055
12815448	1215	4637	2451
12815776	4721	10876	818
12816104	6809	10318	1387
12816432	6698	3592	2499
12816760	6408	1761	2229
12817088	6413	4072	2493
12817416	5103	5187	2684
12817744	3412	4044	2443
12818072	1888	2128	2343
12818400	1128	1893	1772
12818728	574	3674	1563
12819056	1075	3212	1705
12819384	1233	2109	1863
12819712	1862	2303	2265
12820040	2015	2576	2457
12820368	2616	2029	2383
12820696	2597	2251	2269
12821024	2138	2991	1750
12821352	2164	3394	1983
12821680	2726	2755	1844
12822008	2314	2382	1512
12822336	2808	2186	1807
12822664	3043	1835	1819
12822992	2233	2081	1866
12823320	1815	2202	2073
12823648	1284	2127	2137
12823976	808	1969	2045
12824304	662	1015	2137
12824632	521	640	1808
12824960	26	707	1851
12825288	81	1397	1620
12825616	-74	1641	1549
12825944	136	897	1435
12826272	402	304	1189
12826600	622	434	1265
12826928	1005	448	1231
12827256	1268	71	1174
12827584	1045	-264	1063
12827912	861	646	1095
12828240	316	554	939
12828568	54	-309	1025
12828896	-127	-378	824
12829224	0	109	623
12829552	-134	59	514
12829880	-98	-512	459
12830208	-83	-282	349
12830536	-164	-38	157
12830864	-386	22	167
12831192	-555	299	39
12831520	-690	208	39
12831848	-896	304	56
12832176	-819	541	32
12832504	-748	800	-59
12832832	-713	751	-146
12833160	-456	526	-272
12833488	-234	637	-367
12833816	-18	623	-477
12834144	125	74	-429
12834472	346	-154	-396
12834800	592	-213	-445
12835128	745	-272	-451
12835456	764	-19	-389
12835784	443	128	-230
12836112	323	-421	-100
12836440	411	-690	-5
12836768	653	-626	63
12837096	979	-586	47
12837424	1075	-513	44
12837752	1197	-722	20
12838080	1343	-636	18
12838408	1340	-356	-28
12838736	1291	-276	-68
12839064	1256	-119	-76
12839392	1201	148	-65
12839720	1095	107	-39
12840048	1079	49	36
12840376	1218	-6	106
12840704	1302	-175	194
12841032	1689	-135	259
12841360	1943	12	300
12841688	2156	-20	411
12842016	2223	-147	518
12842344	2276	-161	616
12842672	2300	-243	742
12843000	2433	-391	858
12843328	2644	-435	940
12843656	2877	-338	1010
12843984	3086	-248	1057
12844312	3218	-116	1112
12844640	3260	-5	1124
12844968	3398	-62	1112
12845296	3457	104	1082
12845624	3556	270	1099
12845952	3634	251	1122
12846280	3778	212	1126
12846608	3945	-12	1095
12846936	4282	-154	1089
12847264	4473	169	1143
12847592	4522	272	1248
12847920	4602	-80	1364
12848248	4699	-272	1438
12848576	4886	-374	1459
12848904	5164	-414	1484
12849232	5404	-725	1582
12849560	5772	-1136	1638
12849888	6174	-1215	1758
12850216	6693	-1273	1900
12850544	7145	-1575	2100
12850872	7397	-1795	2259
12851200	7836	-2171	2478
12851528	8212	-2689	2672
12851856	8263	-3101	2629
12852184	8341	-3218	2583
12852512	8520	-3213	2718
12852840	8556	-3481	2886
12853168	8429	-3785	2895
12853496	8469	-3611	2899
12853824	8363	-3483	2855
12854152	8274	-3547	2790
12854480	8079	-3300	2637
12854808	7437	-3100	2544
12855136	6929	-3186	2317
12855464	6174	-2972	1971
12855792	5380	-2345	1627
12856120	4588	-1897	1348
12856448	3936	-1847	1005
12856776	3447	-1607	963
12857104	3103	-1404	1006
12857432	2917	-1731	1041
12857760	2825	-2257	1068
12858088	2833	-2145	1164
12858416	2859	-2001	1371
12858744	2916	-2570	1494
12859072	3082	-2971	1580
12859400	3240	-2648	1698
12859728	3334	-2416	1812
12860056	3425	-2512	1887
12860384	3619	-2781	2091
12860712	3555	-3188	2282
12861040	3736	-3766	2409
12861368	3249	-4177	2468
12861696	3139	-3808	2508
12862024	2202	-3780	2482
12862352	2338	-3683	2463
12862680	2323	-3611	2437
12863008	2504	-3340	2418
12863336	2662	-3675	2412
12863664	2570	-3904	2270
12863992	2521	-3569	2291
12864320	2238	-3569	2348
12864648	1635	-3554	2316
12864976	1218	-3315	2333
12865304	784	-3380	2237
12865632	494	-3691	2216
12865960	231	-3345	2157
12866288	-248	-2586	1963
12866616	-799	-2287	1725
12866944	-1554	-2146	1176
12867272	-2091	-753	540
12867600	-2958	946	-111
12867928	-3891	1893	-501
12868256	-4784	1814	-646
12868584	-5673	900	-706
12868912	-6588	445	-670
12869240	-7146	1108	-779
12869568	-7504	1728	-929
12869896	-7429	1848	-1231
12870224	-6803	1382	-1598
12870552	-5968	1260	-1806
12870880	-5055	1597	-1842
12871208	-4684	1606	-1791
12871536	-4891	1556	-1930
12871864	-4911	984	-1842
12872192	-4732	1270	-1480
12872520	-4226	1120	-1211
12872848	-3322	636	-985
12873176	-2296	607	-543
12873504	-1282	626	-414
12873832	-519	416	-270
12874160	-97	561	-221
12874488	263	659	-201
12874816	69	648	-144
12875144	-32	505	-109
12875472	-275	-10	-208
12875800	-230	-142	-266
12876128	-86	-157	-420
12876456	167	73	-500
12876784	451	384	-406
12877112	495	559	-289
12877440	501	493	-243
12877768	393	783	-181
12878096	189	947	-158
12878424	179	1103	-227
12878752	196	1136	-161
12879080	-256	1199	-38
12879408	-200	750	-13
12879736	-277	783	60
12880064	-209	981	267
12880392	92	652	325
12880720	348	680	426
12881048	470	649	596
12881376	560	653	684
12881704	589	731	764
12882032	534	496	802
12882360	638	248	827
12882688	800	87	788
12883016	935	-131	768
12883344	1020	-340	714
12883672	1279	-609	602
12884000	1308	-723	578
12884328	1280	-900	542
12884656	1269	-1128	527
12884984	1187	-1148	547
12885312	1186	-1254	524
12885640	1233	-1557	494
12885968	1175	-1766	396
12886296	1139	-1767	306
12886624	1267	-1778	267
12886952	1333	-1960	215
12887280	1337	-2181	158
12887608	1227	-2257	95
12887936	989	-2195	74
12888264	797	-2253	-1
12888592	543	-2355	-73
12888920	495	-2487	-81
12889248	445	-2779	-103
12889576	474	-2948	-139
12889904	516	-2914	-126
12890232	409	-2917	-88
12890560	313	-3314	-35
12890888	-74	-3860	116
12891216	-351	-4156	193
12891544	-3	-4087	289
12891872	577	-4260	378
12892200	1307	-4695	322
12892528	1643	-5198	503
12892856	1264	-5587	982
12893184	863	-6073	1272
12893512	941	-6391	1507
12893840	1565	-6572	1856
12894168	3529	-6354	2776
12894496	4712	-6057	3521
12894824	5722	-6591	4279
12895152	6808	-8585	5725
12895480	8408	-11010	6985
12895808	8988	-12400	8222
12896136	9650	-12186	9062
12896464	9967	-11137	8888
12896792	10717	-11461	8792
12897120	11050	-11579	8531
12897448	12653	-11569	8103
12897776	12721	-10065	7321
12898104	14166	-8037	5442
12898432	16478	-6693	4431
12898760	15676	-2992	3123
12899088	14922	596	1964
12899416	14053	1802	2172
12899744	11689	-533	1269
12900072	13264	-1006	-208
12900400	13344	288	-1779
12900728	13441	1950	-2446
12901056	11643	1384	-3197
12901384	11940	-231	-3345
12901712	12146	-1413	-3923
12902040	12107	-2369	-4444
12902368	12813	-3196	-4560
12902696	13087	-4803	-4993
12903024	13869	-6239	-5329
12903352	14610	-7280	-5663
12903680	14902	-8282	-6196
12904008	16667	-9655	-6304
12904336	17328	-11283	-6819
12904664	18073	-12398	-7438
12904992	18372	-12407	-7805
12905320	19199	-12772	-7980
12905648	19151	-13809	-8228
12905976	19052	-14883	-8403
12906304	18080	-15511	-8476
12906632	17535	-15889	-8449
12906960	16301	-16206	-8360
12907288	15299	-16633	-8214
12907616	14282	-17261	-7780
12907944	12584	-17442	-7559
12908272	11585	-17222	-7206
12908600	10852	-16698	-6879
12908928	10325	-15978	-6438
12909256	10068	-15180	-6106
12909584	9370	-14300	-5603
12909912	9162	-13448	-4920
12910240	8697	-13409	-4195
12910568	8199	-13927	-3430
12910896	7655	-14395	-2641
12911224	7142	-13802	-2170
12911552	6825	-13049	-2151
12911880	7372	-11962	-1741
12912208	7957	-10921	-1366
12912536	9145	-9397	-1190
12912864	9815	-8175	-1035
12913192	10158	-7006	-82
12913520	9934	-5367	866
12913848	9485	-3524	2323
12914176	8908	-2290	3558
12914504	6562	-860	3724
12914832	5894	1367	4105
12915160	6327	3768	4390
12915488	4322	5561	4735
12915816	3057	5926	5736
12916144	2548	5979	5438
12916472	1628	7233	3758
12916800	834	7082	2152
12917128	43	6170	1341
12917456	-274	5117	1571
12917784	-396	4707	1881
12918112	-152	4823	2609
12918440	1056	5296	2850
12918768	1850	5871	2894
12919096	2306	5909	2818
12919424	2586	5163	2814
12919752	3048	4442	2660
12920080	3638	3939	2637
12920408	3926	4078	2755
12920736	3833	3814	2824
12921064	3467	3655	2892
12921392	3047	3466	2859
12921720	2565	3602	2693
12922048	1414	3215	2248
12922376	1595	3668	2148
12922704	1980	3705	1702
12923032	1742	2345	1443
12923360	2242	1784	1562
12923688	1865	2488	1833
12924016	1394	2269	1773
12924344	1953	1415	1720
12924672	2205	1189	1649
12925000	2012	2162	1483
12925328	1886	2354	1537
12925656	1357	2043	1420
12925984	933	2020	1317
12926312	524	2137	1299
12926640	-42	1585	1018
12926968	-407	1458	1061
12927296	-51	1770	926
12927624	-134	1499	829
12927952	65	1079	580
12928280	971	18	424
12928608	569	278	225
12928936	583	811	64
12929264	606	133	64
12929592	198	-356	18
12929920	141	85	48
12930248	37	553	-39
12930576	-7	327	-54
12930904	39	-82	-137
12931232	7	-3	-188
12931560	-54	253	-144
12931888	-36	266	-45
12932216	-55	-293	-3
12932544	121	-276	8
12932872	25	-77	33
12933200	9	-111	103
12933528	12	-309	148
12933856	75	-369	207
12934184	207	-257	225
12934512	200	-111	234
12934840	136	-92	243
12935168	-18	-48	254
12935496	-8	2	247
12935824	-15	-207	254
12936152	-50	-137	243
12936480	-81	95	233
12936808	-84	40	220
12937136	-144	115	203
12937464	-171	245	183
12937792	-187	192	169
12938120	-157	310	139
12938448	-156	588	125
12938776	-210	711	78
12939104	-332	704	64
12939432	-443	805	34
12939760	-542	914	13
12940088	-373	836	6
12940416	-373	722	-10
12940744	-405	416	-30
12941072	-238	109	-59
12941400	-244	225	-89
12941728	-140	336	-124
12942056	-87	94	-123
12942384	-94	139	-103
12942712	39	120	-97
12943040	144	-118	8
12943368	459	-409	105
12943696	866	-474	217
12944024	1137	-573	363
12944352	1156	-597	484
12944680	1143	-502	508
12945008	1139	-475	507
12945336	1118	-503	520
12945664	1089	-577	506
12945992	972	-656	399
12946320	855	-604	286
12946648	625	-475	241
12946976	459	-655	174
12947304	327	-802	108
12947632	359	-747	91
12947960	421	-853	28
12948288	582	-1030	-23
12948616	743	-1209	-64
12948944	902	-1219	-133
12949272	1004	-1242	-166
12949600	952	-1325	-223
12949928	1029	-1444	-311
12950256	1246	-1801	-368
12950584	826	-1850	-445
12950912	650	-1574	-460
12951240	451	-1716	-497
12951568	188	-2034	-636
12951896	-3	-2085	-819
12952224	-68	-1857	-988
12952552	-290	-1842	-1140
12952880	-505	-1924	-1260
12953208	-795	-1908	-1322
12953536	-1087	-1909	-1445
12953864	-1297	-1965	-1560
12954192	-1517	-2165	-1651
12954520	-1412	-2370	-1786
12954848	-1264	-2691	-1910
12955176	-1010	-2896	-2016
12955504	-857	-2991	-2045
12955832	-832	-3035	-2210
12956160	-934	-3338	-2477
12956488	-1283	-3633	-2719
12956816	-1675	-3982	-3039
12957144	-2202	-4349	-3385
12957472	-2569	-4582	-3776
12957800	-2636	-4817	-4277
12958128	-2831	-5160	-4686
12958456	-2995	-5348	-5197
12958784	-3357	-5462	-5593
12959112	-4216	-6017	-6245
12959440	-4914	-6550	-6528
12959768	-5768	-7031	-7164
12960096	-6742	-6526	-7619
12960424	-8706	-5732	-8204
12960752	-11188	-5915	-8657
12961080	-13445	-6563	-8886
12961408	-14707	-5294	-7985
12961736	-15230	-4318	-6563
12962064	-14939	-2322	-5332
12962392	-14921	1299	-3755
12962720	-15016	3255	-1599
12963048	-13248	5168	70
12963376	-13603	8035	2313
12963704	-13791	8524	4236
12964032	-14814	9200	5426
12964360	-14129	11105	6147
12964688	-13074	11704	7182
12965016	-12188	11691	7669
12965344	-11530	12618	7656
12965672	-11010	12156	6841
12966000	-10265	10116	6964
12966328	-10139	9319	6853
12966656	-9273	9635	7340
12966984	-9250	9895	7128
12967312	-8767	9242	7405
12967640	-8857	8964	7605
12967968	-8758	8645	7701
12968296	-8705	7906	7265
12968624	-8594	7046	7128
12968952	-8593	7210	6858
12969280	-8931	7911	6654
12969608	-9329	7900	6024
12969936	-9876	7200	5610
12970264	-10368	6189	4972
12970592	-10418	5759	4541
12970920	-10280	5391	3939
12971248	-10386	5374	3281
12971576	-10604	5757	2278
12971904	-10989	5953	1250
12972232	-11815	5816	172
12972560	-12183	5977	-666
12972888	-12899	6071	-1468
12973216	-13514	6109	-2023
12973544	-13568	5982	-2880
12973872	-13958	6023	-3429
12974200	-14299	6104	-4080
12974528	-14350	6235	-4754
12974856	-14138	6365	-5164
12975184	-14016	6597	-5398
12975512	-13371	6902	-5583
12975840	-12919	6874	-5808
12976168	-11599	7276	-5877
12976496	-10382	9093	-5085
12976824	-9644	8306	-3089
12977152	-8287	3801	-2509
12977480	-7110	3317	-2023
12977808	-5662	4952	-1877
12978136	-3758	4853	-694
12978464	-1148	3089	413
12978792	1328	1428	1041
12979120	2950	1578	1674
12979448	3767	2439	1872
12979776	4703	2546	1187
12980104	5072	2304	423
12980432	4795	2996	-470
12980760	3037	4922	-338
12981088	954	5738	171
12981416	-1948	4499	692
12981744	-4374	2731	519
12982072	-5342	1578	253
12982400	-5147	2271	94
12982728	-3785	3643	-98
12983056	-2163	3847	-209
12983384	-1029	3286	-325
12983712	-630	2916	-444
12984040	-318	3159	-401
12984368	-908	3171	-497
12984696	-1738	2947	-560
12985024	-2603	2869	-443
12985352	-3544	2953	-474
12985680	-4204	3058	-401
12986008	-4784	3136	-469
12986336	-4949	3378	-565
12986664	-4992	3861	-612
12986992	-5000	4323	-547
12987320	-5317	4436	-532
12987648	-5526	4309	-426
12987976	-5583	4219	-189
12988304	-5787	3948	-27
12988632	-6154	3941	0
12988960	-6336	4301	-63
12989288	-6756	4611	-218
12989616	-6967	4676	-463
12989944	-7201	4958	-740
12990272	-7770	5343	-965
12990600	-8287	5685	-1211
12990928	-8818	5719	-1485
12991256	-9403	5625	-1791
12991584	-10326	5946	-2109
12991912	-10637	6045	-2339
12992240	-11006	6150	-2483
12992568	-11257	6222	-2602
12992896	-11550	5974	-2664
12993224	-12118	6015	-2641
12993552	-12479	5806	-2616
12993880	-12358	5245	-2624
12994208	-12964	4689	-2643
12994536	-12566	5120	-2927
12994864	-13001	5480	-3110
12995192	-13123	5654	-3448
12995520	-13361	5504	-3752
12995848	-13748	5365	-4059
12996176	-14107	5444	-4325
12996504	-14434	5473	-4738
12996832	-14599	5942	-5194
12997160	-14734	6173	-5602
12997488	-14829	6064	-5977
12997816	-14850	5545	-6327
12998144	-14774	5376	-6754
12998472	-14733	5252	-7139
12998800	-14867	5090	-7517
12999128	-15185	5324	-7722
12999456	-15471	5634	-7589
12999784	-14431	6374	-6351
13000112	-14903	2802	-3349
13000440	-13331	-3489	-3075
13000768	-11197	-4436	-2951
13001096	-9179	-1307	-3331
13001424	-7559	2126	-2814
13001752	-7155	1795	-2796
13002080	-5924	-102	-2664
13002408	-4471	-639	-1926
13002736	-4720	-382	-1271
13003064	-5195	328	-610
13003392	-5504	939	-414
13003720	-6946	1275	41
13004048	-7379	1097	543
13004376	-8087	703	666
13004704	-7777	844	641
13005032	-7046	739	242
13005360	-6251	738	-231
13005688	-5051	972	-847
13006016	-3711	680	-1322
13006344	-2237	236	-1528
13006672	-1462	160	-1549
13007000	-576	81	-1273
13007328	-111	-580	-1076
13007656	133	-843	-769
13007984	710	-1239	-523
13008312	1003	-1438	-346
13008640	1188	-1616	-376
13008968	1209	-1622	-359
13009296	708	-1256	-297
13009624	519	-925	-180
13009952	436	-944	-120
13010280	474	-712	-141
13010608	733	-552	-79
13010936	742	-732	-78
13011264	770	-465	-32
13011592	623	76	47
13011920	255	349	96
13012248	-274	376	128
13012576	-479	483	159
13012904	-603	92	152
13013232	-444	-99	140
13013560	-375	95	143
13013888	-291	191	132
13014216	-189	114	141
13014544	-185	41	108
13014872	-105	47	116
13015200	97	-54	86
13015528	64	-190	74
13015856	14	-74	59
13016184	-47	-17	19
13016512	-59	-61	-18
13016840	-71	160	-53
13017168	-84	335	-56
13017496	-56	301	-83
13017824	49	241	-140
13018152	80	265	-143
13018480	104	307	-86
13018808	98	345	-49
13019136	162	425	-14
13019464	258	234	-11
13019792	249	257	0
13020120	215	313	31
13020448	174	233	101
13020776	143	215	158
13021104	178	397	193
13021432	258	381	208
13021760	430	378	198
13022088	654	355	200
13022416	796	237	249
13022744	939	296	300
13023072	960	330	382
13023400	1000	454	457
13023728	1139	573	592
13024056	1273	451	662
13024384	1480	392	723
13024712	1750	440	797
13025040	1934	496	835
13025368	2149	507	868
13025696	2352	656	944
13026024	2499	767	1065
13026352	2645	802	1173
13026680	2903	1004	1211
13027008	3082	1224	1228
13027336	3137	1365	1282
13027664	3081	1183	1415
13027992	3233	285	1784
13028320	3515	-623	2400
13028648	4125	-1171	3105
13028976	4783	-1994	3673
13029304	5786	-2257	4115
13029632	6596	-2281	4449
13029960	7504	-2649	4700
13030288	8225	-3010	4766
13030616	8961	-3233	4772
13030944	9365	-3838	4786
13031272	9732	-4501	4858
13031600	9856	-4871	4925
13031928	9966	-5253	4932
13032256	10004	-5766	4770
13032584	10088	-5733	4450
13032912	10074	-5345	4191
13033240	10177	-5062	4009
13033568	10244	-4910	3771
13033896	10403	-4607	3589
13034224	10403	-4123	3272
13034552	10320	-3579	2846
13034880	10296	-3209	2320
13035208	10146	-2664	1530
13035536	9610	-1839	490
13035864	8677	-880	-758
13036192	7421	72	-1916
13036520	5761	822	-2889
13036848	4078	1153	-3511
13037176	2653	901	-3729
13037504	1536	275	-3670
13037832	833	73	-3540
13038160	464	75	-3387
13038488	372	-50	-3423
13038816	741	227	-3614
13039144	1538	796	-3924
13039472	2260	979	-4472
13039800	2856	845	-4989
13040128	3214	1408	-5394
13040456	2723	2161	-5455
13040784	1932	2355	-5304
13041112	1018	1521	-4807
13041440	322	97	-4025
13041768	-88	-983	-3285
13042096	-327	-2020	-2750
13042424	-51	-1903	-2627
13042752	863	-225	-3218
13043080	1648	1331	-3891
13043408	2075	1261	-4157
13043736	2090	-58	-4042
13044064	1812	-729	-3651
13044392	1362	-550	-3363
13044720	927	-240	-3166
13045048	683	-341	-3067
13045376	463	-523	-2797
13045704	376	-712	-2370
13046032	293	-738	-2206
13046360	252	-638	-2140
13046688	373	-815	-2044
13047016	420	-1041	-2033
13047344	440	-891	-2088
13047672	431	-521	-2052
13048000	468	-526	-2044
13048328	368	-727	-1889
13048656	434	-887	-1718
13048984	581	-936	-1495
13049312	773	-949	-1387
13049640	991	-884	-1211
13049968	1189	-1137	-1028
13050296	1257	-1269	-792
13050624	1363	-1097	-852
13050952	1565	-1343	-771
13051280	1766	-1621	-766
13051608	2330	-2411	-610
13051936	2735	-3329	-476
13052264	2639	-3275	-410
13052592	2512	-2616	-353
13052920	2826	-2360	-288
13053248	2981	-2196	-239
13053576	3026	-2909	-327
13053904	3024	-2964	-280
13054232	3134	-2341	-172
13054560	2915	-2038	-116
13054888	2985	-2209	-73
13055216	2959	-2338	-87
13055544	3124	-2603	87
13055872	3322	-2551	224
13056200	3501	-2659	296
13056528	3707	-2713	321
13056856	3847	-2822	414
13057184	4040	-2748	548
13057512	4131	-2405	592
13057840	4358	-2320	779
