Time Stamp	Gyroscope X	Gyroscope Y	Gyroscope Z
RAW	RAW	RAW	RAW
no units	no units	no units	no units
1209422	-109	120	-58
1209750	-111	121	-65
1210078	-83	124	-61
1210406	-85	114	-56
1210734	-78	113	-53
1211062	-45	126	-52
1211390	-30	116	-48
1211718	-34	117	-51
1212046	-44	152	-47
1212374	-52	133	-43
1212702	-67	106	-42
1213030	-84	135	-45
1213358	-96	182	-35
1213686	-128	143	-35
1214014	-148	151	-30
1214342	-145	158	-27
1214670	-146	153	-27
1214998	-153	158	-16
1215326	-154	163	-23
1215654	-148	142	-18
1215982	-144	147	-18
1216310	-131	158	-26
1216638	-127	154	-21
1216966	-108	167	-16
1217294	-94	137	-16
1217622	-65	142	-23
1217950	-20	151	-29
1218278	6	123	-29
1218606	39	131	-24
1218934	43	138	-26
1219262	29	127	-31
1219590	26	143	-26
1219918	9	147	-34
1220246	2	106	-39
1220574	-16	131	-38
1220902	-17	154	-30
1221230	-35	123	-31
1221558	-46	103	-40
1221886	-43	115	-43
1222214	-31	137	-36
1222542	-48	102	-39
1222870	-50	94	-48
1223198	-40	116	-46
1223526	-26	98	-56
1223854	7	112	-48
1224182	6	102	-52
1224510	13	114	-46
1224838	16	138	-52
1225166	-4	133	-56
1225494	-7	142	-42
1225822	0	121	-45
1226150	6	140	-43
1226478	11	141	-46
1226806	4	158	-38
1227134	9	124	-47
1227462	-10	150	-32
1227790	-23	135	-41
1228118	-28	149	-35
1228446	-42	128	-48
1228774	-57	137	-60
1229102	-73	152	-50
1229430	-47	137	-50
1229758	-48	136	-49
1230086	-49	135	-63
1230414	-48	128	-56
1230742	-42	115	-58
1231070	-61	131	-62
1231398	-46	114	-66
1231726	-58	152	-63
1232054	-42	129	-70
1232382	-60	115	-68
1232710	-74	108	-66
1233038	-70	127	-60
1233366	-78	133	-73
1233694	-112	117	-70
1234022	-103	128	-76
1234350	-106	115	-66
1234678	-77	128	-82
1235006	-120	105	-64
1235334	-104	128	-51
1235662	-125	144	-46
1235990	-106	127	-63
1236318	-79	118	-40
1236646	-58	132	-59
1236974	-52	138	-52
1237302	-45	117	-48
1237630	-66	113	-42
1237958	-73	134	-50
1238286	-70	114	-26
1238614	-74	140	-26
1238942	-73	133	-29
1239270	-52	120	-32
1239598	-65	116	-39
1239926	-73	136	-29
1240254	-65	121	-41
1240582	-68	136	-27
1240910	-93	143	-26
1241238	-84	130	-36
1241566	-100	141	-34
1241894	-63	137	-28
1242222	-70	143	-43
1242550	-71	141	-39
1242878	-33	122	-40
1243206	-39	124	-49
1243534	-31	127	-48
1243862	-36	137	-50
1244190	-47	108	-53
1244518	-48	131	-46
1244846	-42	143	-45
1245174	-47	124	-47
1245502	-41	132	-50
1245830	-42	124	-34
1246158	-71	127	-27
1246486	-64	124	-27
1246814	-62	139	-34
1247142	-45	131	-21
1247470	-46	125	-30
1247798	-36	129	-32
1248126	-34	122	-45
1248454	-41	137	-47
1248782	-56	136	-39
1249110	-61	107	-38
1249438	-65	148	-45
1249766	-64	140	-34
1250094	-51	132	-44
1250422	-50	140	-48
1250750	-35	141	-49
1251078	-34	127	-53
1251406	-23	137	-44
1251734	-40	129	-61
1252062	-34	118	-52
1252390	-55	113	-45
1252718	-49	143	-59
1253046	-67	124	-52
1253374	-100	139	-61
1253702	-82	130	-45
1254030	-96	129	-51
1254358	-77	117	-47
1254686	-67	123	-56
1255014	-35	125	-57
1255342	-46	128	-63
1255670	-56	114	-71
1255998	-44	105	-63
1256326	-56	144	-49
1256654	-64	132	-57
1256982	-70	106	-46
1257310	-58	121	-72
1257638	-59	107	-59
1257966	-56	136	-47
1258294	-53	138	-57
1258622	-66	119	-60
1258950	-74	147	-60
1259278	-69	150	-55
1259606	-97	137	-64
1259934	-89	121	-55
1260262	-84	138	-49
1260590	-76	157	-44
1260918	-69	138	-59
1261246	-73	117	-48
1261574	-58	156	-44
1261902	-62	140	-32
1262230	-77	113	-36
1262558	-73	140	-39
1262886	-57	135	-33
1263214	-52	132	-25
1263542	-62	107	-44
1263870	-48	119	-30
1264198	-43	161	-47
1264526	-60	143	-40
1264854	-57	129	-34
1265182	-67	153	-36
1265510	-51	149	-21
1265838	-49	154	-34
1266166	-62	141	-40
1266494	-39	146	-35
1266822	-59	135	-35
1267150	-73	144	-20
1267478	-81	123	-32
1267806	-94	125	-37
1268134	-91	152	-27
1268462	-92	131	-33
1268790	-84	124	-24
1269118	-63	138	-25
1269446	-42	133	-27
1269774	-14	129	-26
1270102	-11	129	-30
1270430	-16	132	-23
1270758	-39	142	-20
1271086	-43	126	-14
1271414	-46	156	-23
1271742	-33	161	-15
1272070	-40	126	-14
1272398	-38	118	-29
1272726	-22	155	-22
1273054	-33	151	-22
1273382	-19	131	-29
1273710	-4	138	-15
1274038	-26	161	-23
1274366	-25	161	-31
1274694	-45	174	-27
1275022	-43	154	-24
1275350	-49	152	-9
1275678	-31	152	-29
1276006	-45	148	-19
1276334	-57	141	-32
1276662	-50	153	-38
1276990	-59	139	-30
1277318	-73	166	-26
1277646	-63	148	-26
1277974	-53	123	-24
1278302	-43	153	-33
1278630	-43	148	-30
1278958	-38	118	-27
1279286	-53	139	-36
1279614	-50	151	-30
1279942	-41	143	-23
1280270	-44	143	-22
1280598	-18	159	-35
1280926	-26	131	-32
1281254	-13	160	-31
1281582	-44	145	-18
1281910	-39	146	-24
1282238	-52	159	-19
1282566	-60	172	-15
1282894	-64	148	-16
1283222	-61	152	-5
1283550	-74	180	-13
1283878	-74	159	-17
1284206	-70	140	-17
1284534	-64	161	-12
1284862	-56	161	-10
1285190	-66	155	-20
1285518	-63	160	-32
1285846	-43	143	-21
1286174	-33	158	-21
1286502	-26	155	-19
1286830	-28	146	-22
1287158	-36	157	-10
1287486	-43	167	-26
1287814	-36	163	-8
1288142	-47	168	-8
1288470	-66	162	-15
1288798	-57	149	-11
1289126	-45	133	-12
1289454	-33	136	-8
1289782	-40	149	-11
1290110	-38	137	-3
1290438	-46	128	-21
1290766	-48	129	-5
1291094	-61	154	3
1291422	-62	149	-7
1291750	-50	144	8
1292078	-36	161	4
1292406	-22	152	7
1292734	1	141	13
1293062	-2	170	5
1293390	15	156	11
1293718	-2	146	9
1294046	11	158	4
1294374	-17	166	-1
1294702	-45	168	8
1295030	-40	167	14
1295358	-59	163	-12
1295686	-70	177	0
1296014	-82	180	1
1296342	-70	174	-6
1296670	-85	148	3
1296998	-87	178	-17
1297326	-65	182	-4
1297654	-73	154	-7
1297982	-60	160	-3
1298310	-56	148	-18
1298638	-32	157	-8
1298966	-21	152	-14
1299294	-18	151	-14
1299622	0	167	-16
1299950	20	135	-24
1300278	23	125	-14
1300606	22	168	-16
1300934	-1	148	-16
1301262	-20	141	-15
1301590	-34	187	-8
1301918	-39	164	-14
1302246	-54	152	-12
1302574	-54	164	-21
1302902	-67	175	-4
1303230	-65	159	-8
1303558	-78	158	-8
1303886	-76	182	0
1304214	-79	148	-14
1304542	-64	152	-7
1304870	-49	174	-19
1305198	-34	122	-21
1305526	-32	128	-20
1305854	-18	175	-5
1306182	-20	163	-18
1306510	-24	138	-21
1306838	-24	138	-18
1307166	-19	155	-1
1307494	-2	161	-5
1307822	-5	143	-5
1308150	-13	147	-7
1308478	-26	154	-8
1308806	-46	166	-13
1309134	-52	175	-9
1309462	-81	163	-6
1309790	-79	170	-6
1310118	-70	167	-6
1310446	-58	173	-19
1310774	-63	189	-14
1311102	-64	159	-11
1311430	-49	179	-5
1311758	-55	162	-9
1312086	-51	178	-4
1312414	-26	142	-16
1312742	-12	128	-12
1313070	-10	161	-18
1313398	-36	149	-23
1313726	-46	154	-20
1314054	-33	131	-27
1314382	-40	131	-19
1314710	-40	127	-30
1315038	-34	141	-25
1315366	-48	127	-33
1315694	-57	116	-22
1316022	-58	125	-20
1316350	-60	140	-35
1316678	-51	134	-26
1317006	-65	138	-29
1317334	-53	142	-25
1317662	-23	142	-14
1317990	-28	139	-22
1318318	-2	148	-28
1318646	4	135	-14
1318974	27	139	-32
1319302	-7	147	-14
1319630	12	130	-22
1319958	23	147	-20
1320286	14	138	-25
1320614	13	146	-23
1320942	-1	155	-26
1321270	-30	133	-22
1321598	-43	150	-38
1321926	-78	166	-22
1322254	-105	174	-32
1322582	-120	144	-26
1322910	-121	162	-34
1323238	-113	165	-28
1323566	-108	156	-30
1323894	-94	159	-26
1324222	-112	165	-28
1324550	-106	156	-33
1324878	-70	165	-27
1325206	-52	178	-37
1325534	-11	162	-44
1325862	-23	159	-27
1326190	-7	159	-37
1326518	26	174	-30
1326846	16	153	-30
1327174	26	159	-39
1327502	20	162	-45
1327830	-3	153	-51
1328158	-9	177	-36
1328486	-30	120	-43
1328814	-21	141	-40
1329142	-28	168	-46
1329470	-19	142	-53
1329798	-20	135	-50
1330126	-19	159	-55
1330454	-28	143	-67
1330782	-17	128	-62
1331110	-34	168	-47
1331438	-35	154	-68
1331766	-11	134	-74
1332094	-19	147	-59
1332422	-5	169	-69
1332750	-19	126	-66
1333078	-21	136	-62
1333406	-33	146	-58
1333734	-36	169	-44
1334062	-48	170	-41
1334390	-28	162	-51
1334718	-15	169	-55
1335046	-27	162	-53
1335374	-38	180	-42
1335702	-50	150	-31
1336030	-63	127	-40
1336358	-59	174	-41
1336686	-45	135	-37
1337014	-18	118	-51
1337342	-13	161	-33
1337670	-25	133	-47
1337998	-43	122	-49
1338326	-15	163	-40
1338654	4	133	-34
1338982	-16	143	-49
1339310	-11	194	-37
1339638	-43	163	-27
1339966	-40	155	-29
1340294	-54	168	-21
1340622	-57	152	-30
1340950	-65	155	-34
1341278	-64	149	-20
1341606	-67	136	-21
1341934	-46	161	-34
1342262	-36	150	-36
1342590	-37	131	-26
1342918	-54	140	-33
1343246	-47	144	-30
1343574	-53	170	-24
1343902	-39	153	-38
1344230	-41	127	-35
1344558	-45	164	-37
1344886	-27	187	-30
1345214	-58	142	-27
1345542	-44	150	-15
1345870	-46	159	-40
1346198	-50	155	-28
1346526	-50	162	-34
1346854	-52	160	-35
1347182	-55	148	-32
1347510	-57	137	-28
1347838	-65	141	-28
1348166	-71	174	-33
1348494	-78	147	-24
1348822	-70	145	-26
1349150	-60	149	-28
1349478	-49	135	-27
1349806	-35	143	-26
1350134	-52	135	-43
1350462	-38	137	-28
1350790	-44	167	-24
1351118	-42	150	-24
1351446	-55	131	-30
1351774	-40	140	-24
1352102	-35	153	-27
1352430	-43	147	-25
1352758	-68	139	-21
1353086	-53	145	-20
1353414	-52	126	-31
1353742	-39	116	-38
1354070	-64	124	-33
1354398	-61	156	-20
1354726	-92	155	-28
1355054	-122	133	-42
1355382	-128	114	-48
1355710	-131	117	-36
1356038	-163	157	-52
1356366	-204	140	-58
1356694	-237	141	-47
1357022	-247	145	-55
1357350	-212	138	-51
1357678	-145	99	-65
1358006	-90	116	-53
1358334	-81	138	-38
1358662	-82	127	-50
1358990	-54	98	-30
1359318	13	110	-20
1359646	57	71	-26
1359974	159	54	-22
1360302	220	22	-22
1360630	267	-4	-3
1360958	311	46	1
1361286	306	40	-2
1361614	296	30	7
1361942	285	42	11
1362270	244	19	-3
1362598	188	61	-4
1362926	163	92	-3
1363254	189	22	-13
1363582	183	40	-14
1363910	190	51	-16
1364238	178	67	-23
1364566	163	56	-19
1364894	138	65	-34
1365222	103	77	-28
1365550	59	71	-20
1365878	35	83	-25
1366206	7	47	-20
1366534	-24	58	-27
1366862	-34	106	-24
1367190	-35	17	-18
1367518	-55	47	-18
1367846	-25	56	-6
1368174	-49	51	-19
1368502	-94	76	-11
1368830	-128	91	-1
1369158	-159	38	-3
1369486	-176	80	4
1369814	-182	77	4
1370142	-190	84	-9
1370470	-211	80	-2
1370798	-222	67	-2
1371126	-223	64	-3
1371454	-237	63	-6
1371782	-238	56	-12
1372110	-233	78	-15
1372438	-257	53	-13
1372766	-262	27	-11
1373094	-289	50	-5
1373422	-313	42	-25
1373750	-330	21	-19
1374078	-323	32	-24
1374406	-337	46	-25
1374734	-337	2	-30
1375062	-315	-2	-32
1375390	-339	12	-29
1375718	-332	1	-32
1376046	-354	-5	-26
1376374	-350	-24	-31
1376702	-360	-11	-29
1377030	-345	38	-37
1377358	-350	12	-27
1377686	-373	-8	-21
1378014	-352	45	-3
1378342	-311	39	-12
1378670	-326	-12	0
1378998	-281	6	-9
1379326	-241	30	-5
1379654	-217	-14	2
1379982	-227	-10	19
1380310	-267	8	9
1380638	-278	14	7
1380966	-289	-1	5
1381294	-281	1	11
1381622	-293	37	7
1381950	-297	4	2
1382278	-298	10	14
1382606	-265	47	3
1382934	-225	32	9
1383262	-192	-15	14
1383590	-185	60	28
1383918	-183	58	11
1384246	-157	3	9
1384574	-150	15	13
1384902	-132	29	20
1385230	-133	72	24
1385558	-163	58	25
1385886	-183	80	29
1386214	-192	84	23
1386542	-200	56	28
1386870	-205	76	15
1387198	-205	128	17
1387526	-194	93	23
1387854	-171	54	5
1388182	-143	82	16
1388510	-114	97	12
1388838	-121	57	20
1389166	-125	81	6
1389494	-104	78	14
1389822	-127	84	6
1390150	-121	108	2
1390478	-126	95	-5
1390806	-113	87	15
1391134	-75	102	-2
1391462	-62	109	-7
1391790	-39	97	-6
1392118	-29	80	-2
1392446	-40	145	7
1392774	-48	94	-12
1393102	-41	85	-8
1393430	-55	119	-7
1393758	-83	120	-18
1394086	-89	136	-11
1394414	-96	121	-14
1394742	-122	108	-23
1395070	-87	140	-20
1395398	-101	148	-9
1395726	-87	135	-23
1396054	-74	123	-26
1396382	-62	136	-18
1396710	-49	168	-27
1397038	-22	151	-27
1397366	-42	128	-17
1397694	-26	175	-14
1398022	-24	131	-27
1398350	-27	125	-26
1398678	-34	176	-25
1399006	-34	147	-29
1399334	-32	162	-27
1399662	-41	167	-22
1399990	-35	156	-39
1400318	-26	167	-31
1400646	-27	180	-26
1400974	-31	144	-39
1401302	-16	160	-36
1401630	-17	167	-35
1401958	-23	149	-23
1402286	-20	160	-35
1402614	-31	174	-30
1402942	-36	151	-36
1403270	-61	151	-46
1403598	-65	165	-48
1403926	-58	158	-56
1404254	-47	155	-45
1404582	-58	165	-48
1404910	-32	169	-41
1405238	-17	151	-40
1405566	-12	178	-44
1405894	-1	161	-43
1406222	13	157	-29
1406550	0	166	-47
1406878	-5	171	-44
1407206	-4	173	-31
1407534	-36	172	-25
1407862	-35	154	-40
1408190	-35	170	-30
1408518	-19	191	-26
1408846	-11	190	-33
1409174	0	192	-26
1409502	-14	183	-32
1409830	10	160	-24
1410158	2	182	-32
1410486	3	176	-33
1410814	-7	148	-27
1411142	-5	188	-22
1411470	-14	178	-10
1411798	-37	174	-19
1412126	-32	181	-25
1412454	-36	169	-21
1412782	-34	175	-22
1413110	-43	172	-14
1413438	-31	181	-28
1413766	-32	172	-22
1414094	-11	155	-42
1414422	-4	155	-34
1414750	-21	189	-28
1415078	-35	157	-21
1415406	-32	164	-24
1415734	-48	175	-23
1416062	-42	182	-21
1416390	-58	174	-36
1416718	-48	149	-28
1417046	-53	197	-40
1417374	-45	170	-19
1417702	-61	131	-29
1418030	-47	186	-33
1418358	-49	179	-28
1418686	-49	135	-35
1419014	-46	157	-31
1419342	-64	168	-26
1419670	-53	152	-24
1419998	-51	177	-28
1420326	-35	171	-15
1420654	-40	169	-21
1420982	-36	185	-25
1421310	-25	183	-21
1421638	-33	153	-26
1421966	-27	171	-27
1422294	-35	154	-24
1422622	-44	133	-37
1422950	-39	145	-36
1423278	-42	147	-29
1423606	-25	157	-27
1423934	-53	146	-28
1424262	-46	146	-30
1424590	-67	144	-23
1424918	-67	162	-23
1425246	-75	153	-17
1425574	-89	158	-23
1425902	-62	148	-15
1426230	-62	146	-30
1426558	-65	171	-19
1426886	-53	139	-22
1427214	-54	125	-20
1427542	-64	149	-27
1427870	-58	157	-15
1428198	-50	126	-29
1428526	-47	142	-22
1428854	-29	161	-16
1429182	-25	140	-19
1429510	-30	147	-20
1429838	-38	157	-15
1430166	-45	138	-21
1430494	-30	167	-13
1430822	-53	157	-7
1431150	-44	143	-20
1431478	-57	149	-19
1431806	-62	166	-25
1432134	-50	153	-25
1432462	-41	147	-23
1432790	-17	141	-29
1433118	-20	141	-29
1433446	-40	159	-29
1433774	-50	155	-22
1434102	-47	143	-24
1434430	-55	150	-27
1434758	-31	126	-31
1435086	-36	122	-26
1435414	-22	149	-25
1435742	-25	159	-24
1436070	-36	128	-20
1436398	-35	151	-25
1436726	-24	141	-31
1437054	-32	143	-31
1437382	-34	143	-24
1437710	-44	144	-19
1438038	-33	125	-33
1438366	-33	152	-18
1438694	-29	159	-32
1439022	-40	135	-24
1439350	-59	144	-17
1439678	-48	138	-30
1440006	-52	141	-27
1440334	-42	148	-17
1440662	-49	149	-21
1440990	-50	154	-24
1441318	-53	143	-34
1441646	-59	141	-25
1441974	-41	170	-17
1442302	-42	146	-17
1442630	-44	132	-28
1442958	-38	134	-18
1443286	-34	153	-20
1443614	-40	158	-37
1443942	-74	138	-21
1444270	-61	151	-25
1444598	-51	139	-35
1444926	-27	145	-40
1445254	-34	141	-29
1445582	-39	126	-27
1445910	-38	157	-34
1446238	-42	170	-28
1446566	-51	146	-33
1446894	-56	148	-32
1447222	-45	156	-32
1447550	-49	153	-38
1447878	-58	152	-35
1448206	-44	142	-32
1448534	-69	153	-38
1448862	-68	136	-36
1449190	-79	151	-37
1449518	-81	140	-31
1449846	-77	138	-38
1450174	-71	162	-41
1450502	-52	144	-42
1450830	-61	149	-34
1451158	-91	154	-38
1451486	-64	142	-28
1451814	-56	167	-33
1452142	-47	140	-40
1452470	-41	160	-32
1452798	-23	161	-25
1453126	-42	151	-36
1453454	-35	152	-42
1453782	-39	166	-37
1454110	-62	162	-47
1454438	-61	152	-40
1454766	-38	152	-52
1455094	-27	153	-54
1455422	-37	140	-53
1455750	-25	157	-45
1456078	-5	141	-44
1456406	-29	111	-40
1456734	-28	164	-35
1457062	-27	166	-38
1457390	-36	139	-42
1457718	-23	145	-40
1458046	-9	148	-43
1458374	-18	142	-54
1458702	-26	133	-53
1459030	-29	139	-50
1459358	-33	151	-44
1459686	-40	142	-46
1460014	-43	139	-42
1460342	-45	141	-31
1460670	-38	142	-46
1460998	-42	138	-47
1461326	-59	129	-44
1461654	-50	147	-37
1461982	-38	135	-45
1462310	-38	148	-42
1462638	-35	144	-21
1462966	-29	156	-32
1463294	-27	146	-39
1463622	-20	141	-26
1463950	-23	153	-37
1464278	-10	145	-35
1464606	-35	140	-43
1464934	-25	123	-39
1465262	-36	154	-31
1465590	-45	156	-45
1465918	-50	138	-45
1466246	-35	125	-32
1466574	-39	148	-32
1466902	-34	158	-38
1467230	-44	124	-52
1467558	-53	151	-32
1467886	-62	157	-47
1468214	-59	115	-30
1468542	-46	146	-37
1468870	-50	142	-44
1469198	-29	113	-44
1469526	-32	142	-43
1469854	-29	163	-37
1470182	-31	133	-33
1470510	-37	142	-37
1470838	-60	154	-42
1471166	-61	135	-39
1471494	-76	139	-28
1471822	-62	154	-38
1472150	-78	125	-26
1472478	-83	151	-30
1472806	-64	137	-29
1473134	-77	137	-31
1473462	-61	145	-25
1473790	-48	148	-28
1474118	-41	160	-33
1474446	-49	159	-22
1474774	-51	157	-14
1475102	-49	158	-29
1475430	-43	156	-22
1475758	-41	163	-23
1476086	-32	161	-11
1476414	-20	138	-20
1476742	-18	145	-16
1477070	-14	163	-32
1477398	-14	126	-18
1477726	-38	167	-26
1478054	-38	154	-19
1478382	-47	147	-28
1478710	-45	171	-19
1479038	-42	157	-43
1479366	-54	152	-22
1479694	-62	162	-31
1480022	-75	145	-39
1480350	-72	158	-28
1480678	-64	161	-36
1481006	-56	152	-29
1481334	-53	166	-16
1481662	-60	156	-28
1481990	-61	149	-29
1482318	-63	147	-33
1482646	-62	145	-37
1482974	-54	168	-27
1483302	-73	147	-33
1483630	-68	153	-32
1483958	-61	147	-38
1484286	-53	144	-43
1484614	-42	153	-32
1484942	-46	159	-38
1485270	-47	143	-33
1485598	-35	139	-24
1485926	-48	183	-28
1486254	-51	140	-39
1486582	-22	149	-32
1486910	-28	144	-38
1487238	-36	137	-42
1487566	-24	150	-34
1487894	-35	143	-37
1488222	-20	151	-27
1488550	-28	121	-42
1488878	-42	122	-44
1489206	-39	150	-38
1489534	-41	143	-43
1489862	-65	147	-36
1490190	-46	133	-48
1490518	-50	130	-39
1490846	-60	146	-43
1491174	-51	150	-47
1491502	-57	144	-41
1491830	-61	150	-45
1492158	-47	141	-56
1492486	-49	129	-47
1492814	-50	159	-41
1493142	-43	139	-44
1493470	-50	123	-41
1493798	-51	136	-36
1494126	-63	147	-39
1494454	-55	105	-46
1494782	-37	147	-41
1495110	-48	149	-34
1495438	-24	140	-40
1495766	-44	146	-43
1496094	-27	145	-34
1496422	-6	147	-36
1496750	-16	147	-28
1497078	-20	148	-34
1497406	-34	148	-22
1497734	-24	156	-36
1498062	-30	134	-28
1498390	-26	163	-18
1498718	-32	182	-29
1499046	-38	155	-29
1499374	-34	131	-28
1499702	-36	159	-25
1500030	-42	161	-30
1500358	-53	146	-33
1500686	-36	154	-38
1501014	-34	151	-31
1501342	-48	143	-27
1501670	-52	153	-35
1501998	-39	144	-34
1502326	-49	127	-45
1502654	-31	157	-24
1502982	-31	152	-29
1503310	-33	138	-26
1503638	-46	144	-37
1503966	-44	160	-33
1504294	-41	150	-41
1504622	-46	143	-42
1504950	-38	132	-31
1505278	-27	150	-40
1505606	-32	173	-38
1505934	-28	132	-44
1506262	-42	118	-35
1506590	-49	155	-41
1506918	-55	144	-38
1507246	-64	143	-37
1507574	-33	171	-26
1507902	-30	126	-33
1508230	-47	151	-45
1508558	-40	140	-33
1508886	-59	147	-44
1509214	-62	162	-34
1509542	-48	169	-34
1509870	-37	154	-40
1510198	-25	161	-39
1510526	-39	137	-37
1510854	-37	166	-32
1511182	-37	167	-29
1511510	-36	135	-35
1511838	-38	157	-33
1512166	-39	182	-36
1512494	-52	159	-45
1512822	-59	140	-36
1513150	-56	177	-41
1513478	-78	179	-38
1513806	-61	143	-32
1514134	-65	159	-38
1514462	-55	187	-50
1514790	-86	163	-48
1515118	-81	141	-26
1515446	-72	161	-37
1515774	-73	168	-44
1516102	-83	128	-42
1516430	-92	148	-35
1516758	-91	145	-38
1517086	-81	136	-32
1517414	-106	131	-31
1517742	-72	142	-24
1518070	-58	144	-40
1518398	-60	128	-55
1518726	-55	102	-44
1519054	-39	132	-33
1519382	-41	142	-32
1519710	-33	111	-39
1520038	-23	119	-47
1520366	-33	150	-38
1520694	-31	136	-43
1521022	-25	133	-36
1521350	-27	148	-35
1521678	-34	177	-38
1522006	-41	158	-35
1522334	-28	164	-42
1522662	-29	166	-31
1522990	-16	179	-31
1523318	-43	167	-33
1523646	-58	164	-39
1523974	-76	167	-34
1524302	-114	210	-21
1524630	-91	171	-32
1524958	-89	159	-27
1525286	-81	184	-39
1525614	-63	192	-23
1525942	-49	153	-15
1526270	-80	143	-25
1526598	-79	168	-25
1526926	-50	193	-20
1527254	-43	131	-13
1527582	-19	130	-26
1527910	-18	166	-23
1528238	27	125	-31
1528566	7	138	-31
1528894	-10	135	-38
1529222	-10	111	-32
1529550	-27	163	-26
1529878	-42	158	-44
1530206	-64	143	-39
1530534	-65	163	-39
1530862	-57	152	-35
1531190	-55	165	-30
1531518	-51	168	-43
1531846	-60	163	-37
1532174	-37	165	-24
1532502	-53	164	-23
1532830	-54	181	-21
1533158	-50	189	-19
1533486	-47	153	-14
1533814	-57	174	-33
1534142	-63	177	-20
1534470	-41	180	-18
1534798	-53	161	-15
1535126	-62	108	-44
1535454	-58	149	-16
1535782	-61	196	-24
1536110	-72	166	-39
1536438	-51	112	-32
1536766	-35	147	-30
1537094	-23	163	-33
1537422	-3	107	-46
1537750	1	109	-50
1538078	-3	135	-55
1538406	-3	135	-54
1538734	-21	123	-50
1539062	-28	147	-45
1539390	-39	114	-48
1539718	-31	148	-50
1540046	-28	128	-64
1540374	-44	146	-60
1540702	-58	135	-44
1541030	-58	93	-52
1541358	-83	127	-45
1541686	-81	155	-60
1542014	-86	111	-52
1542342	-58	147	-49
1542670	-67	145	-45
1542998	-67	135	-57
1543326	-58	146	-41
1543654	-80	152	-49
1543982	-72	132	-50
1544310	-66	168	-40
1544638	-51	165	-44
1544966	-36	138	-42
1545294	-22	137	-50
1545622	-16	161	-52
1545950	-25	151	-43
1546278	-36	145	-40
1546606	-25	141	-63
1546934	-29	134	-48
1547262	-46	122	-55
1547590	-58	136	-40
1547918	-66	156	-39
1548246	-53	153	-47
1548574	-56	157	-36
1548902	-42	134	-48
1549230	-35	153	-54
1549558	-31	151	-47
1549886	-65	132	-38
1550214	-56	157	-42
1550542	-54	170	-34
1550870	-44	135	-41
1551198	-48	130	-33
1551526	-25	147	-50
1551854	-25	137	-38
1552182	-39	146	-52
1552510	-61	158	-40
1552838	-63	166	-34
1553166	-53	158	-33
1553494	-45	183	-37
1553822	-36	170	-42
1554150	-38	144	-33
1554478	-25	169	-33
1554806	-30	143	-30
1555134	-37	150	-33
1555462	-32	172	-26
1555790	-57	154	-33
1556118	-40	133	-35
1556446	-29	152	-32
1556774	-22	164	-26
1557102	-12	137	-33
1557430	1	130	-40
1557758	-25	169	-35
1558086	-14	172	-42
1558414	-24	145	-22
1558742	-7	161	-37
1559070	-10	169	-42
1559398	-12	159	-40
1559726	-17	144	-30
1560054	-9	154	-25
1560382	-31	155	-31
1560710	-18	164	-46
1561038	-26	140	-30
1561366	-54	142	-41
1561694	-40	171	-37
1562022	-35	174	-35
1562350	-35	139	-39
1562678	-44	172	-26
1563006	-56	179	-19
1563334	-70	152	-21
1563662	-55	171	-29
1563990	-55	179	-16
1564318	-34	153	-11
1564646	-40	160	-18
1564974	-13	142	-26
1565302	-14	154	-30
1565630	-11	161	-31
1565958	-15	160	-25
1566286	14	135	-21
1566614	2	163	-23
1566942	-28	164	-30
1567270	-32	173	-22
1567598	-30	188	-16
1567926	-43	177	-18
1568254	-44	154	-20
1568582	-46	203	-15
1568910	-33	172	-19
1569238	-45	191	-16
1569566	-36	186	-12
1569894	-26	180	-9
1570222	-23	179	-21
1570550	-25	177	-14
1570878	-20	181	-13
1571206	-31	155	-8
1571534	-46	190	-24
1571862	-35	168	-10
1572190	-17	156	-8
1572518	-28	178	-22
1572846	-22	177	-16
1573174	-33	154	-19
1573502	-54	155	-25
1573830	-43	147	-26
1574158	-46	159	-10
1574486	-34	168	-16
1574814	-27	148	-14
1575142	-43	147	-24
1575470	-40	169	-22
1575798	-33	173	-26
1576126	-19	157	-26
1576454	-21	172	-21
1576782	-8	171	-12
1577110	-36	155	-17
1577438	-36	169	-32
1577766	-32	173	-17
1578094	-47	172	-21
1578422	-30	181	-21
1578750	-12	141	-20
1579078	-19	151	-27
1579406	-28	153	-30
1579734	-37	125	-28
1580062	-52	145	-30
1580390	-50	172	-20
1580718	-49	134	-21
1581046	-29	162	-30
1581374	-17	176	-27
1581702	-12	158	-33
1582030	-6	145	-27
1582358	-23	175	-34
1582686	-29	182	-17
1583014	-25	158	-22
1583342	-45	162	-27
1583670	-23	176	-18
1583998	-30	156	-24
1584326	-15	151	-32
1584654	-8	148	-31
1584982	-1	146	-20
1585310	-14	165	-27
1585638	-41	139	-19
1585966	-44	163	-23
1586294	-48	144	-18
1586622	-55	148	-18
1586950	-31	165	-22
1587278	-49	153	-22
1587606	-41	144	-17
1587934	-45	169	-22
1588262	-40	147	-16
1588590	-42	161	-8
1588918	-41	172	-13
1589246	-46	163	-8
1589574	-32	141	-17
1589902	-33	166	-10
1590230	-33	160	-9
1590558	-48	151	-14
1590886	-59	175	-13
1591214	-71	161	-15
1591542	-72	160	-15
1591870	-67	186	-17
1592198	-61	150	-2
1592526	-53	174	-20
1592854	-26	188	-17
1593182	-18	153	-20
1593510	-8	170	-25
1593838	-18	159	-16
1594166	-23	177	-15
1594494	-50	169	-15
1594822	-46	149	-10
1595150	-46	155	-23
1595478	-57	138	-16
1595806	-36	155	-11
1596134	-58	154	-18
1596462	-67	160	-10
1596790	-54	160	-21
1597118	-50	169	-12
1597446	-49	151	-19
1597774	-55	160	-11
1598102	-83	157	-10
1598430	-72	162	-20
1598758	-65	127	-21
1599086	-55	139	-23
1599414	-34	148	-17
1599742	-31	139	-27
1600070	-30	137	-24
1600398	-16	151	-28
1600726	-27	142	-26
1601054	-17	142	-32
1601382	-29	153	-18
1601710	-16	146	-10
1602038	-29	160	-16
1602366	-32	152	-11
1602694	-43	160	-13
1603022	-42	150	-18
1603350	-61	130	-26
1603678	-36	147	-15
1604006	-62	142	-38
1604334	-63	159	-20
1604662	-79	147	-22
1604990	-72	156	-18
1605318	-58	143	-19
1605646	-59	153	-26
1605974	-69	158	-29
1606302	-70	167	-24
1606630	-67	148	-35
1606958	-51	162	-35
1607286	-48	144	-22
1607614	-56	162	-26
1607942	-58	139	-38
1608270	-49	146	-17
1608598	-52	137	-28
1608926	-43	161	-26
1609254	-48	152	-26
1609582	-61	137	-34
1609910	-51	139	-34
1610238	-54	151	-26
1610566	-62	151	-28
1610894	-56	145	-22
1611222	-59	150	-22
1611550	-48	131	-19
1611878	-36	135	-14
1612206	-23	165	-28
1612534	-39	155	-28
1612862	-31	149	-25
1613190	-35	152	-25
1613518	-53	146	-23
1613846	-53	174	-22
1614174	-46	161	-28
1614502	-40	127	-31
1614830	-40	156	-13
1615158	-37	176	-23
1615486	-34	153	-19
1615814	-17	165	-19
1616142	-12	165	-16
1616470	-2	143	-19
1616798	1	152	-15
1617126	3	163	-9
1617454	1	154	-20
1617782	-10	169	-13
1618110	7	174	-17
1618438	4	154	-1
1618766	7	147	-21
1619094	-20	124	-26
1619422	-36	137	-12
1619750	-28	158	-26
1620078	-62	132	-22
1620406	-34	137	-31
1620734	-41	139	-30
1621062	-50	138	-21
1621390	-50	137	-39
1621718	-61	153	-29
1622046	-59	128	-34
1622374	-37	115	-49
1622702	-36	131	-38
1623030	-43	146	-34
1623358	-53	158	-32
1623686	-37	129	-33
1624014	-40	133	-28
1624342	-32	139	-13
1624670	-46	127	-36
1624998	-50	131	-30
1625326	-50	151	-36
1625654	-58	144	-27
1625982	-75	144	-27
1626310	-73	136	-29
1626638	-76	134	-37
1626966	-72	137	-32
1627294	-74	149	-28
1627622	-56	136	-30
1627950	-62	115	-28
1628278	-57	126	-29
1628606	-79	126	-41
1628934	-73	114	-38
1629262	-92	140	-39
1629590	-97	131	-30
1629918	-75	141	-36
1630246	-73	137	-28
1630574	-85	138	-31
1630902	-78	136	-32
1631230	-57	128	-41
1631558	-54	144	-33
1631886	-78	121	-23
1632214	-62	138	-24
1632542	-83	124	-37
1632870	-91	140	-32
1633198	-84	137	-24
1633526	-85	140	-19
1633854	-81	132	-32
1634182	-80	130	-24
1634510	-78	122	-34
1634838	-75	150	-31
1635166	-58	130	-32
1635494	-42	128	-22
1635822	-41	148	-19
1636150	-43	133	-22
1636478	-47	126	-20
1636806	-50	152	-33
1637134	-57	147	-32
1637462	-36	152	-23
1637790	-55	151	-21
1638118	-44	173	-16
1638446	-60	154	-17
1638774	-39	153	-20
1639102	-32	139	-16
1639430	-19	162	-24
1639758	-17	163	-9
1640086	-24	153	-28
1640414	-18	160	-21
1640742	-31	169	-16
1641070	-31	167	-14
1641398	-15	151	-24
1641726	-14	155	-14
1642054	4	164	-23
1642382	-23	147	-25
1642710	-17	145	-19
1643038	-19	156	-25
1643366	-32	137	-31
1643694	-21	143	-30
1644022	-29	133	-25
1644350	-31	143	-31
1644678	-24	153	-21
1645006	-23	151	-23
1645334	-17	141	-34
1645662	5	156	-30
1645990	3	127	-37
1646318	-2	155	-23
1646646	-18	151	-27
1646974	-23	158	-27
1647302	-22	166	-24
1647630	-22	152	-27
1647958	-38	171	-19
1648286	-23	150	-16
1648614	-21	146	-11
1648942	-28	158	-23
1649270	11	157	-21
1649598	-7	156	-29
1649926	-26	161	-30
1650254	-25	162	-23
1650582	-34	154	-29
1650910	-45	149	-39
1651238	-39	171	-36
1651566	-55	173	-33
1651894	-50	157	-38
1652222	-65	148	-41
1652550	-66	164	-42
1652878	-73	163	-30
1653206	-61	155	-44
1653534	-65	164	-48
1653862	-59	165	-58
1654190	-78	154	-58
1654518	-61	169	-57
1654846	-64	162	-56
1655174	-83	139	-52
1655502	-63	138	-66
1655830	-58	143	-58
1656158	-63	145	-59
1656486	-69	146	-40
1656814	-64	148	-60
1657142	-54	147	-50
1657470	-65	146	-57
1657798	-79	164	-52
1658126	-61	136	-43
1658454	-48	147	-46
1658782	-36	161	-32
1659110	-24	133	-31
1659438	-17	142	-37
1659766	-25	166	-34
1660094	-27	126	-31
1660422	-40	154	-22
1660750	-56	170	-17
1661078	-58	150	-30
1661406	-50	166	-22
1661734	-34	149	-33
1662062	-46	152	-22
1662390	-42	140	-21
1662718	-22	148	-28
1663046	-38	146	-29
1663374	-38	167	-21
1663702	-43	143	-18
1664030	-46	136	-20
1664358	-29	142	-26
1664686	-26	135	-21
1665014	-5	150	-22
1665342	-25	161	-3
1665670	-25	128	-17
1665998	-22	146	-8
1666326	-32	139	-13
1666654	-42	129	-18
1666982	-50	139	-8
1667310	-52	125	-8
1667638	-38	144	-8
1667966	-49	135	-8
1668294	-34	134	-11
1668622	-40	135	-1
1668950	-40	113	-6
1669278	-35	153	-1
1669606	-25	149	-3
1669934	-33	128	5
1670262	-21	155	-5
1670590	-20	125	-12
1670918	-21	115	-5
1671246	-34	165	-7
1671574	-47	159	-10
1671902	-56	137	-9
1672230	-57	169	-6
1672558	-49	145	-1
1672886	-57	135	6
1673214	-57	152	-11
1673542	-62	172	-8
1673870	-82	142	-11
1674198	-78	138	-3
1674526	-78	150	-4
1674854	-95	132	-1
1675182	-83	136	-17
1675510	-68	164	-15
1675838	-55	126	-11
1676166	-64	144	-16
1676494	-55	158	-31
1676822	-44	123	-26
1677150	-50	133	-26
1677478	-50	147	-29
1677806	-52	131	-14
1678134	-69	146	-17
1678462	-68	143	-30
1678790	-74	137	-29
1679118	-78	141	-26
1679446	-111	131	-20
1679774	-110	131	-30
1680102	-106	141	-26
1680430	-109	137	-17
1680758	-98	140	-24
1681086	-98	114	-30
1681414	-88	140	-20
1681742	-75	164	-22
1682070	-68	122	-25
1682398	-60	144	-13
1682726	-53	160	-21
1683054	-44	157	-10
1683382	-24	133	-11
1683710	-21	157	-17
1684038	-26	153	-7
1684366	-19	161	-5
1684694	-19	163	7
1685022	-15	174	1
1685350	-34	145	-8
1685678	-34	150	-9
1686006	-42	169	-13
1686334	-43	163	-15
1686662	-35	163	-15
1686990	-33	172	-4
1687318	-29	169	-10
1687646	-28	162	-3
1687974	-26	180	2
1688302	-27	185	-5
1688630	-41	161	-8
1688958	-40	192	-1
1689286	-17	176	8
1689614	-27	147	2
1689942	16	159	-5
1690270	2	178	10
1690598	-15	185	14
1690926	-21	173	4
1691254	-22	163	4
1691582	-10	145	-7
1691910	-8	187	-1
1692238	-16	189	15
1692566	-7	145	8
1692894	-10	189	-1
1693222	5	183	1
1693550	-15	178	0
1693878	-18	165	-2
1694206	-28	161	2
1694534	-7	163	-7
1694862	-20	175	-12
1695190	-36	188	3
1695518	-47	188	-10
1695846	-45	159	-21
1696174	-52	165	-15
1696502	-38	193	-13
1696830	-51	191	-13
1697158	-38	155	-18
1697486	-20	144	-12
1697814	-35	159	-10
1698142	-24	181	-23
1698470	-14	160	-16
1698798	-25	150	-29
1699126	-7	153	-14
1699454	-19	161	-14
1699782	-27	170	-22
1700110	-33	156	-17
1700438	-51	170	-5
1700766	-40	173	-16
1701094	-39	137	-15
1701422	-25	139	-16
1701750	-34	184	-14
1702078	-36	146	-9
1702406	-40	149	-8
1702734	-45	171	-26
1703062	-52	147	-22
1703390	-78	170	-19
1703718	-66	150	-26
1704046	-64	144	-16
1704374	-40	151	-26
1704702	-26	147	-18
1705030	-20	160	-9
1705358	3	178	-11
1705686	-7	167	-8
1706014	0	177	-17
1706342	-22	161	-14
1706670	-29	153	-12
1706998	-33	196	5
1707326	-30	169	5
1707654	-15	183	2
1707982	4	186	-5
1708310	9	132	-10
1708638	15	185	4
1708966	29	205	10
1709294	-7	142	7
1709622	14	192	15
1709950	1	181	21
1710278	-10	183	12
1710606	-1	203	5
1710934	-9	165	34
1711262	-28	179	10
1711590	-9	202	13
1711918	-35	162	7
1712246	-32	212	10
1712574	-15	198	25
1712902	-25	172	8
1713230	-1	214	16
1713558	-17	170	30
1713886	-35	174	37
1714214	-21	227	22
1714542	-12	177	17
1714870	-32	153	18
1715198	-15	176	53
1715526	-40	199	37
1715854	-14	138	26
1716182	-12	151	24
1716510	12	242	41
1716838	2	236	32
1717166	-14	177	17
1717494	-27	157	22
1717822	-5	210	24
1718150	-27	198	31
1718478	-41	166	14
1718806	-37	176	15
1719134	-58	193	-11
1719462	-48	183	-2
1719790	-47	181	-2
1720118	-37	157	-12
1720446	-24	154	-14
1720774	-26	171	-3
1721102	-42	167	-16
1721430	-25	144	-21
1721758	-30	165	-22
1722086	-40	171	-13
1722414	-59	154	-4
1722742	-76	165	-13
1723070	-66	157	-7
1723398	-65	144	-22
1723726	-35	155	-25
1724054	-43	164	-17
1724382	-54	157	-22
1724710	-60	150	-19
1725038	-70	140	-36
1725366	-44	149	-20
1725694	-59	133	-25
1726022	-67	135	-18
1726350	-76	159	-23
1726678	-66	137	-21
1727006	-78	118	-26
1727334	-47	132	-24
1727662	-35	157	-24
1727990	-27	144	-29
1728318	-28	126	-21
1728646	-38	150	-22
1728974	-35	157	-21
1729302	-44	146	-30
1729630	-40	148	-29
1729958	-34	162	-26
1730286	-25	141	-21
1730614	-21	128	-35
1730942	-45	156	-37
1731270	-35	149	-36
1731598	-45	138	-35
1731926	-40	149	-19
1732254	-44	158	-30
1732582	-44	135	-27
1732910	-37	146	-25
1733238	-31	127	-29
1733566	-43	156	-36
1733894	-34	143	-28
1734222	-48	122	-20
1734550	-40	149	-30
1734878	-50	147	-27
1735206	-35	152	-35
1735534	-10	134	-26
1735862	-23	153	-40
1736190	-11	139	-17
1736518	-24	123	-36
1736846	-23	137	-35
1737174	-26	160	-34
1737502	-38	135	-31
1737830	-55	138	-35
1738158	-58	140	-45
1738486	-62	146	-22
1738814	-54	158	-34
1739142	-48	146	-40
1739470	-43	166	-22
1739798	-22	164	-25
1740126	-13	137	-27
1740454	-16	165	-26
1740782	-33	162	-23
1741110	-52	165	-19
1741438	-65	155	-30
1741766	-58	153	-30
1742094	-37	148	-21
1742422	-52	145	-22
1742750	-33	182	-29
1743078	-43	139	-32
1743406	-32	140	-26
1743734	-37	178	-36
1744062	-23	142	-34
1744390	-27	150	-25
1744718	-37	167	-28
1745046	-48	155	-27
1745374	-47	148	-25
1745702	-68	157	-38
1746030	-51	155	-37
1746358	-46	164	-31
1746686	-46	144	-42
1747014	-43	160	-24
1747342	-61	148	-25
1747670	-68	155	-31
1747998	-89	150	-28
1748326	-83	156	-22
1748654	-87	179	-24
1748982	-74	155	-31
1749310	-62	154	-18
1749638	-43	159	-36
1749966	-43	109	-38
1750294	-45	135	-49
1750622	-37	159	-36
1750950	-47	115	-40
1751278	-58	147	-31
1751606	-75	162	-38
1751934	-81	162	-37
1752262	-66	162	-30
1752590	-63	160	-45
1752918	-60	157	-40
1753246	-47	148	-25
1753574	-60	164	-44
1753902	-43	149	-36
1754230	-27	149	-44
1754558	-29	155	-41
1754886	-32	170	-29
1755214	-64	154	-40
1755542	-53	152	-45
1755870	-55	143	-37
1756198	-37	145	-45
1756526	-32	133	-39
1756854	-66	118	-46
1757182	-75	151	-41
1757510	-73	122	-45
1757838	-49	133	-47
1758166	-45	133	-42
1758494	-21	127	-49
1758822	-31	148	-49
1759150	-17	138	-47
1759478	-7	138	-37
1759806	-20	148	-48
1760134	-10	165	-47
1760462	-18	124	-34
1760790	-33	131	-42
1761118	-33	136	-42
1761446	-55	142	-44
1761774	-48	138	-42
1762102	-64	150	-50
1762430	-78	150	-46
1762758	-71	145	-36
1763086	-67	141	-39
1763414	-65	150	-42
1763742	-67	159	-44
1764070	-42	145	-36
1764398	-26	139	-46
1764726	-41	161	-42
1765054	-51	156	-49
1765382	-55	154	-30
1765710	-47	147	-41
1766038	-40	146	-48
1766366	-21	170	-41
1766694	-18	154	-35
1767022	-33	143	-35
1767350	-26	165	-33
1767678	-39	158	-38
1768006	-45	129	-46
1768334	-44	162	-40
1768662	-48	152	-43
1768990	-68	118	-50
1769318	-76	165	-40
1769646	-91	153	-33
1769974	-80	118	-46
1770302	-69	124	-43
1770630	-35	147	-47
1770958	-39	102	-38
1771286	-43	132	-47
1771614	-46	161	-28
1771942	-65	129	-45
1772270	-50	122	-35
1772598	-54	140	-50
1772926	-48	112	-48
1773254	-44	137	-29
1773582	-52	163	-47
1773910	-38	139	-34
1774238	-31	143	-29
1774566	-23	151	-31
1774894	-37	160	-40
1775222	-18	140	-29
1775550	-61	155	-37
1775878	-56	151	-35
1776206	-45	123	-44
1776534	-55	146	-33
1776862	-41	160	-40
1777190	-44	121	-34
1777518	-43	139	-38
1777846	-44	161	-33
1778174	-37	154	-30
1778502	-26	140	-31
1778830	-35	155	-45
1779158	-46	143	-37
1779486	-64	138	-32
1779814	-58	145	-39
1780142	-56	145	-41
1780470	-35	122	-37
1780798	-33	121	-39
1781126	-19	136	-40
1781454	-14	143	-42
1781782	-36	123	-48
1782110	-36	136	-43
1782438	-53	131	-45
1782766	-63	129	-30
1783094	-50	140	-42
1783422	-54	147	-52
1783750	-50	154	-35
1784078	-48	149	-34
1784406	-32	144	-42
1784734	-27	139	-52
1785062	-34	140	-43
1785390	-45	146	-37
1785718	-63	150	-32
1786046	-65	160	-30
1786374	-69	153	-35
1786702	-60	166	-31
1787030	-58	172	-33
1787358	-51	176	-25
1787686	-30	178	-27
1788014	-15	206	-28
1788342	-1	191	-18
1788670	-4	180	-26
1788998	4	230	-16
1789326	48	266	-21
1789654	66	236	-21
1789982	110	215	-18
1790310	125	209	-35
1790638	91	216	-8
1790966	78	278	-26
1791294	66	253	2
1791622	63	310	-5
1791950	44	313	0
1792278	44	326	12
1792606	114	334	28
1792934	102	346	25
1793262	127	364	27
1793590	153	407	57
1793918	192	379	62
1794246	197	413	84
1794574	260	530	118
1794902	303	508	131
1795230	301	490	155
1795558	423	524	153
1795886	452	552	184
1796214	519	662	210
1796542	497	679	206
1796870	482	634	224
1797198	415	650	231
1797526	403	745	218
1797854	400	770	220
1798182	411	723	217
1798510	386	737	215
1798838	408	773	227
1799166	430	765	230
1799494	476	806	219
1799822	642	835	225
1800150	724	827	202
1800478	822	858	191
1800806	885	810	197
1801134	931	792	205
1801462	928	786	172
1801790	897	735	136
1802118	836	668	118
1802446	791	652	52
1802774	765	657	34
1803102	789	680	41
1803430	778	719	12
1803758	776	666	-35
1804086	831	589	-63
1804414	885	583	-102
1804742	952	595	-132
1805070	1075	517	-173
1805398	1099	409	-208
1805726	1108	359	-227
1806054	1123	412	-234
1806382	1094	408	-255
1806710	1063	372	-255
1807038	1114	411	-288
1807366	1062	360	-311
1807694	1061	348	-298
1808022	1072	428	-294
1808350	1069	466	-297
1808678	1128	394	-329
1809006	1138	333	-345
1809334	1067	358	-347
1809662	989	471	-325
1809990	946	495	-373
1810318	893	303	-397
1810646	807	262	-441
1810974	707	366	-461
1811302	602	445	-465
1811630	466	380	-494
1811958	360	374	-505
1812286	308	475	-539
1812614	229	433	-578
1812942	137	291	-616
1813270	-15	307	-642
1813598	-139	367	-633
1813926	-121	209	-665
1814254	-27	52	-693
1814582	231	155	-678
1814910	350	343	-702
1815238	428	252	-713
1815566	292	-146	-740
1815894	354	-193	-743
1816222	321	39	-738
1816550	225	106	-688
1816878	157	-62	-664
1817206	200	-100	-647
1817534	407	-46	-639
1817862	459	-32	-621
1818190	514	-13	-599
1818518	516	-73	-580
1818846	441	-135	-545
1819174	331	-80	-515
1819502	363	-50	-488
1819830	294	-132	-476
1820158	283	-152	-464
1820486	283	-76	-398
1820814	251	-85	-367
1821142	207	-104	-352
1821470	112	-145	-307
1821798	74	-139	-262
1822126	-19	-88	-220
1822454	-97	-83	-177
1822782	-145	-73	-168
1823110	-193	-134	-130
1823438	-239	-7	-93
1823766	-299	55	-52
1824094	-340	-6	-10
1824422	-340	71	16
1824750	-305	142	54
1825078	-297	196	95
1825406	-285	311	177
1825734	-229	327	221
1826062	-174	302	255
1826390	-100	347	301
1826718	-115	343	323
1827046	-162	335	338
1827374	-153	327	382
1827702	-171	365	422
1828030	-129	331	460
1828358	-172	209	477
1828686	-161	222	479
1829014	-225	196	510
1829342	-281	171	514
1829670	-321	64	513
1829998	-382	-45	512
1830326	-452	-33	530
1830654	-522	31	536
1830982	-585	-89	524
1831310	-624	-340	535
1831638	-660	-399	536
1831966	-657	-337	549
1832294	-672	-311	549
1832622	-702	-350	555
1832950	-662	-401	547
1833278	-660	-422	556
1833606	-640	-412	562
1833934	-583	-388	581
1834262	-553	-367	592
1834590	-414	-340	604
1834918	-368	-361	627
1835246	-313	-388	630
1835574	-292	-403	644
1835902	-264	-394	645
1836230	-290	-249	688
1836558	-333	-199	695
1836886	-460	-264	722
1837214	-429	-247	739
1837542	-384	-204	744
1837870	-328	-143	736
1838198	-351	-39	730
1838526	-422	45	713
1838854	-277	123	654
1839182	-187	-357	607
1839510	-181	-471	523
1839838	-306	-191	476
1840166	-360	93	365
1840494	-515	491	354
1840822	-481	568	312
1841150	-493	557	381
1841478	-221	620	442
1841806	66	496	484
1842134	189	581	511
1842462	596	736	563
1842790	1004	766	629
1843118	1606	488	693
1843446	2085	270	727
1843774	2353	320	762
1844102	2664	124	762
1844430	2943	-232	769
1844758	3049	-462	688
1845086	3307	-891	502
1845414	3352	-1482	229
1845742	3498	-1790	-188
1846070	3912	-2178	-496
1846398	4287	-2315	-707
1846726	4352	-1984	-761
1847054	4061	-1473	-529
1847382	3834	-1145	-114
1847710	3716	-1014	310
1848038	2692	-891	478
1848366	1308	-644	532
1848694	136	-1269	254
1849022	-1174	-1762	-291
1849350	-2020	-1389	-743
1849678	-2061	-540	-959
1850006	-1154	-499	-703
1850334	-514	-731	-303
1850662	140	-1029	-185
1850990	431	-1146	-282
1851318	672	-1097	-563
1851646	796	-508	-735
1851974	1019	200	-701
1852302	1084	121	-710
1852630	1022	-632	-785
1852958	889	-838	-922
1853286	745	-335	-922
1853614	628	96	-941
1853942	343	142	-907
1854270	126	-68	-809
1854598	124	-52	-774
1854926	238	-28	-761
1855254	385	92	-750
1855582	530	208	-664
1855910	635	206	-627
1856238	694	259	-587
1856566	661	395	-517
1856894	538	383	-456
1857222	446	403	-407
1857550	314	476	-353
1857878	197	536	-284
1858206	120	476	-242
1858534	120	453	-212
1858862	177	431	-208
1859190	201	377	-187
1859518	162	474	-149
1859846	99	457	-130
1860174	6	373	-141
1860502	-65	362	-136
1860830	-104	404	-130
1861158	-104	360	-143
1861486	-127	304	-139
1861814	-85	345	-129
1862142	-23	348	-145
1862470	52	278	-156
1862798	117	367	-166
1863126	185	330	-176
1863454	216	300	-166
1863782	226	302	-141
1864110	216	273	-161
1864438	218	271	-161
1864766	186	291	-184
1865094	155	244	-155
1865422	148	191	-147
1865750	164	194	-147
1866078	160	218	-156
1866406	133	208	-123
1866734	71	186	-117
1867062	24	203	-98
1867390	34	194	-94
1867718	3	129	-73
1868046	12	206	-48
1868374	-19	187	-41
1868702	-52	144	-46
1869030	-28	165	-36
1869358	0	147	-16
1869686	39	156	-8
1870014	52	188	10
1870342	100	202	-1
1870670	102	134	6
1870998	111	142	24
1871326	144	148	29
1871654	172	130	31
1871982	174	127	23
1872310	151	163	41
1872638	179	137	33
1872966	166	112	37
1873294	192	128	40
1873622	177	117	33
1873950	141	143	52
1874278	95	176	55
1874606	43	123	50
1874934	-16	116	54
1875262	-5	121	59
1875590	-20	145	66
1875918	-17	152	64
1876246	-41	135	62
1876574	-75	140	61
1876902	-143	179	57
1877230	-194	153	69
1877558	-208	135	60
1877886	-181	131	56
1878214	-180	153	56
1878542	-178	98	53
1878870	-172	100	54
1879198	-158	135	52
1879526	-187	114	59
1879854	-180	150	69
1880182	-197	155	73
1880510	-218	126	73
1880838	-186	162	87
1881166	-146	150	93
1881494	-112	118	97
1881822	-90	129	112
1882150	-105	157	112
1882478	-119	129	120
1882806	-120	151	120
1883134	-143	152	125
1883462	-157	150	142
1883790	-164	143	148
1884118	-159	211	152
1884446	-182	209	175
1884774	-206	177	187
1885102	-219	247	197
1885430	-212	244	226
1885758	-227	262	235
1886086	-241	250	223
1886414	-207	231	233
1886742	-180	270	260
1887070	-157	323	260
1887398	-148	299	264
1887726	-172	264	253
1888054	-162	269	246
1888382	-142	314	244
1888710	-134	309	253
1889038	-132	312	255
1889366	-134	265	253
1889694	-132	279	231
1890022	-111	291	215
1890350	-152	228	201
1890678	-154	224	181
1891006	-168	249	175
1891334	-196	222	162
1891662	-258	160	143
1891990	-271	150	136
1892318	-287	194	133
1892646	-266	191	119
1892974	-247	132	107
1893302	-226	115	102
1893630	-154	77	91
1893958	-112	106	91
1894286	-37	81	77
1894614	-18	30	74
1894942	12	76	83
1895270	27	102	98
1895598	4	86	74
1895926	34	77	77
1896254	88	80	66
1896582	102	98	62
1896910	93	104	75
1897238	90	126	73
1897566	77	95	63
1897894	50	107	55
1898222	38	128	63
1898550	2	126	59
1898878	-1	130	60
1899206	24	115	47
1899534	29	147	46
1899862	60	154	40
1900190	49	132	40
1900518	26	153	39
1900846	5	172	60
1901174	-5	188	48
1901502	7	149	42
1901830	44	109	27
1902158	69	149	36
1902486	59	145	24
1902814	30	129	34
1903142	-29	131	21
1903470	-69	191	40
1903798	-99	144	10
1904126	-126	119	5
1904454	-111	182	4
1904782	-118	175	-2
1905110	-158	141	4
1905438	-167	149	1
1905766	-144	126	-15
1906094	-135	93	-29
1906422	-158	150	-15
1906750	-178	165	-29
1907078	-208	122	-17
1907406	-174	140	-42
1907734	-146	156	-25
1908062	-134	151	-37
1908390	-114	145	-35
1908718	-99	185	-27
1909046	-85	173	-29
1909374	-54	162	-36
1909702	-30	178	-28
1910030	-23	137	-16
1910358	-24	164	-27
1910686	-72	145	-2
1911014	-109	162	-4
1911342	-94	151	-25
1911670	-111	93	-33
1911998	-147	97	-43
1912326	-180	169	-22
1912654	-247	147	-32
1912982	-264	115	-42
1913310	-252	121	-42
1913638	-223	113	-58
1913966	-213	106	-61
1914294	-189	115	-55
1914622	-166	111	-53
1914950	-148	68	-65
1915278	-91	64	-63
1915606	-83	63	-64
1915934	-112	88	-66
1916262	-144	138	-67
1916590	-161	113	-48
1916918	-133	80	-61
1917246	-74	139	-55
1917574	-34	133	-56
1917902	-35	115	-34
1918230	-29	151	-40
1918558	-89	131	-15
1918886	-99	142	-5
1919214	-89	156	-10
1919542	-109	123	-11
1919870	-100	113	-5
1920198	-140	144	-7
1920526	-129	149	-12
1920854	-156	143	-5
1921182	-134	137	-2
1921510	-104	154	-5
1921838	-83	161	-14
1922166	-70	129	-5
1922494	-68	159	-1
1922822	-55	137	-5
1923150	-32	122	-12
1923478	-9	151	-16
1923806	9	126	-14
1924134	-4	106	-17
1924462	-12	135	-21
1924790	1	130	-25
1925118	-28	100	-31
1925446	-16	154	-35
1925774	-32	144	-36
1926102	-36	142	-33
1926430	-66	161	-39
1926758	-74	144	-17
1927086	-64	173	-20
1927414	-54	168	-16
1927742	-55	146	-12
1928070	-37	173	-20
1928398	-59	177	-13
1928726	-78	146	7
1929054	-42	142	2
1929382	-62	136	-13
1929710	-23	132	-17
1930038	-16	111	-5
1930366	-14	104	-23
1930694	-3	107	-30
1931022	-17	98	-31
1931350	-29	131	-38
1931678	-15	103	-32
1932006	-5	96	-39
1932334	21	117	-37
1932662	54	138	-37
1932990	45	94	-45
1933318	30	90	-42
1933646	-5	132	-40
1933974	-40	135	-30
1934302	-43	138	-38
1934630	-47	185	-16
1934958	-31	173	-20
1935286	-37	155	-21
1935614	-48	175	-15
1935942	-61	182	-2
1936270	-59	174	-9
1936598	-60	136	-11
1936926	-67	130	-4
1937254	-56	160	3
1937582	-69	152	-16
1937910	-88	167	-17
1938238	-92	146	-8
1938566	-48	146	-22
1938894	-55	172	-23
1939222	-44	166	-38
1939550	-45	128	-18
1939878	-65	188	-21
1940206	-76	205	-26
1940534	-75	149	-22
1940862	-50	204	-47
1941190	-46	227	-21
1941518	-20	207	-11
1941846	-61	229	3
1942174	-44	244	13
1942502	-42	268	7
1942830	-49	285	30
1943158	12	293	44
1943486	40	319	65
1943814	-33	295	79
1944142	-30	260	76
1944470	-16	261	86
1944798	-32	333	99
1945126	-37	366	101
1945454	-79	304	103
1945782	-58	260	97
1946110	-24	295	102
1946438	-28	333	101
1946766	-56	296	108
1947094	-45	272	111
1947422	-10	285	87
1947750	10	266	74
1948078	52	277	88
1948406	43	291	76
1948734	55	320	79
1949062	75	280	72
1949390	118	246	67
1949718	119	263	66
1950046	122	284	60
1950374	72	247	64
1950702	45	255	51
1951030	20	264	57
1951358	20	251	56
1951686	31	229	44
1952014	27	236	43
1952342	15	249	37
1952670	-33	229	16
1952998	-68	252	21
1953326	-70	216	22
1953654	-50	205	22
1953982	-34	212	13
1954310	0	213	3
1954638	0	189	-7
1954966	1	192	-4
1955294	-11	205	-9
1955622	-13	192	-1
1955950	-24	195	3
1956278	-18	206	-4
1956606	-15	207	7
1956934	-32	206	-16
1957262	-32	213	-9
1957590	-14	223	-19
1957918	-26	172	-4
1958246	-29	149	-8
1958574	-49	184	-6
1958902	-63	202	-20
1959230	-75	169	-20
1959558	-104	179	-15
1959886	-106	174	-30
1960214	-109	165	-28
1960542	-132	174	-29
1960870	-140	160	-28
1961198	-143	131	-28
1961526	-145	160	-26
1961854	-130	182	-23
1962182	-130	159	-25
1962510	-89	145	-37
1962838	-80	155	-31
1963166	-67	163	-29
1963494	-60	153	-27
1963822	-51	133	-36
1964150	-61	110	-34
1964478	-63	143	-30
1964806	-62	151	-31
1965134	-75	147	-19
1965462	-83	146	-29
1965790	-80	155	-19
1966118	-75	152	-26
1966446	-89	143	-13
1966774	-98	126	-8
1967102	-124	167	-22
1967430	-116	175	-9
1967758	-97	138	-3
1968086	-100	140	-9
1968414	-106	133	-20
1968742	-141	136	-3
1969070	-138	167	-3
1969398	-124	138	-3
1969726	-111	140	-3
1970054	-60	149	0
1970382	-32	135	-7
1970710	-28	119	-14
1971038	-22	130	-19
1971366	-41	134	-11
1971694	-47	140	-11
1972022	-51	117	-10
1972350	-43	126	-12
1972678	-35	109	-20
1973006	-55	124	-18
1973334	-55	139	-9
1973662	-38	133	-12
1973990	-34	111	-21
1974318	-40	133	-18
1974646	-59	115	-17
1974974	-93	121	-19
1975302	-93	139	-12
1975630	-113	127	-22
1975958	-100	130	-10
1976286	-103	147	-9
1976614	-81	150	-14
1976942	-86	157	-15
1977270	-112	177	-8
1977598	-107	184	-10
1977926	-126	178	-11
1978254	-118	175	-20
1978582	-150	165	-15
1978910	-178	217	-11
1979238	-229	275	-18
1979566	-246	237	-20
1979894	-251	189	-28
1980222	-236	283	-18
1980550	-233	340	-11
1980878	-337	219	-36
1981206	-336	232	-26
1981534	-300	269	-16
1981862	-256	194	-49
1982190	-159	221	-35
1982518	-195	158	-58
1982846	-245	174	-42
1983174	-266	126	-67
1983502	-205	141	-61
1983830	-176	104	-70
1984158	-164	110	-81
1984486	-137	132	-96
1984814	-114	90	-88
1985142	-64	31	-82
1985470	-14	55	-78
1985798	0	55	-80
1986126	-30	13	-88
1986454	-25	-10	-89
1986782	-29	-10	-92
1987110	-10	1	-79
1987438	-9	-24	-95
1987766	-11	-5	-86
1988094	-56	20	-86
1988422	-76	62	-92
1988750	-91	40	-82
1989078	-136	53	-82
1989406	-145	90	-86
1989734	-142	59	-77
1990062	-154	94	-70
1990390	-175	72	-93
1990718	-228	60	-103
1991046	-215	43	-93
1991374	-221	71	-93
1991702	-237	81	-93
1992030	-209	70	-89
1992358	-195	60	-82
1992686	-154	64	-87
1993014	-133	66	-77
1993342	-139	67	-68
1993670	-118	96	-64
1993998	-89	66	-61
1994326	-135	79	-55
1994654	-127	100	-35
1994982	-123	74	-29
1995310	-89	120	-18
1995638	-45	142	-15
1995966	-21	102	-4
1996294	10	88	-7
1996622	45	72	6
1996950	57	71	3
1997278	80	45	6
1997606	62	15	-3
1997934	50	35	-4
1998262	23	76	2
1998590	1	76	-2
1998918	-42	68	-1
1999246	-92	105	-13
1999574	-92	141	-14
1999902	-108	100	-10
2000230	-123	111	-29
2000558	-130	170	-15
2000886	-118	118	-22
2001214	-109	90	-36
2001542	-88	156	-45
2001870	-65	107	-47
2002198	-54	96	-35
2002526	-29	151	-29
2002854	-5	155	-46
2003182	-12	117	-37
2003510	3	152	-36
2003838	12	117	-41
2004166	20	105	-33
2004494	-12	157	-23
2004822	-36	168	-24
2005150	-43	131	-27
2005478	-53	121	-17
2005806	-20	175	-16
2006134	-41	152	-20
2006462	-51	121	-29
2006790	-18	165	-32
2007118	-30	140	-33
2007446	-35	97	-43
2007774	-48	121	-53
2008102	-39	102	-48
2008430	-12	88	-46
2008758	6	112	-56
2009086	23	134	-58
2009414	9	97	-69
2009742	12	114	-77
2010070	51	124	-70
2010398	50	111	-61
2010726	29	134	-81
2011054	18	111	-86
2011382	3	93	-82
2011710	27	118	-76
2012038	5	122	-78
2012366	-7	118	-80
2012694	-9	106	-75
2013022	-7	104	-76
2013350	-3	108	-95
2013678	-1	83	-78
2014006	-4	84	-90
2014334	2	97	-88
2014662	29	68	-95
2014990	21	48	-97
2015318	25	35	-90
2015646	47	33	-102
2015974	63	38	-104
2016302	50	24	-99
2016630	47	34	-114
2016958	36	23	-114
2017286	40	32	-107
2017614	45	50	-112
2017942	43	27	-111
2018270	45	48	-103
2018598	45	45	-108
2018926	18	49	-101
2019254	25	58	-101
2019582	15	61	-93
2019910	1	61	-104
2020238	-3	86	-103
2020566	-3	67	-95
2020894	0	57	-116
2021222	-14	88	-96
2021550	-8	71	-105
2021878	-11	76	-90
2022206	14	91	-105
2022534	23	81	-95
2022862	2	89	-93
2023190	30	115	-93
2023518	13	90	-101
2023846	26	98	-104
2024174	30	107	-97
2024502	39	94	-97
2024830	33	110	-100
2025158	17	102	-101
2025486	-5	97	-93
2025814	-10	97	-87
2026142	-29	112	-91
2026470	-27	134	-91
2026798	-7	101	-80
2027126	11	106	-98
2027454	18	123	-96
2027782	23	98	-95
2028110	-7	102	-90
2028438	-3	129	-93
2028766	-17	139	-84
2029094	-35	131	-83
2029422	-28	145	-95
2029750	-39	136	-77
2030078	-18	110	-73
2030406	-24	143	-75
2030734	-20	121	-73
2031062	-6	152	-70
2031390	6	140	-68
2031718	21	115	-64
2032046	10	112	-81
2032374	1	121	-66
2032702	-26	128	-60
2033030	-33	126	-65
2033358	-28	151	-63
2033686	-33	141	-53
2034014	-20	140	-65
2034342	-36	140	-49
2034670	-40	145	-51
2034998	-54	155	-42
2035326	-50	142	-48
2035654	-74	138	-53
2035982	-78	145	-34
2036310	-79	138	-37
2036638	-84	149	-40
2036966	-90	147	-32
2037294	-88	145	-49
2037622	-102	145	-28
2037950	-110	156	-27
2038278	-100	142	-43
2038606	-104	139	-32
2038934	-88	160	-37
2039262	-52	151	-26
2039590	-2	120	-49
2039918	13	75	-67
2040246	-18	122	-32
2040574	17	211	-30
2040902	-10	140	-44
2041230	-13	73	-59
2041558	11	147	-57
2041886	7	146	-48
2042214	-15	142	-39
2042542	-4	136	-52
2042870	-2	137	-45
2043198	-30	139	-56
2043526	-8	140	-54
2043854	9	137	-37
2044182	-11	146	-52
2044510	-10	150	-53
2044838	-37	169	-44
2045166	-79	176	-33
2045494	-69	165	-32
2045822	-67	147	-22
2046150	-61	173	-45
2046478	-65	190	-32
2046806	-70	154	-30
2047134	-52	153	-43
2047462	-48	169	-38
2047790	-32	183	-34
2048118	2	149	-32
2048446	-21	173	-31
2048774	-30	185	-27
2049102	-58	173	-34
2049430	-78	155	-29
2049758	-83	150	-31
2050086	-54	172	-36
2050414	-42	186	-33
2050742	-48	174	-43
2051070	-70	159	-35
2051398	-70	168	-28
2051726	-67	163	-38
2052054	-94	160	-36
2052382	-77	186	-32
2052710	-106	148	-57
2053038	-126	156	-41
2053366	-114	150	-42
2053694	-90	120	-45
2054022	-81	125	-38
2054350	-62	135	-35
2054678	-38	119	-52
2055006	-14	112	-48
2055334	-12	126	-42
2055662	-23	110	-29
2055990	-2	98	-54
2056318	-9	107	-50
2056646	-7	124	-46
2056974	-2	87	-55
2057302	-8	96	-37
2057630	-19	102	-55
2057958	12	92	-62
2058286	22	83	-68
2058614	11	65	-94
2058942	0	87	-69
2059270	-8	94	-74
2059598	-21	91	-82
2059926	-13	118	-79
2060254	-13	108	-99
2060582	-12	82	-89
2060910	2	80	-86
2061238	-22	81	-84
2061566	-47	102	-81
2061894	-37	107	-61
2062222	-12	128	-70
2062550	9	123	-65
2062878	11	114	-62
2063206	27	129	-55
2063534	20	144	-55
2063862	8	142	-44
2064190	32	162	-52
2064518	53	152	-51
2064846	55	145	-42
2065174	77	138	-39
2065502	45	105	-32
2065830	48	117	-46
2066158	13	121	-58
2066486	4	129	-45
2066814	-25	141	-40
2067142	-52	125	-57
2067470	-33	90	-65
2067798	-37	116	-65
2068126	-42	144	-53
2068454	-26	117	-57
2068782	-28	113	-68
2069110	-12	127	-71
2069438	2	135	-57
2069766	27	126	-66
2070094	16	158	-63
2070422	-4	120	-55
2070750	-9	112	-60
2071078	2	117	-62
2071406	1	115	-53
2071734	-10	124	-44
2072062	-18	122	-53
2072390	-20	118	-47
2072718	-24	138	-45
2073046	-39	142	-35
2073374	-23	148	-34
2073702	-37	143	-37
2074030	-39	127	-45
2074358	-50	136	-36
2074686	-56	142	-40
2075014	-76	142	-37
2075342	-66	140	-36
2075670	-60	114	-39
2075998	-39	116	-42
2076326	-30	142	-43
2076654	-16	152	-42
2076982	-10	116	-42
2077310	-20	97	-52
2077638	-18	127	-39
2077966	-46	151	-28
2078294	-54	128	-46
2078622	-69	154	-42
2078950	-84	157	-44
2079278	-88	121	-53
2079606	-73	141	-35
2079934	-65	149	-44
2080262	-74	116	-38
2080590	-41	140	-33
2080918	-28	155	-25
2081246	-45	151	-27
2081574	-32	151	-23
2081902	-36	157	-11
2082230	-23	125	-17
2082558	-33	147	-16
2082886	-42	150	-24
2083214	-50	151	-22
2083542	-44	150	-22
2083870	-29	128	-30
2084198	-44	121	-20
2084526	-37	138	-33
2084854	-54	145	-18
2085182	-59	154	-27
2085510	-31	159	-19
2085838	-29	149	-23
2086166	-33	132	-25
2086494	-33	155	-17
2086822	-37	139	-4
2087150	-23	126	-16
2087478	-41	168	-14
2087806	-47	170	-17
2088134	-52	133	-16
2088462	-39	153	-23
2088790	-14	151	-15
2089118	-18	155	-9
2089446	-21	177	-20
2089774	-32	144	-31
2090102	-55	186	-20
2090430	-73	172	-11
2090758	-66	148	-12
2091086	-70	179	-7
2091414	-45	159	-15
2091742	-38	148	-18
2092070	-8	179	-16
2092398	-7	154	-9
2092726	-10	160	-4
2093054	-2	158	-18
2093382	-20	156	-19
2093710	-22	136	-31
2094038	-17	142	-17
2094366	-17	175	-22
2094694	-30	154	-19
2095022	-17	168	-22
2095350	-50	156	-28
2095678	-37	148	-27
2096006	-37	181	-30
2096334	-45	160	-29
2096662	-60	157	-20
2096990	-45	155	-28
2097318	-37	135	-30
2097646	-42	114	-35
2097974	-25	143	-30
2098302	-36	134	-34
2098630	-51	122	-41
2098958	-42	112	-34
2099286	-41	131	-44
2099614	-24	150	-24
2099942	-36	147	-29
2100270	-22	152	-21
2100598	-29	158	-20
2100926	-42	174	-22
2101254	-38	182	-22
2101582	-35	168	-9
2101910	-29	155	-15
2102238	-40	140	-19
2102566	-41	192	-10
2102894	-67	182	-2
2103222	-52	153	-17
2103550	-64	172	-20
2103878	-63	175	-25
2104206	-64	157	-16
2104534	-44	158	-9
2104862	-44	163	-17
2105190	-43	152	-9
2105518	-46	160	-14
2105846	-50	150	-14
2106174	-33	148	-14
2106502	-28	146	-1
2106830	-8	143	-22
2107158	-22	149	-18
2107486	-22	146	-14
2107814	-19	160	-9
2108142	-35	141	-19
2108470	-46	140	-24
2108798	-48	141	-24
2109126	-39	136	-21
2109454	-35	163	-18
2109782	-42	144	-23
2110110	-45	137	-13
2110438	-46	146	-17
2110766	-28	184	-16
2111094	-28	157	-13
2111422	-35	146	-1
2111750	-28	179	-4
2112078	-45	168	-3
2112406	-42	167	-4
2112734	-44	150	-4
2113062	-38	162	5
2113390	-22	161	6
2113718	-31	172	1
2114046	-31	150	-8
2114374	-24	156	-7
2114702	-29	172	-3
2115030	-53	148	-20
2115358	-25	173	-9
2115686	-33	175	0
2116014	-32	185	-7
2116342	-22	152	-12
2116670	-6	154	-19
2116998	-9	172	-11
2117326	-44	154	-13
2117654	-34	146	-18
2117982	-51	161	-10
2118310	-59	163	-38
2118638	-66	132	-14
2118966	-68	151	-19
2119294	-50	174	-25
2119622	-48	135	-25
2119950	-67	131	-34
2120278	-70	168	-17
2120606	-61	158	-22
2120934	-42	130	-20
2121262	-13	149	-25
2121590	-36	179	-20
2121918	-23	147	-16
2122246	-32	164	-6
2122574	-27	182	-13
2122902	-29	155	-16
2123230	-26	158	0
2123558	-8	195	-8
2123886	-30	165	-4
2124214	-25	151	2
2124542	-19	162	-5
2124870	-33	180	-8
2125198	-16	164	-9
2125526	-42	152	-13
2125854	-61	181	-8
2126182	-62	180	-16
2126510	-69	172	-11
2126838	-78	183	-3
2127166	-67	163	-14
2127494	-65	169	-19
2127822	-47	163	-10
2128150	-41	165	-11
2128478	-21	160	-9
2128806	-30	153	-10
2129134	-26	151	-23
2129462	-21	133	-26
2129790	-27	130	-34
2130118	-34	154	-29
2130446	-35	145	-25
2130774	-43	131	-31
2131102	-53	143	-30
2131430	-44	166	-25
2131758	-42	155	-18
2132086	-37	158	-19
2132414	-48	170	-22
2132742	-44	176	-28
2133070	-34	134	-35
2133398	-21	149	-24
2133726	-56	196	-21
2134054	-49	145	-22
2134382	-68	145	-24
2134710	-35	154	-23
2135038	-50	160	-26
2135366	-52	137	-26
2135694	-56	154	-26
2136022	-48	165	-21
2136350	-45	148	-24
2136678	-37	149	-32
2137006	-32	157	-31
2137334	-36	181	-31
2137662	-51	162	-24
2137990	-62	160	-32
2138318	-49	169	-25
2138646	-40	181	-19
2138974	-45	152	-26
2139302	-42	142	-30
2139630	-33	167	-22
2139958	-45	173	-28
2140286	-62	157	-22
2140614	-71	137	-24
2140942	-55	144	-22
2141270	-71	181	-27
2141598	-64	170	-23
2141926	-88	129	-23
2142254	-55	169	-12
2142582	-76	164	-19
2142910	-77	169	-9
2143238	-83	188	-16
2143566	-103	204	-13
2143894	-102	205	-21
2144222	-111	195	-9
2144550	-138	242	-5
2144878	-160	237	2
2145206	-107	225	-3
2145534	-98	242	-6
2145862	-106	216	7
2146190	-104	205	3
2146518	-127	247	5
2146846	-127	285	-9
2147174	-141	242	1
2147502	-141	252	16
2147830	-146	246	0
2148158	-127	258	10
2148486	-138	240	-8
2148814	-134	253	9
2149142	-110	257	15
2149470	-114	263	-2
2149798	-126	266	16
2150126	-113	231	12
2150454	-102	250	17
2150782	-100	278	15
2151110	-125	260	20
2151438	-101	226	11
2151766	-82	264	24
2152094	-95	294	35
2152422	-98	243	28
2152750	-97	254	26
2153078	-78	246	30
2153406	-76	263	36
2153734	-56	277	36
2154062	-60	228	35
2154390	-48	209	39
2154718	-29	300	39
2155046	-63	223	16
2155374	-72	172	40
2155702	-27	283	48
2156030	-46	220	32
2156358	-41	197	30
2156686	-26	242	32
2157014	-30	218	23
2157342	-26	170	18
2157670	-30	200	30
2157998	-51	207	7
2158326	-46	195	13
2158654	-51	205	17
2158982	-43	222	-3
2159310	-35	182	1
2159638	-17	170	3
2159966	-36	209	-5
2160294	-38	182	-5
2160622	-47	166	-1
2160950	-30	171	0
2161278	-35	170	-15
2161606	-20	167	-9
2161934	-24	145	-4
2162262	-38	141	-12
2162590	-25	160	3
2162918	-27	138	-8
2163246	-40	130	-10
2163574	-47	156	-6
2163902	-28	177	-9
2164230	-47	144	-10
2164558	-40	179	-7
2164886	-54	199	-3
2165214	-64	182	-9
2165542	-32	194	-3
2165870	-55	217	-3
2166198	-20	184	6
2166526	-25	186	5
2166854	-13	224	10
2167182	-3	186	7
2167510	-18	144	16
2167838	-41	205	5
2168166	-49	215	5
2168494	-57	200	11
2168822	-77	186	26
2169150	-51	215	2
2169478	-38	215	13
2169806	-38	184	16
2170134	-70	198	29
2170462	-53	207	7
2170790	-34	193	13
2171118	-63	169	13
2171446	-57	181	25
2171774	-49	194	14
2172102	-65	190	13
2172430	-58	218	11
2172758	-85	177	11
2173086	-75	182	7
2173414	-64	208	17
2173742	-35	182	4
2174070	-25	162	2
2174398	-39	204	3
2174726	-50	195	17
2175054	-72	173	21
2175382	-84	202	14
2175710	-88	199	3
2176038	-86	190	13
2176366	-81	205	15
2176694	-49	164	7
2177022	-64	200	20
2177350	-49	220	35
2177678	-71	200	23
2178006	-96	209	37
2178334	-91	248	23
2178662	-74	170	35
2178990	-61	206	38
2179318	-32	222	40
2179646	-26	144	22
2179974	-33	178	35
2180302	-28	223	50
2180630	-49	193	30
2180958	-62	151	31
2181286	-41	213	52
2181614	-71	236	46
2181942	-33	203	35
2182270	-35	144	28
2182598	-34	144	28
2182926	-38	187	31
2183254	-37	172	27
2183582	-34	145	21
2183910	-51	134	14
2184238	-60	166	22
2184566	-60	168	24
2184894	-57	144	13
2185222	-47	183	20
2185550	-32	202	16
2185878	-42	150	28
2186206	-65	176	19
2186534	-82	187	33
2186862	-68	157	22
2187190	-47	164	25
2187518	-39	176	16
2187846	-32	162	26
2188174	-46	157	19
2188502	-34	170	28
2188830	-22	174	18
2189158	-17	119	13
2189486	-7	104	22
2189814	10	167	12
2190142	-8	146	15
2190470	-26	74	4
2190798	-15	121	5
2191126	-37	160	7
2191454	-35	113	-4
2191782	-83	104	-10
2192110	-63	181	0
2192438	-70	154	-8
2192766	-97	122	-5
2193094	-58	128	-29
2193422	-49	119	-21
2193750	-37	143	-26
2194078	-47	113	-38
2194406	-37	106	-38
2194734	-13	115	-36
2195062	-29	108	-31
2195390	-23	100	-53
2195718	-27	71	-48
2196046	-17	89	-62
2196374	-26	76	-43
2196702	-23	74	-57
2197030	-26	89	-55
2197358	-26	72	-65
2197686	-36	45	-60
2198014	-36	73	-46
2198342	-43	75	-55
2198670	-62	62	-62
2198998	-13	61	-50
2199326	-15	86	-62
2199654	-27	81	-66
2199982	-46	72	-62
2200310	-53	51	-75
2200638	-25	72	-72
2200966	-26	52	-70
2201294	-17	46	-90
2201622	-20	46	-81
2201950	-25	81	-81
2202278	-45	75	-60
2202606	-42	60	-76
2202934	-3	61	-82
2203262	-9	43	-71
2203590	-7	57	-66
2203918	-8	86	-75
2204246	-19	59	-78
2204574	6	37	-83
2204902	-3	51	-70
2205230	-12	45	-87
2205558	3	60	-75
2205886	12	40	-71
2206214	9	35	-82
2206542	13	52	-94
2206870	7	37	-88
2207198	-5	40	-72
2207526	0	27	-80
2207854	-18	31	-89
2208182	-12	48	-93
2208510	-7	45	-85
2208838	-5	47	-102
2209166	-19	54	-89
2209494	-14	92	-95
2209822	-14	66	-82
2210150	-36	11	-98
2210478	-36	95	-90
2210806	-52	132	-85
2211134	-57	49	-101
2211462	-72	48	-100
2211790	-64	110	-92
2212118	-60	111	-90
2212446	-70	95	-97
2212774	-45	72	-91
2213102	-38	83	-91
2213430	-52	102	-93
2213758	-68	132	-79
2214086	-73	101	-80
2214414	-86	103	-85
2214742	-88	115	-88
2215070	-96	127	-79
2215398	-91	116	-76
2215726	-83	121	-66
2216054	-73	142	-66
2216382	-29	139	-59
2216710	-35	140	-59
2217038	-57	126	-60
2217366	-88	142	-54
2217694	-79	146	-55
2218022	-49	138	-36
2218350	-33	131	-40
2218678	-16	146	-43
2219006	0	153	-39
2219334	0	139	-40
2219662	-19	151	-35
2219990	-25	165	-41
2220318	-50	157	-39
2220646	-78	148	-44
2220974	-83	174	-55
2221302	-68	151	-38
2221630	-80	136	-41
2221958	-82	154	-40
2222286	-55	159	-43
2222614	-44	136	-40
2222942	-42	140	-43
2223270	-50	164	-45
2223598	-36	150	-35
2223926	-48	110	-41
2224254	-39	136	-37
2224582	-34	129	-45
2224910	-28	140	-49
2225238	-19	139	-53
2225566	-38	138	-38
2225894	-50	133	-58
2226222	-59	126	-46
2226550	-56	139	-48
2226878	-68	147	-55
2227206	-69	114	-59
2227534	-71	133	-57
2227862	-82	153	-44
2228190	-102	135	-42
2228518	-107	138	-42
2228846	-111	130	-45
2229174	-113	111	-54
2229502	-94	114	-50
2229830	-119	124	-50
2230158	-110	114	-52
2230486	-126	121	-48
2230814	-105	123	-48
2231142	-79	124	-58
2231470	-64	113	-53
2231798	-81	97	-56
2232126	-73	128	-41
2232454	-69	112	-51
2232782	-94	110	-44
2233110	-99	119	-45
2233438	-84	120	-48
2233766	-69	126	-32
2234094	-69	106	-46
2234422	-61	82	-41
2234750	-57	120	-41
2235078	-60	120	-36
2235406	-64	117	-46
2235734	-54	113	-51
2236062	-43	105	-44
2236390	-44	138	-42
2236718	-50	137	-53
2237046	-37	122	-34
2237374	-54	131	-30
2237702	-91	159	-28
2238030	-100	136	-30
2238358	-83	113	-23
2238686	-48	161	-29
2239014	-33	141	-31
2239342	-21	112	-39
2239670	1	125	-41
2239998	0	133	-35
2240326	-19	150	-38
2240654	-9	121	-28
2240982	-35	154	-28
2241310	-50	187	-23
2241638	-47	142	-27
2241966	-30	151	-27
2242294	-16	191	-23
2242622	-28	180	-20
2242950	-18	145	-32
2243278	-2	149	-26
2243606	28	156	-29
2243934	-2	145	-30
2244262	-22	144	-32
2244590	-56	145	-41
2244918	-41	163	-38
2245246	-47	168	-35
2245574	-44	153	-31
2245902	-56	184	-34
2246230	-34	155	-40
2246558	-44	171	-35
2246886	-40	179	-51
2247214	-59	154	-28
2247542	-41	145	-37
2247870	-23	155	-32
2248198	-45	167	-39
2248526	-35	172	-29
2248854	-30	158	-28
2249182	-31	162	-38
2249510	-37	174	-29
2249838	-38	159	-29
2250166	-47	143	-39
2250494	-56	167	-27
2250822	-62	171	-33
2251150	-73	161	-41
2251478	-96	166	-30
2251806	-75	151	-40
2252134	-93	132	-42
2252462	-85	165	-42
2252790	-79	158	-33
2253118	-63	141	-44
2253446	-60	168	-35
2253774	-38	129	-47
2254102	-16	114	-45
2254430	-32	136	-45
2254758	-31	141	-40
2255086	-23	124	-37
2255414	-27	120	-32
2255742	-23	140	-39
2256070	-21	127	-53
2256398	-29	127	-27
2256726	-1	167	-40
2257054	-20	153	-43
2257382	-38	152	-42
2257710	-47	149	-41
2258038	-82	160	-34
2258366	-82	164	-35
2258694	-67	165	-38
2259022	-54	146	-38
2259350	-21	135	-47
2259678	-38	124	-38
2260006	-41	151	-40
2260334	-48	120	-40
2260662	-45	135	-41
2260990	-21	132	-42
2261318	-26	109	-39
2261646	-20	125	-53
2261974	-15	125	-45
2262302	-12	119	-45
2262630	-34	132	-50
2262958	-33	126	-52
2263286	-21	108	-58
2263614	-37	105	-46
2263942	-15	101	-48
2264270	-14	103	-57
2264598	-23	96	-54
2264926	-6	104	-67
2265254	-24	99	-61
2265582	-17	100	-70
2265910	-39	130	-58
2266238	-42	99	-62
2266566	-32	87	-55
2266894	-39	115	-62
2267222	-40	109	-50
2267550	-40	100	-64
2267878	-28	103	-59
2268206	-24	116	-59
2268534	-13	87	-64
2268862	-30	99	-69
2269190	-36	111	-55
2269518	-46	90	-60
2269846	-34	90	-68
2270174	-29	109	-66
2270502	-24	71	-53
2270830	-36	85	-53
2271158	-17	117	-64
2271486	-36	103	-65
2271814	-60	76	-72
2272142	-66	113	-61
2272470	-79	141	-63
2272798	-61	111	-70
2273126	-72	113	-60
2273454	-54	119	-60
2273782	-73	124	-54
2274110	-44	133	-49
2274438	-39	133	-51
2274766	-56	130	-48
2275094	-61	109	-50
2275422	-52	100	-46
2275750	-50	134	-31
2276078	-49	126	-39
2276406	-44	110	-33
2276734	-37	117	-34
2277062	-13	99	-37
2277390	-26	113	-39
2277718	-15	108	-26
2278046	-8	131	-38
2278374	3	117	-23
2278702	5	109	-42
2279030	5	114	-41
2279358	-1	99	-40
2279686	-2	119	-48
2280014	-3	120	-38
2280342	-9	113	-27
2280670	-6	122	-44
2280998	-13	113	-51
2281326	-16	89	-51
2281654	-20	93	-50
2281982	-4	112	-56
2282310	-13	93	-60
2282638	-35	86	-65
2282966	-38	115	-49
2283294	-56	121	-50
2283622	-54	112	-43
2283950	-43	107	-53
2284278	-30	114	-60
2284606	-26	96	-51
2284934	-53	113	-46
2285262	-48	113	-40
2285590	-67	97	-34
2285918	-65	103	-41
2286246	-56	123	-41
2286574	-63	81	-32
2286902	-58	103	-37
2287230	-60	115	-35
2287558	-55	100	-44
2287886	-73	123	-38
2288214	-80	127	-38
2288542	-83	133	-47
2288870	-86	119	-32
2289198	-93	115	-34
2289526	-75	133	-45
2289854	-94	124	-35
2290182	-75	115	-28
2290510	-79	109	-34
2290838	-87	122	-33
2291166	-88	115	-33
2291494	-98	115	-37
2291822	-89	142	-34
2292150	-95	102	-24
2292478	-96	139	-35
2292806	-100	139	-37
2293134	-84	138	-26
2293462	-65	130	-24
2293790	-71	137	-24
2294118	-77	149	-26
2294446	-75	139	-22
2294774	-73	133	-21
2295102	-81	128	-34
2295430	-73	123	-29
2295758	-59	143	-17
2296086	-62	138	-21
2296414	-72	126	-25
2296742	-57	157	-25
2297070	-60	144	-25
2297398	-72	123	-21
2297726	-49	162	-16
2298054	-60	153	-26
2298382	-64	140	-31
2298710	-60	138	-26
2299038	-62	148	-22
2299366	-60	157	-29
2299694	-51	140	-26
2300022	-62	134	-22
2300350	-55	140	-27
2300678	-61	141	-29
2301006	-75	119	-19
2301334	-56	133	-21
2301662	-75	152	-21
2301990	-55	134	-27
2302318	-58	137	-31
2302646	-69	141	-15
2302974	-46	167	-26
2303302	-63	160	-33
2303630	-47	146	-14
2303958	-30	148	-19
2304286	-35	149	-17
2304614	-33	162	-13
2304942	-32	136	-14
2305270	-23	132	-10
2305598	-30	146	-25
2305926	-32	121	-14
2306254	-40	150	-10
2306582	-52	165	-20
2306910	-35	139	-19
2307238	-26	152	-19
2307566	-19	172	-29
2307894	-12	149	-10
2308222	-17	136	-20
2308550	-19	144	-17
2308878	-19	164	-22
2309206	-16	143	-29
2309534	-28	150	-20
2309862	-19	146	-19
2310190	-9	129	-16
2310518	-9	152	-28
2310846	-23	157	-36
2311174	-11	148	-13
2311502	-7	160	-28
2311830	-17	160	-28
2312158	0	145	-25
2312486	0	160	-28
2312814	6	167	-36
2313142	20	144	-34
2313470	9	139	-40
2313798	8	160	-36
2314126	16	132	-48
2314454	20	132	-34
2314782	11	142	-45
2315110	40	104	-51
2315438	51	114	-48
2315766	63	114	-49
2316094	84	122	-46
2316422	100	108	-52
2316750	124	92	-58
2317078	116	124	-42
2317406	109	104	-38
2317734	130	103	-51
2318062	100	117	-31
2318390	82	135	-44
2318718	75	135	-40
2319046	43	153	-42
2319374	29	134	-41
2319702	-16	139	-41
2320030	-53	165	-46
2320358	-63	121	-52
2320686	-90	175	-49
2321014	-111	201	-47
2321342	-152	202	-52
2321670	-167	192	-51
2321998	-171	177	-68
2322326	-150	169	-78
2322654	-177	198	-78
2322982	-165	201	-87
2323310	-208	211	-88
2323638	-204	223	-83
2323966	-224	222	-90
2324294	-225	193	-86
2324622	-222	191	-93
2324950	-214	204	-84
2325278	-216	204	-91
2325606	-239	217	-93
2325934	-231	178	-87
2326262	-246	172	-91
2326590	-257	186	-96
2326918	-247	178	-87
2327246	-262	137	-83
2327574	-239	140	-88
2327902	-230	162	-98
2328230	-247	140	-73
2328558	-247	155	-82
2328886	-244	157	-85
2329214	-251	119	-87
2329542	-238	127	-88
2329870	-215	159	-81
2330198	-194	110	-79
2330526	-201	81	-81
2330854	-180	118	-75
2331182	-169	145	-72
2331510	-164	131	-71
2331838	-106	118	-70
2332166	-88	101	-57
2332494	-63	92	-58
2332822	-61	112	-46
2333150	-52	86	-44
2333478	-36	70	-41
2333806	-67	113	-37
2334134	-55	110	-30
2334462	-52	79	-31
2334790	-68	104	-19
2335118	-43	133	-31
2335446	-62	107	-26
2335774	-59	116	-42
2336102	-54	113	-37
2336430	-47	102	-41
2336758	-62	108	-42
2337086	-41	103	-58
2337414	-48	109	-52
2337742	-41	101	-60
2338070	-32	105	-56
2338398	-22	125	-58
2338726	32	119	-59
2339054	52	96	-62
2339382	58	109	-52
2339710	64	131	-50
2340038	70	111	-53
2340366	56	114	-52
2340694	66	126	-49
2341022	48	123	-46
2341350	54	100	-39
2341678	59	133	-32
2342006	51	149	-21
2342334	24	144	-28
2342662	27	155	-22
2342990	26	151	-18
2343318	20	132	-11
2343646	-3	163	-8
2343974	15	148	1
2344302	51	138	-7
2344630	56	150	9
2344958	35	168	-5
2345286	4	142	-14
2345614	-17	161	0
2345942	6	150	-15
2346270	37	150	-23
2346598	30	131	-25
2346926	44	159	-28
2347254	23	151	-26
2347582	-2	145	-24
2347910	-9	131	-35
2348238	-38	131	-37
2348566	-19	158	-36
2348894	-33	139	-30
2349222	-49	109	-41
2349550	-39	142	-32
2349878	-40	135	-26
2350206	-46	155	-27
2350534	-45	166	-15
2350862	-51	155	-22
2351190	-53	170	-18
2351518	-53	174	-15
2351846	-56	174	-11
2352174	-43	190	-19
2352502	-66	207	-12
2352830	-93	200	-3
2353158	-91	199	0
2353486	-66	193	-1
2353814	-48	200	10
2354142	-41	192	3
2354470	-36	191	4
2354798	-29	186	12
2355126	-37	177	14
2355454	-36	219	16
2355782	-58	231	5
2356110	-68	230	15
2356438	-110	260	27
2356766	-111	226	33
2357094	-92	245	22
2357422	-60	238	20
2357750	-53	201	22
2358078	-69	199	14
2358406	-65	185	11
2358734	-40	181	12
2359062	5	157	13
2359390	-4	139	5
2359718	1	144	8
2360046	-34	138	-1
2360374	-54	147	-9
2360702	-66	134	-13
2361030	-83	116	-24
2361358	-100	143	-26
2361686	-115	147	-25
2362014	-113	144	-21
2362342	-111	123	-29
2362670	-84	139	-22
2362998	-73	154	-31
2363326	-60	130	-34
2363654	-48	130	-31
2363982	-32	122	-33
2364310	-6	124	-34
2364638	6	142	-34
2364966	23	116	-49
2365294	26	105	-55
2365622	19	184	-53
2365950	87	189	-35
2366278	65	125	-51
2366606	32	66	-19
2366934	14	192	3
2367262	-5	261	-9
2367590	53	231	-2
2367918	57	118	-4
2368246	11	233	16
2368574	40	360	39
2368902	-4	312	54
2369230	18	310	41
2369558	62	324	72
2369886	51	325	75
2370214	110	314	71
2370542	166	341	87
2370870	210	379	114
2371198	217	397	155
2371526	235	464	188
2371854	260	550	229
2372182	294	623	286
2372510	322	729	318
2372838	381	876	406
2373166	438	1043	523
2373494	399	1250	650
2373822	319	1477	781
2374150	221	1705	951
2374478	122	1790	1132
2374806	145	1988	1181
2375134	196	1980	1250
2375462	201	2010	1388
2375790	323	2470	1570
2376118	233	3028	1792
2376446	440	3129	1987
2376774	631	2939	2116
2377102	491	2976	2125
2377430	643	3438	2242
2377758	496	3876	2462
2378086	245	4070	2719
2378414	-17	4148	2821
2378742	-57	4128	2905
2379070	229	4169	2933
2379398	556	4011	3105
2379726	1046	3689	3184
2380054	1532	3498	3334
2380382	1518	3251	3612
2380710	1384	2792	3956
2381038	1384	2089	3693
2381366	1758	1230	3330
2381694	2025	345	2525
2382022	2387	782	1471
2382350	1319	2072	431
2382678	738	3757	-685
2383006	-132	4238	-1500
2383334	-1767	3791	-2538
2383662	-2593	1930	-3514
2383990	-2970	-1045	-3507
2384318	-1743	-2581	-2846
2384646	-505	-1086	-2333
2384974	-19	-664	-2222
2385302	-115	-2701	-2493
2385630	-408	-4713	-2887
2385958	-1416	-5575	-2161
2386286	-2540	-6936	-2249
2386614	-5050	-7877	-2359
2386942	-6617	-8003	-2361
2387270	-7054	-8778	-2535
2387598	-9243	-8714	-3128
2387926	-12888	-6986	-4015
2388254	-7692	-6421	-3419
2388582	-5548	-8576	-2704
2388910	2252	-3463	-2152
2389238	5603	4166	-516
2389566	7012	633	757
2389894	5508	-3752	983
2390222	3886	-36	123
2390550	1777	3372	778
2390878	-685	1914	735
2391206	-1854	202	367
2391534	-2715	862	6
2391862	-2546	1444	12
2392190	-3311	-21	-684
2392518	-3400	-255	-1016
2392846	-2638	-188	-1139
2393174	-1878	195	-1059
2393502	-1040	183	-888
2393830	-632	-1031	-851
2394158	-250	-813	-803
2394486	-24	53	-622
2394814	171	-610	-546
2395142	201	-587	-579
2395470	-79	-387	-624
2395798	10880	-1132	-292
2396126	8574	-3309	1831
2396454	8010	17395	3176
2396782	8176	32363	2629
2397110	5950	-7204	-470
2397438	2888	-25846	1286
2397766	6870	-10780	-345
2398094	3404	11675	-2027
2398422	-483	32767	-2851
2398750	5160	-216	64
2399078	-391	-17528	9373
2399406	-1228	-18290	8458
2399734	10026	-9458	3410
2400062	-3256	-7476	-2880
2400390	1043	744	-4295
2400718	-6439	7467	2793
2401046	-2273	14248	903
2401374	-2005	10205	-1533
2401702	-767	-3169	-3261
2402030	4005	-10492	-2848
2402358	5663	-4669	-2714
2402686	5702	1011	-1570
2403014	4820	-1646	-1329
2403342	3075	-5112	-1866
2403670	-937	-5057	-1629
2403998	-2256	-2324	-1881
2404326	-2913	-220	-1773
2404654	-1625	-1467	-1918
2404982	-1652	-3520	-1801
2405310	-171	-2635	-1834
2405638	-176	-1041	-1837
2405966	453	-780	-1695
2406294	407	-1368	-1569
2406622	882	-1697	-1614
2406950	723	-1561	-1621
2407278	1067	-1508	-1700
2407606	504	-1296	-1508
2407934	295	-932	-1366
2408262	226	-988	-1231
2408590	-235	-935	-1043
2408918	-484	-540	-848
2409246	-644	-527	-745
2409574	-826	-808	-696
2409902	-958	-895	-621
2410230	-1126	-635	-563
2410558	-1451	-271	-592
2410886	-1748	54	-572
2411214	-1429	8	-467
2411542	-1193	-241	-484
2411870	-975	-287	-487
2412198	-574	-100	-437
2412526	-229	-59	-404
2412854	23	-191	-396
2413182	303	-211	-370
2413510	450	-112	-342
2413838	419	-20	-316
2414166	521	90	-309
2414494	345	104	-321
2414822	369	49	-292
2415150	285	13	-232
2415478	208	-87	-221
2415806	-49	-100	-248
2416134	-179	7	-237
2416462	-200	30	-229
2416790	-271	10	-209
2417118	-296	55	-186
2417446	-275	8	-186
2417774	-290	-36	-196
2418102	-120	113	-143
2418430	-132	202	-102
2418758	-133	183	-74
2419086	-46	148	-46
2419414	-88	80	-54
2419742	54	119	-55
2420070	37	171	-64
2420398	126	143	-48
2420726	62	107	-42
2421054	1	23	-42
2421382	49	-40	-50
2421710	-11	-93	-54
2422038	-36	-81	-69
2422366	-53	-52	-42
2422694	-60	-14	-49
2423022	-71	42	-62
2423350	-62	120	-61
2423678	-64	116	-67
2424006	-93	7	-85
2424334	-58	-24	-96
2424662	-46	-3	-98
2424990	-104	83	-100
2425318	-160	98	-83
2425646	-143	127	-64
2425974	-129	218	-52
2426302	-211	96	-81
2426630	-190	-13	-125
2426958	-136	-53	-126
2427286	-103	5	-108
2427614	-95	138	-88
2427942	-97	133	-95
2428270	-105	87	-91
2428598	-43	139	-64
2428926	-39	126	-53
2429254	-44	59	-55
2429582	12	53	-69
2429910	13	-19	-81
2430238	25	-25	-104
2430566	35	85	-75
2430894	28	130	-44
2431222	-13	146	-30
2431550	-44	134	-27
2431878	-76	133	-22
2432206	-35	110	-40
2432534	-57	100	-24
2432862	-15	165	-7
2433190	-1	155	-10
2433518	-39	129	-10
2433846	4	127	-6
2434174	31	141	-11
2434502	57	121	-2
2434830	78	147	-3
2435158	123	179	0
2435486	117	131	6
2435814	130	142	-11
2436142	136	154	-21
2436470	133	170	-23
2436798	168	175	-14
2437126	145	187	4
2437454	98	178	-13
2437782	115	163	-7
2438110	155	148	-5
2438438	145	133	-6
2438766	122	186	2
2439094	119	181	3
2439422	112	172	15
2439750	83	155	5
2440078	55	183	11
2440406	65	165	8
2440734	44	129	17
2441062	23	127	17
2441390	20	149	12
2441718	-14	120	-7
2442046	-38	102	-3
2442374	-35	165	4
2442702	-29	166	8
2443030	-45	109	2
2443358	-21	145	8
2443686	-45	167	-1
2444014	-54	175	-4
2444342	-23	177	8
2444670	-30	153	0
2444998	-69	155	-7
2445326	-63	170	-9
2445654	-48	179	5
2445982	-64	182	-7
2446310	-59	175	7
2446638	-42	185	9
2446966	-33	145	-5
2447294	-44	140	-18
2447622	-43	99	-12
2447950	-50	120	-20
2448278	-62	120	-20
2448606	-62	145	-15
2448934	-71	175	-16
2449262	-111	157	-19
2449590	-56	163	-4
2449918	-70	101	-24
2450246	-50	146	-24
2450574	-17	153	-16
2450902	-41	115	-13
2451230	-71	144	-19
2451558	-65	146	-2
2451886	-78	176	-9
2452214	-83	175	-4
2452542	-83	163	1
2452870	-65	138	-7
2453198	-39	142	-5
2453526	-44	145	-8
2453854	-75	136	-9
2454182	-91	91	-16
2454510	-57	152	-2
2454838	-72	131	3
2455166	-88	131	-6
2455494	-74	166	-17
2455822	-55	129	4
2456150	-69	142	-25
2456478	-98	152	-10
2456806	-76	151	-4
2457134	-64	117	-6
2457462	-54	126	-18
2457790	-24	145	-27
2458118	-19	143	-19
2458446	7	139	-20
2458774	0	132	-15
2459102	12	135	-31
2459430	21	129	-23
2459758	-7	128	-30
2460086	-16	127	-17
2460414	-22	110	-24
2460742	-29	128	-27
2461070	-26	130	-1
2461398	-46	105	-23
2461726	-12	134	-15
2462054	-23	124	-30
2462382	-15	105	-19
2462710	12	129	-9
2463038	0	118	-16
2463366	-19	84	-18
2463694	-28	129	-26
2464022	-14	79	-18
2464350	-13	105	-20
2464678	11	155	-18
2465006	9	145	-19
2465334	1	147	-13
2465662	-10	126	-21
2465990	-18	146	-13
2466318	-24	149	-12
2466646	-22	147	-5
2466974	4	167	-6
2467302	-25	172	-6
2467630	-17	162	-8
2467958	-27	180	-4
2468286	-61	184	-6
2468614	-54	163	-10
2468942	-67	143	-8
2469270	-50	152	-16
2469598	-65	178	-17
2469926	-70	175	-6
2470254	-42	193	-12
2470582	-54	184	-8
2470910	-57	176	-13
2471238	-43	174	-10
2471566	-51	161	-15
2471894	-72	171	-18
2472222	-26	155	-12
2472550	-22	139	-13
2472878	-18	156	-15
2473206	-47	141	-23
2473534	-44	161	-27
2473862	-33	155	-10
2474190	-89	150	-16
2474518	-82	175	-26
2474846	-101	144	-24
2475174	-106	139	8
2475502	-102	163	8
2475830	-77	172	4
2476158	-67	165	5
2476486	-47	142	-5
2476814	-52	124	1
2477142	-45	140	-5
2477470	-23	174	5
2477798	-54	178	-6
2478126	-51	148	-4
2478454	-22	142	8
2478782	-49	177	-3
2479110	-56	162	-5
2479438	-46	132	16
2479766	-52	152	7
2480094	-49	177	5
2480422	-37	175	14
2480750	-30	173	11
2481078	-53	136	5
2481406	-29	131	11
2481734	-26	148	0
2482062	-9	187	10
2482390	-10	169	12
2482718	-2	178	7
2483046	0	170	22
2483374	-24	176	21
2483702	-45	168	16
2484030	-61	149	17
2484358	-80	147	19
2484686	-47	132	21
2485014	-61	115	11
2485342	-57	105	16
2485670	-41	153	20
2485998	-84	158	20
2486326	-95	166	9
2486654	-86	154	27
2486982	-99	162	14
2487310	-84	185	29
2487638	-39	186	20
2487966	-64	172	20
2488294	-76	153	29
2488622	-83	160	25
2488950	-71	165	43
2489278	-83	157	24
2489606	-43	180	15
2489934	-40	144	19
2490262	-46	138	16
2490590	-43	152	19
2490918	-82	167	31
2491246	-96	200	25
2491574	-110	170	16
2491902	-103	185	19
2492230	-104	192	14
2492558	-114	180	37
2492886	-73	191	24
2493214	-80	150	16
2493542	-35	185	15
2493870	-44	190	27
2494198	-72	199	20
2494526	-93	164	40
2494854	-89	197	36
2495182	-51	211	33
2495510	-37	173	42
2495838	-7	201	24
2496166	-26	154	31
2496494	-54	165	29
2496822	-63	192	26
2497150	-129	172	37
2497478	-80	197	39
2497806	-86	180	41
2498134	-75	215	38
2498462	-80	176	23
2498790	-98	200	22
2499118	-88	199	30
2499446	-80	164	28
2499774	-78	173	37
2500102	-81	202	37
2500430	-79	155	31
2500758	-87	185	6
2501086	-99	151	4
2501414	-123	134	9
2501742	-100	210	4
2502070	-131	152	2
2502398	-122	156	12
2502726	-110	198	16
2503054	-114	185	16
2503382	-64	166	7
2503710	-53	98	11
2504038	-28	148	9
2504366	-37	150	6
2504694	-75	149	2
2505022	-106	154	6
2505350	-115	160	16
2505678	-122	158	-3
2506006	-117	145	-3
2506334	-104	143	14
2506662	-77	173	12
2506990	-105	162	-16
2507318	-56	128	-5
2507646	-73	140	-1
2507974	-68	131	1
2508302	-63	130	-8
2508630	-57	159	-2
2508958	-57	152	10
2509286	-49	159	1
2509614	-43	183	0
2509942	-51	145	5
2510270	-27	161	3
2510598	-36	158	8
2510926	-35	164	10
2511254	-57	143	-2
2511582	-72	148	5
2511910	-53	160	5
2512238	-47	166	-4
2512566	-18	140	-3
2512894	8	164	-6
2513222	-5	164	-12
2513550	-1	130	-7
2513878	21	134	-14
2514206	48	146	-21
2514534	34	152	-17
2514862	-11	152	-15
2515190	-3	153	-19
2515518	-43	124	-24
2515846	-49	130	-1
2516174	-38	151	-18
2516502	-21	133	-26
2516830	11	144	-8
2517158	6	112	-31
2517486	3	126	-17
2517814	0	137	-30
2518142	-4	117	-27
2518470	-9	144	-26
2518798	-13	146	-23
2519126	-12	120	-24
2519454	-4	114	-32
2519782	-21	129	-31
2520110	-2	130	-35
2520438	-20	130	-31
2520766	-47	126	-23
2521094	-44	147	-23
2521422	5	117	-21
2521750	-7	135	-32
2522078	-19	125	-36
2522406	7	119	-31
2522734	30	135	-31
2523062	29	137	-39
2523390	33	145	-31
2523718	22	149	-35
2524046	17	141	-37
2524374	24	150	-35
2524702	-2	158	-32
2525030	-1	150	-22
2525358	-1	162	-26
2525686	26	133	-31
2526014	-5	147	-38
2526342	-7	160	-40
2526670	-22	151	-40
2526998	-67	181	-30
2527326	-71	150	-48
2527654	-89	156	-40
2527982	-95	155	-52
2528310	-80	151	-37
2528638	-103	124	-35
2528966	-100	150	-59
2529294	-96	134	-49
2529622	-101	151	-48
2529950	-121	134	-44
2530278	-145	150	-55
2530606	-164	142	-55
2530934	-175	133	-54
2531262	-171	150	-53
2531590	-157	139	-60
2531918	-136	152	-62
2532246	-132	148	-55
2532574	-145	159	-50
2532902	-129	154	-50
2533230	-141	135	-58
2533558	-121	129	-60
2533886	-84	147	-48
2534214	-63	117	-66
2534542	-46	134	-49
2534870	-44	156	-41
2535198	-52	161	-50
2535526	-55	144	-55
2535854	-73	151	-39
2536182	-80	163	-39
2536510	-83	159	-28
2536838	-71	164	-29
2537166	-26	156	-25
2537494	-21	152	-43
2537822	-31	135	-39
2538150	-36	170	-49
2538478	-65	164	-27
2538806	-69	151	-33
2539134	-60	164	-26
2539462	-52	149	-30
2539790	-48	141	-29
2540118	-54	146	-25
2540446	-58	155	-24
2540774	-70	148	-41
2541102	-50	184	-28
2541430	-27	176	-20
2541758	-55	188	-20
2542086	-86	201	-7
2542414	-105	206	-8
2542742	-95	204	-7
2543070	-73	198	-12
2543398	-64	217	4
2543726	-44	186	5
2544054	-56	174	5
2544382	-44	171	4
2544710	-37	187	3
2545038	-46	235	-11
2545366	-70	196	0
2545694	-68	179	2
2546022	-58	204	-1
2546350	-48	196	3
2546678	-46	184	0
2547006	-54	181	-2
2547334	-40	205	-24
2547662	-25	169	-2
2547990	-27	179	-1
2548318	-19	170	1
2548646	-29	163	-16
2548974	-55	171	-20
2549302	-58	140	-17
2549630	-44	142	-30
2549958	-71	167	-23
2550286	-52	156	-26
2550614	-68	137	-12
2550942	-54	172	-4
2551270	-60	164	-23
2551598	-32	166	-12
2551926	-52	173	-8
2552254	-86	163	-20
2552582	-84	173	-13
2552910	-100	152	-24
2553238	-62	130	-21
2553566	-45	152	-19
2553894	-23	149	-22
2554222	-56	136	-15
2554550	-64	159	-6
2554878	-71	153	-5
2555206	-87	142	-23
2555534	-83	169	10
2555862	-80	160	-21
2556190	-69	141	-13
2556518	-78	173	-10
2556846	-87	165	-6
2557174	-115	154	8
2557502	-117	140	-12
2557830	-91	151	-5
2558158	-83	140	-5
2558486	-99	152	-8
2558814	-81	147	-20
2559142	-77	151	-9
2559470	-90	152	-18
2559798	-56	156	1
2560126	-68	145	-16
2560454	-53	145	-24
2560782	-45	148	-31
2561110	-33	125	-37
2561438	-5	126	-35
2561766	6	127	-38
2562094	11	143	-39
2562422	7	114	-36
2562750	17	115	-25
2563078	-7	122	-34
2563406	27	130	-39
2563734	2	110	-39
2564062	-15	95	-38
2564390	-20	112	-37
2564718	-20	110	-38
2565046	-23	108	-48
2565374	-30	118	-52
2565702	-21	111	-43
2566030	-22	119	-49
2566358	-23	118	-40
2566686	-6	126	-47
2567014	9	123	-50
2567342	20	142	-46
2567670	4	110	-50
2567998	1	128	-55
2568326	-16	124	-50
2568654	-9	102	-48
2568982	-12	135	-58
2569310	14	118	-42
2569638	29	91	-48
2569966	15	143	-62
2570294	-1	138	-54
2570622	2	120	-70
2570950	-7	155	-53
2571278	-9	122	-56
2571606	9	120	-58
2571934	15	144	-66
2572262	28	139	-57
2572590	-9	123	-59
2572918	-7	113	-45
2573246	-3	116	-51
2573574	22	115	-51
2573902	18	122	-53
2574230	-19	108	-53
2574558	-17	138	-58
2574886	-17	108	-50
2575214	-15	148	-45
2575542	-3	154	-43
2575870	17	127	-58
2576198	11	136	-44
2576526	13	168	-57
2576854	17	152	-46
2577182	21	165	-40
2577510	26	175	-48
2577838	37	176	-42
2578166	32	186	-47
2578494	53	185	-47
2578822	36	198	-31
2579150	44	236	-25
2579478	53	255	-40
2579806	56	276	-30
2580134	78	320	-14
2580462	104	378	8
2580790	102	365	21
2581118	106	341	31
2581446	82	329	37
2581774	67	425	41
2582102	70	417	59
2582430	69	394	61
2582758	54	487	55
2583086	55	445	45
2583414	40	432	31
2583742	58	521	21
2584070	56	539	20
2584398	52	549	-1
2584726	55	575	-16
2585054	86	572	-40
2585382	107	618	-57
2585710	165	639	-91
2586038	213	599	-133
2586366	260	617	-143
2586694	293	573	-194
2587022	272	462	-235
2587350	251	476	-257
2587678	278	528	-303
2588006	282	416	-375
2588334	389	440	-399
2588662	488	448	-433
2588990	499	407	-485
2589318	510	430	-511
2589646	501	394	-542
2589974	440	334	-609
2590302	523	304	-647
2590630	528	230	-683
2590958	507	240	-730
2591286	506	290	-746
2591614	562	249	-756
2591942	647	-31	-863
2592270	493	-220	-938
2592598	583	-104	-936
2592926	628	328	-932
2593254	507	540	-918
2593582	182	228	-912
2593910	-98	161	-863
2594238	-152	496	-859
2594566	-8	462	-857
2594894	265	-39	-873
2595222	627	-228	-886
2595550	1027	219	-883
2595878	1125	287	-785
2596206	938	299	-746
2596534	1044	524	-720
2596862	844	619	-672
2597190	885	691	-612
2597518	713	641	-535
2597846	707	542	-461
2598174	740	400	-382
2598502	714	496	-334
2598830	589	899	-201
2599158	550	1039	-75
2599486	603	868	13
2599814	556	959	131
2600142	456	1123	310
2600470	159	1263	492
2600798	-160	1379	597
2601126	-382	1467	683
2601454	-433	1493	776
2601782	-570	1648	855
2602110	-479	1853	1004
2602438	-276	1733	1028
2602766	-369	1444	916
2603094	-429	1478	963
2603422	-487	1753	1011
2603750	-850	1390	852
2604078	-851	900	735
2604406	-402	855	699
2604734	-454	927	601
2605062	-210	869	566
2605390	-130	698	473
2605718	-240	645	445
2606046	-237	717	446
2606374	-284	597	390
2606702	-199	421	348
2607030	-91	438	361
2607358	-71	394	389
2607686	-71	322	363
2608014	-134	226	336
2608342	-242	199	351
2608670	-388	170	345
2608998	-521	38	384
2609326	-615	-34	400
2609654	-522	-4	347
2609982	-368	-96	341
2610310	-298	-122	355
2610638	-317	-46	388
2610966	-399	10	386
2611294	-433	-129	399
2611622	-424	-151	403
2611950	-375	-86	437
2612278	-396	-93	465
2612606	-404	-134	527
2612934	-372	-164	568
2613262	-321	-181	613
2613590	-224	-133	699
2613918	-154	-38	753
2614246	-74	-118	780
2614574	-56	-262	848
2614902	-122	-106	898
2615230	-329	31	1007
2615558	-553	-69	1127
2615886	-662	-125	1249
2616214	-763	31	1397
2616542	-738	281	1519
2616870	-568	282	1601
2617198	-534	-24	1660
2617526	-601	-49	1752
2617854	-562	272	1876
2618182	-625	404	1972
2618510	-307	211	1990
2618838	48	-57	2065
2619166	399	86	2108
2619494	466	472	2180
2619822	185	731	2313
2620150	-24	715	2379
2620478	-30	427	2473
2620806	-34	407	2584
2621134	-16	700	2572
2621462	241	874	2653
2621790	331	749	2898
2622118	852	607	3210
2622446	1455	507	3650
2622774	1657	670	3958
2623102	1717	1153	3925
2623430	2144	814	3833
2623758	3019	614	3918
2624086	2809	1386	4103
2624414	2003	2422	4279
2624742	667	2655	4502
2625070	-1158	1159	4650
2625398	-1399	280	4954
2625726	-193	-609	5192
2626054	543	-2432	5216
2626382	1302	-3785	4904
2626710	2327	-4326	4447
2627038	3442	-4553	4306
2627366	4786	-4854	3991
2627694	5503	-5290	3555
2628022	6443	-5813	3226
2628350	6236	-5770	2994
2628678	4088	-5032	3030
2629006	701	-4696	2920
2629334	-2944	-5280	2737
2629662	-5081	-6234	2282
2629990	-5901	-6992	1594
2630318	-5328	-7071	884
2630646	-3394	-6729	470
2630974	-782	-6432	209
2631302	1551	-6709	182
2631630	3258	-6669	448
2631958	4363	-5924	766
2632286	3876	-5139	1000
2632614	4547	-4459	1078
2632942	4450	-3563	1050
2633270	3250	-2182	1194
2633598	1808	-1263	1097
2633926	2030	-1415	805
2634254	2538	-1907	449
2634582	2072	-2105	341
2634910	881	-1629	-22
2635238	170	-386	-616
2635566	37	529	-1029
2635894	-361	1092	-1004
2636222	-370	1887	-1014
2636550	-221	2490	-1104
2636878	-293	2842	-1246
2637206	-450	2848	-1347
2637534	-382	2537	-1436
2637862	-548	2724	-1492
2638190	-260	3163	-1452
2638518	60	3172	-1372
2638846	653	2616	-1398
2639174	945	2656	-1247
2639502	1269	2824	-1044
2639830	1195	2482	-1039
2640158	1125	2216	-1004
2640486	827	2309	-962
2640814	517	2484	-727
2641142	-42	2683	-613
2641470	-150	2472	-436
2641798	-176	2265	-445
2642126	-286	2347	-446
2642454	-520	2494	-418
2642782	-722	2491	-478
2643110	-503	2190	-283
2643438	-568	1886	-31
2643766	-84	1416	249
2644094	503	870	335
2644422	1096	807	268
2644750	1238	1332	155
2645078	1019	1814	89
2645406	389	1879	-56
2645734	-181	1481	-115
2646062	-773	1138	-53
2646390	-941	1150	34
2646718	-1092	1188	160
2647046	-971	1068	203
2647374	-802	948	156
2647702	-395	1055	27
2648030	145	1249	-48
2648358	559	1006	-94
2648686	1031	1005	-216
2649014	1301	1247	-190
2649342	1509	1145	-110
2649670	1097	1119	-62
2649998	693	902	-19
2650326	479	674	7
2650654	82	668	105
2650982	-214	808	206
2651310	-511	674	108
2651638	-322	216	94
2651966	-281	59	79
2652294	-117	230	135
2652622	-129	419	158
2652950	-234	447	103
2653278	-348	331	110
2653606	-442	324	78
2653934	-476	313	54
2654262	-454	247	86
2654590	-520	367	75
2654918	-586	253	100
2655246	-567	91	106
2655574	-436	7	113
2655902	-365	-44	100
2656230	-342	-59	93
2656558	-382	-108	72
2656886	-304	-153	72
2657214	-318	-233	66
2657542	-212	-331	94
2657870	-129	-375	76
2658198	-16	-304	51
2658526	-76	-205	26
2658854	-199	-249	42
2659182	-381	-265	51
2659510	-392	-143	100
2659838	-464	-67	177
2660166	-556	-109	216
2660494	-623	-158	247
2660822	-577	-311	236
2661150	-416	-417	257
2661478	-241	-510	321
2661806	-47	-499	358
2662134	276	-481	357
2662462	796	-541	378
2662790	830	-355	437
2663118	1105	-171	530
2663446	1158	-278	657
2663774	1254	-229	771
2664102	1014	64	825
2664430	926	345	783
2664758	623	801	589
2665086	236	1225	349
2665414	-168	1533	328
2665742	-881	1906	599
2666070	-1578	1987	898
2666398	-2046	1742	1234
2666726	-1520	1692	1592
2667054	-1118	1621	1973
2667382	-332	1721	2273
2667710	820	2087	2391
2668038	955	2382	2575
2668366	772	2249	2825
2668694	938	1713	2931
2669022	1758	237	2943
2669350	2239	-1313	2837
2669678	3312	-2183	3031
2670006	3759	-2440	3207
2670334	3607	-2720	3297
2670662	2923	-2976	3629
2670990	2258	-2846	3785
2671318	1794	-2716	4175
2671646	1042	-2682	4384
2671974	850	-2921	4786
2672302	-80	-3535	5021
2672630	-360	-4098	5093
2672958	-93	-4535	4951
2673286	4	-4625	4713
2673614	142	-4055	4445
2673942	1142	-3518	4184
2674270	1981	-3109	3781
2674598	2229	-3001	3362
2674926	2720	-2711	2873
2675254	3847	-2581	2355
2675582	3932	-2622	1752
2675910	4672	-2783	1221
2676238	6348	-3101	599
2676566	4898	-1918	-130
2676894	5593	1069	-778
2677222	6270	2939	-1638
2677550	5440	2258	-2792
2677878	4578	1262	-4267
2678206	2705	1479	-5385
2678534	-308	2030	-6170
2678862	-2515	3135	-6739
2679190	-3552	5665	-6631
2679518	-4553	5732	-6569
2679846	-5651	4861	-6432
2680174	-4914	6025	-5686
2680502	-3499	5753	-4638
2680830	-1826	4237	-3580
2681158	-150	3575	-2784
2681486	1558	3968	-2218
2681814	3349	3355	-1774
2682142	4473	2447	-1181
2682470	5526	1358	-784
2682798	5985	1016	-838
2683126	5931	1333	-1097
2683454	5273	1909	-1597
2683782	3439	2990	-1560
2684110	2213	1934	-1284
2684438	1650	965	-967
2684766	1118	191	-617
2685094	1253	616	-505
2685422	1492	726	-435
2685750	1976	360	-449
2686078	2550	163	-349
2686406	2856	214	-229
2686734	2931	149	-168
2687062	2933	217	-197
2687390	2785	121	-275
2687718	2321	243	-285
2688046	1952	-12	-378
2688374	1462	-200	-404
2688702	778	336	-409
2689030	157	430	-363
2689358	-290	-24	-362
2689686	-219	-371	-285
2690014	8	-436	-209
2690342	302	-367	-195
2690670	293	-515	-140
2690998	166	-661	-15
2691326	38	-676	143
2691654	-18	-878	285
2691982	-209	-1138	355
2692310	-162	-999	390
2692638	-240	-750	451
2692966	-240	-807	532
2693294	-221	-1125	569
2693622	-347	-1135	596
2693950	-240	-1047	466
2694278	-403	-1113	455
2694606	-525	-996	464
2694934	-907	-727	508
2695262	-1175	-1014	595
2695590	-1208	-1611	518
2695918	-1080	-1489	459
2696246	-1199	-861	435
2696574	-1187	-848	479
2696902	-1381	-1361	496
2697230	-1438	-1533	447
2697558	-1404	-1557	578
2697886	-1383	-1892	777
2698214	-1166	-2220	1023
2698542	-1306	-2346	1220
2698870	-1274	-2260	1347
2699198	-1361	-2372	1557
2699526	-1353	-2700	1859
2699854	-973	-2932	2207
2700182	-516	-2897	2709
2700510	139	-2831	3097
2700838	1130	-2703	3534
2701166	1933	-2650	3851
2701494	2594	-2536	4324
2701822	3048	-2509	4815
2702150	3070	-2670	5563
2702478	2710	-2775	6314
2702806	1875	-2141	7231
2703134	1065	-1303	7984
2703462	1571	-1504	8657
2703790	3217	-2003	9772
2704118	7178	-3199	10300
2704446	9225	-2088	10614
2704774	10376	-668	10352
2705102	9366	1358	9669
2705430	4731	2804	7915
2705758	8850	-773	6324
2706086	17753	-4747	4567
2706414	12753	-2013	3396
2706742	16874	2909	828
2707070	12218	2160	583
2707398	10305	-2137	-1830
2707726	11211	-3294	-4335
2708054	8325	-1319	-6283
2708382	7455	-569	-8410
2708710	5059	-2818	-10674
2709038	1893	-4956	-11887
2709366	1246	-6217	-12192
2709694	-85	-7453	-12216
2710022	297	-8797	-12282
2710350	1546	-11327	-12466
2710678	3191	-13504	-12604
2711006	5569	-14655	-12338
2711334	4962	-14497	-11802
2711662	7149	-15385	-10830
2711990	8346	-18079	-10255
2712318	10076	-20349	-9641
2712646	10925	-21453	-8665
2712974	13441	-23535	-8179
2713302	13991	-22624	-7589
2713630	13723	-20869	-6930
2713958	13390	-19050	-6272
2714286	12025	-17236	-4698
2714614	9943	-15571	-2918
2714942	7253	-15876	-1950
2715270	4852	-18277	-2693
2715598	3790	-17823	-2618
2715926	4115	-14844	-2849
2716254	5108	-11249	-2495
2716582	7149	-8508	-1573
2716910	8805	-5664	-787
2717238	10209	-2919	126
2717566	9697	-834	1276
2717894	8794	632	1888
2718222	6671	825	1771
2718550	5238	2150	1481
2718878	6055	3654	1802
2719206	4425	3812	1371
2719534	3986	4007	628
2719862	3360	3542	122
2720190	1723	7924	-1609
2720518	5594	15449	-2051
2720846	4546	6513	5266
2721174	4436	-3592	5588
2721502	2868	1135	3957
2721830	3571	7948	2325
2722158	3640	10127	1458
2722486	4075	7306	587
2722814	3440	4818	-183
2723142	3862	5722	-503
2723470	3650	5459	200
2723798	3657	2827	1037
2724126	3565	926	1411
2724454	3288	1727	1398
2724782	2948	2974	1398
2725110	2488	2914	1373
2725438	2384	2508	1135
2725766	2055	2039	1014
2726094	1816	2351	940
2726422	2068	2497	797
2726750	1911	2429	625
2727078	1449	2348	392
2727406	1140	2319	126
2727734	922	1931	16
2728062	1151	1369	126
2728390	897	1173	199
2728718	787	1319	215
2729046	829	1405	228
2729374	914	1230	237
2729702	721	1258	267
2730030	855	1354	231
2730358	662	1365	325
2730686	424	1163	424
2731014	32	912	465
2731342	-166	590	466
2731670	-264	374	626
2731998	-233	426	592
2732326	-252	-256	681
2732654	175	-1143	788
2732982	-36	-1666	848
2733310	59	-1674	913
2733638	338	-1469	1009
2733966	405	-1529	949
2734294	405	-1445	937
2734622	497	-1121	861
2734950	590	-1115	898
2735278	185	-1274	926
2735606	-176	-942	779
2735934	-483	-763	725
2736262	-861	-953	619
2736590	-890	-1156	542
2736918	-908	-1575	580
2737246	-1151	-1970	561
2737574	-973	-2014	398
2737902	-703	-2162	256
2738230	-220	-2721	33
2738558	-68	-3247	20
2738886	138	-2998	-138
2739214	-130	-2679	-309
2739542	-552	-2894	-498
2739870	-1174	-3364	-603
2740198	-1712	-3539	-825
2740526	-2044	-3914	-893
2740854	-2661	-4366	-864
2741182	-2973	-4702	-1448
2741510	-3437	-5143	-2175
2741838	-5258	-6009	-2847
2742166	-6166	-7057	-3226
2742494	-6910	-7684	-3264
2742822	-7898	-7625	-3473
2743150	-8849	-7397	-3613
2743478	-9083	-5787	-3649
2743806	-13091	-2762	-4059
2744134	-13650	-3275	-5311
2744462	-12240	-10254	-3472
2744790	-10068	-9219	-1260
2745118	-8667	-4364	1125
2745446	-8194	149	1028
2745774	-5907	2888	2911
2746102	-5560	4966	4462
2746430	-1755	7881	6949
2746758	1049	8835	8695
2747086	2083	9068	9555
2747414	248	10520	9597
2747742	-331	13491	9478
2748070	-4197	16559	9010
2748398	-6393	19115	9255
2748726	-8504	19996	8786
2749054	-8765	20228	8957
2749382	-10821	19024	9242
2749710	-11634	17655	9945
2750038	-10810	17999	10214
2750366	-10749	18532	10026
2750694	-9624	17963	9350
2751022	-9488	16998	8248
2751350	-9346	17248	7202
2751678	-9626	17480	5892
2752006	-10303	17387	5480
2752334	-10355	16823	4897
2752662	-10769	15760	4493
2752990	-11101	14792	4249
2753318	-11174	14201	3709
2753646	-11837	14154	2995
2753974	-12469	13888	2180
2754302	-13347	13134	1134
2754630	-14222	12372	71
2754958	-15687	12419	-982
2755286	-17322	13774	-1926
2755614	-18701	13985	-2951
2755942	-20920	13309	-4067
2756270	-22416	12797	-4011
2756598	-21677	10873	-4152
2756926	-21787	9879	-4464
2757254	-22390	10491	-4387
2757582	-21025	11055	-4734
2757910	-20302	10069	-5049
2758238	-18363	8162	-5557
2758566	-16114	6953	-6047
2758894	-15466	6393	-6583
2759222	-16106	6537	-7208
2759550	-16696	6639	-8084
2759878	-16729	6101	-9054
2760206	-17581	6325	-9754
2760534	-16059	7914	-9361
2760862	-12939	8976	-8961
2761190	-12586	7317	-7941
2761518	-10808	7611	-6445
2761846	-7671	6383	-5144
2762174	-6436	5116	-5038
2762502	-5077	5176	-4511
2762830	-3130	5232	-4186
2763158	-1938	4183	-3483
2763486	-1340	3385	-2254
2763814	-469	1893	-1075
2764142	-1085	1140	-856
2764470	-238	3365	-1095
2764798	633	4937	-1732
2765126	592	4793	-2667
2765454	-427	4863	-3274
2765782	-1373	3442	-3167
2766110	-2425	1655	-2394
2766438	-3180	1574	-1881
2766766	-4110	2012	-1307
2767094	-3936	1714	-1333
2767422	-3205	931	-1299
2767750	-852	647	-1196
2768078	-197	1717	-1036
2768406	1255	2420	-897
2768734	262	1949	-863
2769062	-760	1312	-843
2769390	-1555	1254	-752
2769718	-2155	1128	-652
2770046	-2056	639	-511
2770374	-1933	483	-409
2770702	-817	600	-204
2771030	-886	556	-84
2771358	-834	501	-96
2771686	-963	425	-88
2772014	-1150	656	-23
2772342	-1805	537	112
2772670	-2101	147	177
2772998	-2330	-211	194
2773326	-2042	-606	270
2773654	-1749	-822	305
2773982	-1345	-977	295
2774310	-1073	-1263	361
2774638	-718	-1541	326
2774966	-304	-1309	367
2775294	57	-1376	401
2775622	-43	-1600	437
2775950	-121	-1667	441
2776278	-540	-1809	462
2776606	-692	-2057	449
2776934	-718	-2324	448
2777262	-479	-2588	448
2777590	-394	-2551	559
2777918	-352	-2521	581
2778246	-209	-2712	542
2778574	207	-2590	524
2778902	568	-2611	529
2779230	623	-2769	564
2779558	109	-2735	584
2779886	-474	-2854	538
2780214	-569	-3014	475
2780542	-917	-3204	406
2780870	-572	-3324	459
2781198	-1047	-3483	253
2781526	-1278	-3692	47
2781854	-1668	-4105	-118
2782182	-2434	-3949	-485
2782510	-3190	-4014	-745
2782838	-4481	-4332	-952
2783166	-5403	-4349	-1156
2783494	-6577	-3995	-1448
2783822	-6820	-3359	-1662
2784150	-7509	-2310	-1974
2784478	-9713	-637	-2436
2784806	-9401	-787	-2417
2785134	-9558	-2651	-2230
2785462	-9298	-2156	-2118
2785790	-9924	56	-2006
2786118	-10730	2183	-1531
2786446	-12610	4844	-860
2786774	-14014	7549	-127
2787102	-13522	10516	860
2787430	-12863	13746	2131
2787758	-8937	15824	3510
2788086	-7036	16319	4684
2788414	-4716	17373	6161
2788742	-3384	17468	6828
2789070	-4354	18162	5243
2789398	-5404	19518	3319
2789726	-5998	18414	4347
2790054	-5839	16909	4219
2790382	-6682	16732	5128
2790710	-7539	16971	6342
2791038	-8036	17333	6526
2791366	-7773	16694	6719
2791694	-6859	14623	6587
2792022	-6630	13130	6454
2792350	-5512	12010	6075
2792678	-4645	11201	5772
2793006	-3615	10084	5217
2793334	-2811	9276	4476
2793662	-1885	8718	3492
2793990	-1350	7917	2420
2794318	-604	6906	1428
2794646	-1223	6231	413
2794974	-1278	5931	-503
2795302	-2441	5112	-1241
2795630	-2547	4992	-1551
2795958	-2863	4430	-1819
2796286	-2965	3623	-2051
2796614	-2826	2867	-2728
2796942	-2909	2508	-3668
2797270	-2782	2101	-4511
2797598	-2441	614	-5405
2797926	-1985	-1267	-6028
2798254	-1984	-1971	-6404
2798582	-2421	-1614	-6264
2798910	-4323	-825	-5048
2799238	-7714	3094	-4680
2799566	-4778	-3959	1491
2799894	-3177	-7795	2400
2800222	1561	-2651	943
2800550	6293	-1687	-699
2800878	9566	-552	-947
2801206	10599	1795	-2461
2801534	10175	2577	-3122
2801862	6818	1571	-2707
2802190	1056	124	-1116
2802518	-3392	-1177	-378
2802846	-5348	116	-442
2803174	-4395	787	-446
2803502	-1739	842	-544
2803830	1086	569	-592
2804158	3093	-211	21
2804486	4233	-853	-28
2804814	4135	-433	119
2805142	3057	492	124
2805470	914	702	281
2805798	-1026	429	485
2806126	-2244	506	552
2806454	-2485	753	638
2806782	-2444	1087	596
2807110	-2226	1323	691
2807438	-1972	1317	624
2807766	-1722	1281	582
2808094	-1450	1195	580
2808422	-1365	1149	584
2808750	-1484	1192	712
2809078	-1622	1216	841
2809406	-1869	1174	972
2809734	-1998	1105	1038
2810062	-2339	1126	1140
2810390	-2537	1126	1277
2810718	-2842	812	1375
2811046	-3219	545	1392
2811374	-3559	415	1474
2811702	-3996	377	1633
2812030	-4267	370	1691
2812358	-4242	374	1664
2812686	-4216	337	1889
2813014	-4350	356	2013
2813342	-4733	866	2193
2813670	-5804	1525	2538
2813998	-6959	2245	2885
2814326	-8396	2781	3265
2814654	-9486	3275	3634
2814982	-10327	4424	3848
2815310	-10867	5810	3944
2815638	-9423	7940	4782
2815966	-7286	8400	5819
2816294	-5879	9252	6910
2816622	-6262	9652	7172
2816950	-5317	8403	7510
2817278	-3846	4619	7319
2817606	-1656	-303	7583
2817934	-277	-4379	7502
2818262	-1272	-6982	7326
2818590	-4200	-9634	6421
2818918	-5923	-9053	3291
2819246	-6872	-7376	-1222
2819574	-8716	-5850	-5693
2819902	-7515	-4198	-8931
2820230	-6928	-4375	-8787
2820558	-7590	-3681	-7091
2820886	-7201	-2187	-5744
2821214	-6059	-1166	-2976
2821542	-4590	-2725	-937
2821870	474	-3021	465
2822198	6172	-502	3635
2822526	9348	525	3348
2822854	8142	567	5118
2823182	6942	-1111	4948
2823510	3772	-1754	2774
2823838	625	-299	343
2824166	-2033	1233	-862
2824494	-3575	1983	-821
2824822	-5656	1065	-1578
2825150	-5982	-483	-2512
2825478	-5341	-1182	-2515
2825806	-3333	194	-2598
2826134	-2814	-171	-1353
2826462	-2869	-1368	-1496
2826790	-1487	-1327	-1103
2827118	-665	-1080	-840
2827446	406	-867	-587
2827774	1008	-997	-779
2828102	996	-812	-732
2828430	1200	-342	-480
2828758	1094	201	-338
2829086	1249	241	-132
2829414	1881	214	12
2829742	2350	-195	147
2830070	3242	-477	317
2830398	3998	-696	445
2830726	4591	-664	607
2831054	5019	-799	760
2831382	5299	-844	768
2831710	5571	-1058	798
2832038	5817	-1153	813
2832366	6130	-1444	854
2832694	6459	-1644	779
2833022	6777	-1869	722
2833350	7086	-2279	638
2833678	7237	-2572	482
2834006	7238	-2853	316
2834334	7112	-2905	51
2834662	6556	-2767	-173
2834990	6138	-2571	-308
2835318	5834	-2302	-374
2835646	5977	-2316	-548
2835974	6157	-2252	-824
2836302	6218	-2290	-1127
2836630	6166	-2332	-1464
2836958	5873	-2220	-1811
2837286	5350	-1847	-2060
2837614	4847	-1642	-2223
2837942	4294	-1840	-2430
2838270	3757	-1734	-2595
2838598	2430	-1276	-2916
2838926	1406	-778	-3481
2839254	-176	-399	-3937
2839582	-1632	-170	-4290
2839910	-2833	131	-4295
2840238	-3487	437	-3767
2840566	-3811	998	-3073
2840894	-2551	1147	-2497
2841222	-687	96	-1727
2841550	1904	-1873	-1952
2841878	4146	-1147	-2489
2842206	5580	1364	-2539
2842534	3664	2927	-1876
2842862	224	2657	-2046
2843190	-2689	1106	-1611
2843518	-3387	-401	-1654
2843846	-2056	-523	-1432
2844174	-457	-149	-1267
2844502	1082	122	-1166
2844830	1627	-52	-1131
2845158	1553	-309	-1106
2845486	1400	-87	-1213
2845814	1104	-254	-1032
2846142	635	-605	-810
2846470	417	-789	-662
2846798	252	-916	-528
2847126	292	-943	-255
2847454	775	-1461	-361
2847782	788	-1505	-139
2848110	1016	-1337	-49
2848438	1311	-1618	139
2848766	1564	-1995	347
2849094	2159	-2138	431
2849422	2545	-2059	571
2849750	2761	-2124	724
2850078	2546	-2366	851
2850406	2406	-2301	984
2850734	2419	-2081	1098
2851062	2355	-2086	1206
2851390	2276	-2205	1288
2851718	1979	-2210	1517
2852046	1769	-2288	1758
2852374	1996	-2679	1950
2852702	2436	-3256	2199
2853030	3044	-3850	2608
2853358	3987	-4716	3393
2853686	4777	-4850	3819
2854014	6268	-4714	4147
2854342	7826	-5005	4495
2854670	8815	-5227	4880
2854998	8820	-5460	5315
2855326	8376	-5276	5556
2855654	7979	-5017	5651
2855982	7571	-4664	5878
2856310	6919	-4265	5960
2856638	6244	-3794	6210
2856966	5690	-3308	6422
2857294	5274	-3171	6626
2857622	5017	-3038	6900
2857950	4948	-2735	7205
2858278	4901	-2382	7395
2858606	5074	-1749	7974
2858934	5131	-522	7992
2859262	5115	465	8122
2859590	6104	951	8118
2859918	6381	1599	8961
2860246	4953	1496	8620
2860574	6696	985	7853
2860902	13640	-3817	6359
2861230	15635	-5492	5476
2861558	13147	53	3880
2861886	18111	3862	2987
2862214	13269	-359	2641
2862542	12714	-6418	1772
2862870	14132	-7441	140
2863198	13224	-5933	-1796
2863526	12058	-5569	-3414
2863854	10235	-6004	-4491
2864182	8306	-7621	-5742
2864510	5242	-9746	-6195
2864838	3237	-11137	-6144
2865166	1757	-12119	-6334
2865494	1490	-13021	-6233
2865822	1920	-14559	-6364
2866150	2785	-15896	-6407
2866478	3854	-16887	-5846
2866806	5450	-17579	-5637
2867134	7835	-18196	-5532
2867462	9891	-19195	-5571
2867790	11737	-20894	-5701
2868118	12245	-21907	-5839
2868446	12697	-21407	-5974
2868774	12637	-20610	-5843
2869102	13102	-20286	-5420
2869430	11901	-20164	-4150
2869758	11062	-19268	-3077
2870086	9250	-17751	-1941
2870414	7790	-16583	-134
2870742	5734	-16435	672
2871070	2890	-16677	1798
2871398	2508	-15876	70
2871726	2198	-17053	884
2872054	1994	-16667	481
2872382	3061	-13356	105
2872710	4987	-10770	-389
2873038	7295	-9570	-340
2873366	9806	-8353	-472
2873694	12251	-7636	-418
2874022	13547	-6721	430
2874350	13735	-3985	1098
2874678	12547	-2740	1432
2875006	10016	-1642	1710
2875334	7674	-124	1761
2875662	6366	946	1807
2875990	5838	2932	1939
2876318	5661	5548	2072
2876646	5634	7256	2158
2876974	4526	7477	1634
2877302	3115	6645	1248
2877630	1465	6458	1037
2877958	369	7572	772
2878286	881	7922	893
2878614	333	7333	605
2878942	-2480	7042	210
2879270	-1233	4921	-40
2879598	-222	3204	249
2879926	524	3736	550
2880254	2363	5486	-201
2880582	4948	6194	-672
2880910	6288	5052	-709
2881238	6737	3546	-433
2881566	5260	2228	629
2881894	3106	2848	657
2882222	1512	4059	571
2882550	96	4002	409
2882878	-389	3327	236
2883206	-699	3089	40
2883534	-996	3666	-5
2883862	-762	4221	-79
2884190	-577	3755	-113
2884518	-252	2913	-154
2884846	32	2785	-114
2885174	78	2884	-55
2885502	239	3076	58
2885830	242	2559	230
2886158	145	1258	487
2886486	-50	529	534
2886814	-69	1468	479
2887142	-390	2816	314
2887470	-471	3044	165
2887798	-782	2418	47
2888126	-437	2136	-20
2888454	-763	2368	95
2888782	-1090	1992	118
2889110	-1405	1707	209
2889438	-1383	1600	238
2889766	-1433	1438	163
2890094	-1445	1294	114
2890422	-1721	1400	7
2890750	-1741	1454	-150
2891078	-2109	1528	-298
2891406	-2712	1780	-613
2891734	-3451	1931	-971
2892062	-4493	2342	-1519
2892390	-5404	3024	-2183
2892718	-5854	3535	-2744
2893046	-6774	3523	-3057
2893374	-7802	3381	-3411
2893702	-8894	3836	-3881
2894030	-9289	4319	-4231
2894358	-9716	4728	-4578
2894686	-10038	5079	-4806
2895014	-10100	5406	-4913
2895342	-9963	5563	-4825
2895670	-9388	5544	-4907
2895998	-8875	5597	-4923
2896326	-8372	5608	-4766
2896654	-7530	5511	-4535
2896982	-6702	5340	-4126
2897310	-5424	4807	-3559
2897638	-3890	3782	-2813
2897966	-2300	2699	-1934
2898294	-615	2160	-808
2898622	1647	1852	903
2898950	2899	597	2139
2899278	4353	-335	2446
2899606	6225	1527	1809
2899934	7297	3536	913
2900262	7493	3408	126
2900590	7358	2831	-733
2900918	6457	2088	-1083
2901246	4076	1486	-1279
2901574	879	2410	-537
2901902	-1994	2838	338
2902230	-3874	1892	514
2902558	-3768	893	128
2902886	-2699	1055	-480
2903214	-785	2044	-824
2903542	803	2434	-845
2903870	1993	2268	-914
2904198	2640	1891	-969
2904526	2728	1773	-944
2904854	2170	1906	-752
2905182	1001	2107	-610
2905510	-165	1918	-397
2905838	-1259	1554	-238
2906166	-1763	1339	-167
2906494	-2137	1392	-104
2906822	-2307	1587	-47
2907150	-2248	1659	-54
2907478	-2033	1535	-47
2907806	-1841	1434	-45
2908134	-1560	1540	-135
2908462	-1423	1712	-127
2908790	-1379	1905	-192
2909118	-1490	2172	-123
2909446	-1779	2225	20
2909774	-1928	2002	177
2910102	-2045	1763	325
2910430	-1925	1668	454
2910758	-1660	1630	621
2911086	-1521	1732	733
2911414	-1231	1833	860
2911742	-927	1741	906
2912070	-860	1724	925
2912398	-625	1868	969
2912726	-626	1849	1040
2913054	-836	1878	1129
2913382	-986	2003	1244
2913710	-1328	2103	1358
2914038	-1632	2193	1418
2914366	-1844	2149	1451
2914694	-2001	2221	1498
2915022	-2280	2323	1631
2915350	-2425	2211	1740
2915678	-2341	1939	1755
2916006	-2173	1914	1869
2916334	-2119	2009	1965
2916662	-2015	2016	2079
2916990	-1968	1977	2027
2917318	-2086	2103	1893
2917646	-2259	2384	1696
2917974	-2848	2457	1615
2918302	-3399	2047	1475
2918630	-3673	2098	1559
2918958	-3713	2114	1637
2919286	-3828	2086	1785
2919614	-3695	1749	2106
2919942	-3592	1354	2477
2920270	-3390	1170	2861
2920598	-3318	1029	3375
2920926	-3067	752	3825
2921254	-2496	534	4047
2921582	-1942	528	4171
2921910	-1248	687	4452
2922238	-952	1002	4730
2922566	-575	1069	4927
2922894	-517	1129	5088
2923222	-434	1426	5192
2923550	-689	1805	5473
2923878	-1587	2076	5750
2924206	-1748	3100	6454
2924534	-1748	4507	6606
2924862	-1287	4795	7005
2925190	-246	4301	7760
2925518	979	2280	7771
2925846	985	1885	7318
2926174	-404	3489	7372
2926502	-4	4240	7038
2926830	3	3856	6453
2927158	526	2668	5035
2927486	-1916	453	3481
2927814	6732	-1067	2638
2928142	5767	2604	3008
2928470	3657	8643	3186
2928798	4741	7784	1723
2929126	1722	2797	388
2929454	1822	565	-867
2929782	3409	-48	-1351
2930110	4564	-488	-2679
2930438	3996	-873	-5016
2930766	4106	-1662	-6957
2931094	2985	-2879	-8225
2931422	1922	-4414	-9029
2931750	1645	-5404	-9234
2932078	1477	-6749	-9541
2932406	2105	-8405	-10280
2932734	2600	-9724	-10544
2933062	2829	-10994	-10603
2933390	3024	-11946	-10556
2933718	3529	-13054	-10238
2934046	4050	-14551	-9866
2934374	4729	-15655	-9390
2934702	4957	-16065	-8971
2935030	4499	-16300	-8452
2935358	4748	-17090	-7963
2935686	4063	-18719	-7269
2936014	3275	-19842	-6838
2936342	2404	-20687	-6572
2936670	1632	-20931	-6232
2936998	2093	-20860	-5722
2937326	2495	-20433	-5670
2937654	3946	-20071	-5662
2937982	4683	-19196	-5061
2938310	5611	-18162	-4126
2938638	6073	-17281	-3359
2938966	6409	-17327	-3167
2939294	7440	-18650	-2409
2939622	7882	-19397	-1531
2939950	8404	-16008	-1547
2940278	10055	-12576	-1843
2940606	10335	-11620	-1180
2940934	10365	-10495	-791
2941262	10762	-8113	-584
2941590	10131	-6347	211
2941918	9352	-5083	718
2942246	7383	-3087	894
2942574	6302	-1197	1038
2942902	6095	-222	1215
2943230	5851	968	1441
2943558	6070	2342	1916
2943886	6147	3116	2388
2944214	6036	3127	2549
2944542	6176	2362	2418
2944870	5499	2129	2129
2945198	4375	2446	1649
2945526	3093	2416	1039
2945854	1386	2226	778
2946182	921	3377	17
2946510	945	4184	-555
2946838	963	5217	-680
2947166	2550	6543	-597
2947494	2603	6670	299
2947822	1282	4566	1406
2948150	295	4618	990
2948478	-701	4961	154
2948806	-1639	5249	-117
2949134	-2131	6555	-344
2949462	-2100	7695	-373
2949790	-1692	7136	-182
2950118	-1294	4847	172
2950446	-1016	2997	438
2950774	-404	2919	366
2951102	100	4071	374
2951430	-169	5099	184
2951758	-211	4897	-239
2952086	-228	4037	-483
2952414	-363	3490	-579
2952742	-562	3600	-440
2953070	-365	4099	-586
2953398	-467	3643	-685
2953726	-356	2940	-731
2954054	-153	2813	-656
2954382	-301	3192	-532
2954710	-477	3500	-435
2955038	-635	3149	-401
2955366	-405	2710	-400
2955694	174	2551	-402
2956022	425	2765	-319
2956350	981	3082	-201
2956678	1540	2949	-57
2957006	1895	2391	73
2957334	2317	2084	246
2957662	2649	2378	393
2957990	2664	2939	428
2958318	2502	2923	382
2958646	2483	2568	295
2958974	2354	2423	193
2959302	2473	2723	90
2959630	2014	3314	-39
2959958	1570	3308	-23
2960286	1209	2885	-66
2960614	1198	2564	-271
2960942	1375	2272	-305
2961270	1945	2098	-408
2961598	2165	2211	-435
2961926	2606	2111	-554
2962254	3023	1861	-669
2962582	3512	1882	-609
2962910	3710	1811	-583
2963238	3760	1481	-512
2963566	4060	1239	-360
2963894	4377	1095	-152
2964222	4353	749	-44
2964550	4750	472	196
2964878	4813	317	529
2965206	4840	232	839
2965534	4990	223	985
2965862	5270	199	1148
2966190	5000	233	1351
2966518	4924	-267	1480
2966846	4656	-710	1642
2967174	4693	-704	1789
2967502	4721	-941	1891
2967830	5172	-1148	1985
2968158	5749	-1208	2031
2968486	6159	-1255	2229
2968814	6668	-1384	2423
2969142	7330	-1752	2597
2969470	7636	-1974	2895
2969798	7922	-2044	3086
2970126	8107	-1997	3213
2970454	8276	-2082	3394
2970782	8332	-2583	3758
2971110	8611	-3524	4501
2971438	9259	-4540	5290
2971766	9958	-5123	6071
2972094	11048	-6135	6786
2972422	12971	-6817	7242
2972750	14257	-6718	7655
2973078	15778	-6282	7766
2973406	16718	-6665	7633
2973734	17573	-7061	7960
2974062	17310	-6934	8481
2974390	16790	-6999	8983
2974718	16230	-8019	9412
2975046	16024	-9342	9868
2975374	16170	-9708	10177
2975702	16724	-9362	10300
2976030	17479	-9465	10489
2976358	18127	-10083	10692
2976686	18710	-10676	10615
2977014	19522	-10960	10305
2977342	19581	-10364	10226
2977670	19130	-9898	10284
2977998	18588	-9988	10378
2978326	18319	-10070	10299
2978654	18035	-9941	10273
2978982	17396	-9679	10278
2979310	17286	-9208	10088
2979638	16795	-8392	9749
2979966	16143	-7506	9468
2980294	14951	-6939	9446
2980622	13786	-6766	9372
2980950	12648	-6713	9215
2981278	11941	-6288	9105
2981606	11551	-5583	9058
2981934	11232	-4945	9274
2982262	10547	-4387	9406
2982590	9627	-3397	9505
2982918	8561	-1736	9604
2983246	7078	83	9738
2983574	6031	1523	9800
2983902	5334	2442	10260
2984230	5391	1907	10554
2984558	1732	2452	10025
2984886	1423	3425	9571
2985214	8214	-3021	8618
2985542	8656	-4469	7047
2985870	9311	636	5911
2986198	10142	1321	5036
2986526	8318	-3596	3866
2986854	9513	-7029	3223
2987182	8652	-9279	1920
2987510	8640	-8830	668
2987838	8178	-9315	-945
2988166	7280	-10956	-2145
2988494	5955	-12870	-2754
2988822	4669	-13798	-3117
2989150	3563	-14604	-3716
2989478	2357	-15683	-4080
2989806	1237	-16622	-4214
2990134	1572	-17788	-4388
2990462	1722	-18211	-4577
2990790	2113	-18312	-4633
2991118	3490	-18863	-4564
2991446	4802	-20302	-4729
2991774	6026	-21972	-4968
2992102	7221	-22737	-5437
2992430	7552	-22739	-5971
2992758	8335	-22516	-6455
2993086	8965	-22514	-6795
2993414	8077	-21935	-6679
2993742	7937	-20265	-6202
2994070	6780	-18168	-5378
2994398	4447	-16416	-4877
2994726	846	-15480	-4032
2995054	-740	-15528	-3071
2995382	-223	-16650	-2256
2995710	-2522	-16454	-1941
2996038	-1357	-14106	-1775
2996366	246	-10032	-2520
2996694	2702	-6204	-1184
2997022	5933	-3846	-555
2997350	8104	-2945	1318
2997678	8792	-1752	2289
2998006	8245	612	2709
2998334	7863	3540	3226
2998662	7691	5682	3174
2998990	8469	8175	3057
2999318	7259	9480	2243
2999646	5624	8042	1808
2999974	2681	5895	711
3000302	1165	6158	-679
3000630	480	6825	-488
3000958	773	6414	-334
3001286	1258	4232	903
3001614	598	3677	2761
3001942	3057	2665	2004
3002270	6037	2410	1659
3002598	7471	3841	1352
3002926	6444	6237	390
3003254	4752	7072	151
3003582	3279	5075	-239
3003910	1277	2592	-281
3004238	565	2460	-219
3004566	-19	2900	-160
3004894	30	3399	-94
3005222	582	2837	-72
3005550	1362	1594	-381
3005878	1477	1494	-379
3006206	1651	1806	-28
3006534	1444	1194	205
3006862	1291	614	74
3007190	1079	695	143
3007518	862	871	47
3007846	820	774	8
3008174	542	880	53
3008502	356	1127	135
3008830	25	892	240
3009158	-128	278	370
3009486	-162	-61	443
3009814	8	-189	496
3010142	238	-513	488
3010470	598	-807	391
3010798	721	-766	391
3011126	550	-732	425
3011454	129	-1097	455
3011782	68	-1590	350
3012110	201	-1788	260
3012438	249	-1701	196
3012766	-196	-1670	165
3013094	-485	-1868	20
3013422	-754	-2122	-92
3013750	-888	-2390	-220
3014078	-1076	-2521	-488
3014406	-1042	-2641	-727
3014734	-1450	-2971	-852
3015062	-1677	-3331	-1019
3015390	-1955	-3509	-1285
3015718	-2424	-3817	-1577
3016046	-3011	-4118	-1876
3016374	-3224	-4220	-2148
3016702	-3798	-4244	-2480
3017030	-4563	-4134	-2805
3017358	-5105	-3991	-3293
3017686	-5809	-4093	-3369
3018014	-7308	-4038	-4165
3018342	-7155	-3856	-4880
3018670	-7589	-4036	-4944
3018998	-9903	-4823	-4935
3019326	-10312	-5731	-5067
3019654	-11568	-5926	-4644
3019982	-12121	-4829	-4073
3020310	-12074	-2624	-3928
3020638	-11995	-344	-2280
3020966	-13310	1711	-1580
3021294	-15371	3675	-205
3021622	-17302	5965	1267
3021950	-18649	9470	2755
3022278	-17818	12962	3761
3022606	-16268	14242	4761
3022934	-13356	14198	5895
3023262	-10414	14363	7128
3023590	-7419	13730	8188
3023918	-5183	12785	8889
3024246	-4602	13326	8974
3024574	-4875	14066	8690
3024902	-4832	14724	7500
3025230	-5867	15493	6884
3025558	-7988	13722	8003
3025886	-7082	11914	7678
3026214	-8501	12355	7809
3026542	-8530	11886	7970
3026870	-8215	10223	7251
3027198	-8629	9358	6728
3027526	-8571	9640	5681
3027854	-8741	9987	4472
3028182	-9361	9670	2955
3028510	-9960	9612	1514
3028838	-11005	9558	231
3029166	-12158	9554	-832
3029494	-13289	9863	-1887
3029822	-14549	10212	-2841
3030150	-14703	9820	-2778
3030478	-14146	9645	-2115
3030806	-12970	8406	-1715
3031134	-11840	7585	-1951
3031462	-10229	8031	-2123
3031790	-7536	7295	-2667
3032118	-5680	5408	-3484
3032446	-3898	2788	-4162
3032774	-2254	405	-4852
3033102	-1695	844	-5130
3033430	-2036	3833	-4933
3033758	-2015	8378	-3185
3034086	568	6217	1058
3034414	-2984	-5915	2753
3034742	1425	-5124	1369
3035070	3571	-668	-963
3035398	6390	2670	-1407
3035726	8827	5466	-3049
3036054	8308	4586	-3348
3036382	127	1368	-1050
3036710	-3568	819	-338
3037038	-3695	893	-337
3037366	-1971	492	-670
3037694	-815	651	-435
3038022	927	1228	-127
3038350	1572	978	201
3038678	1614	499	-1
3039006	1296	650	55
3039334	715	1003	142
3039662	-176	1242	299
3039990	-788	1249	523
3040318	-1301	1266	608
3040646	-1561	1387	726
3040974	-1397	1451	768
3041302	-1257	1368	818
3041630	-1383	1701	813
3041958	-1783	2253	793
3042286	-2514	2316	792
3042614	-3230	2148	683
3042942	-3869	2148	580
3043270	-4168	2397	569
3043598	-4592	2592	377
3043926	-4806	2861	196
3044254	-5067	3111	167
3044582	-5486	3144	108
3044910	-5711	2904	184
3045238	-6245	2877	142
3045566	-6432	3422	415
3045894	-6723	3682	539
3046222	-7004	3203	791
3046550	-7191	2744	968
3046878	-6803	2223	1293
3047206	-7027	2296	1536
3047534	-6775	2670	1953
3047862	-6945	2651	1534
3048190	-7134	2671	1875
3048518	-7636	2948	1866
3048846	-8567	3517	1761
3049174	-10087	3926	1346
3049502	-11480	4057	658
3049830	-12997	3647	524
3050158	-14031	2394	662
3050486	-14383	1911	730
3050814	-14301	1731	492
3051142	-13792	1055	488
3051470	-13875	-314	383
3051798	-13995	-605	588
3052126	-13607	-628	665
3052454	-13196	-1403	898
3052782	-11746	-1722	1062
3053110	-9651	-1347	1398
3053438	-6735	-788	1612
3053766	-3494	-666	1666
3054094	-142	-157	1392
3054422	2335	133	1362
3054750	3018	13	1096
3055078	2611	227	1239
3055406	1689	1312	1317
3055734	170	1987	1763
3056062	-1289	1745	1500
3056390	-1929	1454	1341
3056718	-1636	1079	1132
3057046	-1232	465	1101
3057374	-823	-150	1174
3057702	-322	-357	995
3058030	-447	-135	780
3058358	-483	-24	615
3058686	-627	122	651
3059014	-811	-158	438
3059342	-884	28	401
3059670	-644	52	331
3059998	-557	-78	167
3060326	-284	-67	170
3060654	-223	-225	125
3060982	-372	-231	137
3061310	-682	34	175
3061638	-923	158	94
3061966	-845	-153	20
3062294	-680	-134	-37
3062622	-340	224	-93
3062950	-139	256	-156
3063278	143	101	-243
3063606	407	-42	-235
3063934	728	120	-239
3064262	835	281	-259
3064590	1002	328	-308
3064918	1361	217	-354
3065246	1533	-17	-417
3065574	1764	58	-400
3065902	2165	218	-309
3066230	2467	68	-222
3066558	2574	135	-194
3066886	2706	170	-211
3067214	2910	4	-347
3067542	3154	-184	-494
3067870	3415	-281	-576
3068198	3469	-402	-704
3068526	3318	-414	-849
3068854	3063	-321	-975
3069182	2752	-95	-1107
3069510	2491	103	-1272
3069838	2394	236	-1481
3070166	2335	239	-1755
3070494	2121	340	-2094
3070822	1662	699	-2409
3071150	1141	1048	-2633
3071478	686	1219	-3104
3071806	-4	1357	-3330
3072134	-389	1486	-3407
3072462	-511	1742	-3206
3072790	225	1374	-3040
3073118	1328	616	-2488
3073446	2601	-658	-2666
3073774	4827	-1816	-3266
3074102	6848	-1053	-3489
3074430	7843	898	-3181
3074758	7300	1574	-2811
3075086	5966	664	-2651
3075414	4519	267	-2669
3075742	2535	958	-2543
3076070	1372	1404	-2373
3076398	1005	1568	-2124
3076726	1269	1177	-2073
3077054	1559	693	-1781
3077382	1523	745	-1570
3077710	909	922	-1110
3078038	394	774	-1011
3078366	189	285	-1001
3078694	619	-37	-1023
3079022	933	47	-996
3079350	1412	99	-949
3079678	1654	-36	-803
3080006	1874	-411	-674
3080334	2097	-849	-477
3080662	2196	-821	-299
3080990	2048	-604	-224
3081318	2057	-719	-174
3081646	1815	-894	-59
3081974	1606	-695	28
3082302	1407	-498	225
3082630	1340	-612	324
3082958	1288	-757	381
3083286	1410	-542	420
3083614	1469	-42	589
3083942	1714	-57	682
3084270	1714	-559	674
3084598	1671	-945	844
3084926	1344	-708	999
3085254	962	-437	1206
3085582	763	-404	1522
3085910	818	-722	1729
3086238	1188	-939	1984
3086566	1798	-945	2365
3086894	2226	-962	2907
3087222	2614	-908	3345
3087550	2969	-597	3800
3087878	3447	-317	4240
3088206	3525	-113	4703
3088534	3304	237	5154
3088862	2993	808	5651
3089190	2663	1134	5981
3089518	2759	1152	6450
3089846	3294	879	6992
3090174	4120	360	7825
3090502	4592	398	8537
3090830	4857	979	8977
3091158	5750	1584	9165
3091486	6926	1581	9430
3091814	3847	2699	8762
3092142	4051	2639	8270
3092470	10603	-3640	7405
3092798	11108	-6471	6110
3093126	9969	-3698	4265
3093454	11778	-315	2951
3093782	11808	-387	2536
3094110	9813	-3419	1756
3094438	9644	-5791	664
3094766	10434	-6490	-802
3095094	9956	-6216	-2199
3095422	9236	-5897	-4055
3095750	8929	-5781	-4929
3096078	7375	-6386	-5537
3096406	4263	-9345	-6544
3096734	3102	-10833	-6858
3097062	2301	-11411	-7042
3097390	2172	-11849	-7125
3097718	2695	-12427	-7062
3098046	2985	-12501	-7054
3098374	1976	-11457	-6556
3098702	2498	-11274	-6023
3099030	2526	-12119	-5746
3099358	2782	-12452	-5614
3099686	3993	-12249	-5552
3100014	4646	-12417	-5610
3100342	4680	-12625	-6002
3100670	4979	-12156	-6308
3100998	5237	-11231	-6435
3101326	5286	-10643	-6479
