Time Stamp	Gyroscope X	Gyroscope Y	Gyroscope Z
RAW	RAW	RAW	RAW
no units	no units	no units	no units
11433009	-64	109	18
11433337	-50	119	6
11433665	-29	117	-1
11433993	-34	114	-5
11434321	-40	117	1
11434649	-66	114	4
11434977	-68	114	12
11435305	-73	120	-5
11435633	-62	109	0
11435961	-71	109	-11
11436289	-60	93	-13
11436617	-80	86	16
11436945	-81	110	8
11437273	-90	95	-11
11437601	-86	114	2
11437929	-107	104	8
11438257	-115	101	0
11438585	-123	91	-4
11438913	-122	120	-1
11439241	-98	97	-1
11439569	-112	105	-11
11439897	-107	110	-11
11440225	-112	105	-21
11440553	-114	102	-8
11440881	-116	115	-17
11441209	-95	121	-6
11441537	-74	111	8
11441865	-54	117	0
11442193	-70	118	0
11442521	-68	128	-15
11442849	-85	135	-6
11443177	-117	119	-7
11443505	-117	113	12
11443833	-119	137	-11
11444161	-102	129	-10
11444489	-89	136	-21
11444817	-74	139	-7
11445145	-70	127	-16
11445473	-70	134	-9
11445801	-80	134	-7
11446129	-65	143	-7
11446457	-62	131	-13
11446785	-65	131	-10
11447113	-42	134	-4
11447441	-37	125	-3
11447769	-63	137	-9
11448097	-50	130	-7
11448425	-56	141	-12
11448753	-58	120	-23
11449081	-61	124	-27
11449409	-64	130	-17
11449737	-72	129	-20
11450065	-84	119	-8
11450393	-81	139	-16
11450721	-89	132	-18
11451049	-78	118	-8
11451377	-79	126	-22
11451705	-79	132	-2
11452033	-79	115	-9
11452361	-84	107	-1
11452689	-63	115	6
11453017	-56	127	1
11453345	-42	109	10
11453673	-16	142	-18
11454001	-28	130	-12
11454329	-38	136	0
11454657	-46	131	-16
11454985	-61	143	-9
11455313	-60	136	-14
11455641	-68	133	-11
11455969	-69	136	-13
11456297	-62	137	-11
11456625	-49	140	-6
11456953	-54	124	-4
11457281	-54	124	-3
11457609	-54	124	-6
11457937	-51	121	-8
11458265	-64	129	-7
11458593	-80	127	-8
11458921	-63	122	0
11459249	-77	116	7
11459577	-73	117	1
11459905	-82	111	-9
11460233	-80	109	-2
11460561	-82	107	13
11460889	-91	102	11
11461217	-116	118	8
11461545	-103	94	4
11461873	-94	97	-7
11462201	-97	113	-6
11462529	-93	109	5
11462857	-66	101	21
11463185	-73	115	8
11463513	-81	105	-8
11463841	-80	118	14
11464169	-100	123	7
11464497	-111	117	-7
11464825	-114	118	-14
11465153	-111	125	-13
11465481	-98	121	-4
11465809	-97	115	2
11466137	-87	111	-14
11466465	-90	113	-15
11466793	-100	122	-9
11467121	-96	113	-16
11467449	-105	127	-15
11467777	-97	133	-8
11468105	-93	124	-11
11468433	-76	125	-12
11468761	-80	127	-25
11469089	-67	127	-30
11469417	-89	155	-19
11469745	-89	137	-19
11470073	-88	132	-9
11470401	-93	140	-20
11470729	-86	132	-22
11471057	-69	125	-33
11471385	-51	139	-16
11471713	-46	137	-29
11472041	-48	150	-33
11472369	-73	130	-14
11472697	-63	124	-6
11473025	-68	129	-27
11473353	-51	125	-19
11473681	-70	131	-40
11474009	-58	138	-34
11474337	-61	122	-29
11474665	-63	127	-35
11474993	-72	139	-34
11475321	-59	127	-35
11475649	-76	136	-41
11475977	-63	125	-26
11476305	-81	131	-16
11476633	-67	137	-18
11476961	-50	137	-9
11477289	-58	134	-17
11477617	-24	128	-23
11477945	-29	137	-14
11478273	-19	134	-20
11478601	-42	133	-17
11478929	-49	140	-8
11479257	-52	151	-20
11479585	-40	151	-14
11479913	-47	131	-22
11480241	-58	145	-32
11480569	-30	148	-32
11480897	-36	133	-36
11481225	-42	132	-42
11481553	-59	139	-38
11481881	-74	146	-40
11482209	-80	142	-37
11482537	-83	118	-45
11482865	-86	133	-43
11483193	-68	136	-32
11483521	-75	122	-33
11483849	-59	115	-37
11484177	-53	128	-33
11484505	-60	136	-28
11484833	-68	133	-35
11485161	-80	123	-33
11485489	-84	122	-26
11485817	-82	118	-18
11486145	-82	130	-15
11486473	-49	138	-21
11486801	-49	126	-27
11487129	-45	130	-38
11487457	-49	126	-36
11487785	-54	136	-28
11488113	-65	148	-40
11488441	-67	129	-57
11488769	-81	136	-48
11489097	-91	148	-58
11489425	-94	129	-61
11489753	-86	141	-50
11490081	-105	146	-59
11490409	-80	142	-54
11490737	-88	148	-54
11491065	-80	139	-58
11491393	-73	142	-57
11491721	-89	131	-63
11492049	-91	135	-53
11492377	-85	150	-49
11492705	-77	137	-53
11493033	-77	145	-49
11493361	-77	145	-49
11493689	-67	165	-49
11494017	-67	139	-32
11494345	-72	136	-49
11494673	-85	139	-49
11495001	-107	154	-45
11495329	-99	147	-57
11495657	-98	140	-56
11495985	-99	139	-49
11496313	-69	146	-51
11496641	-46	153	-60
11496969	-37	152	-47
11497297	-30	154	-50
11497625	-38	164	-55
11497953	-26	162	-46
11498281	-26	165	-50
11498609	-17	157	-63
11498937	-25	157	-59
11499265	-39	146	-65
11499593	-59	146	-49
11499921	-58	141	-53
11500249	-57	137	-40
11500577	-55	161	-61
11500905	-50	142	-55
11501233	-63	166	-61
11501561	-62	157	-68
11501889	-75	152	-58
11502217	-98	156	-53
11502545	-65	146	-50
11502873	-53	141	-50
11503201	-49	134	-54
11503529	-55	143	-58
11503857	-52	141	-32
11504185	-64	142	-38
11504513	-62	158	-36
11504841	-54	137	-43
11505169	-66	133	-28
11505497	-57	136	-43
11505825	-39	135	-28
11506153	-40	147	-33
11506481	-36	146	-33
11506809	-57	151	-36
11507137	-31	154	-44
11507465	-41	136	-41
11507793	-38	141	-47
11508121	-52	142	-43
11508449	-62	139	-48
11508777	-57	143	-46
11509105	-68	147	-52
11509433	-67	151	-44
11509761	-49	145	-56
11510089	-56	127	-47
11510417	-55	132	-39
11510745	-56	144	-51
11511073	-51	144	-40
11511401	-39	140	-55
11511729	-27	134	-35
11512057	-37	148	-33
11512385	-38	132	-37
11512713	-55	131	-18
11513041	-51	142	-23
11513369	-66	148	-38
11513697	-59	158	-40
11514025	-58	154	-46
11514353	-59	148	-44
11514681	-74	144	-40
11515009	-79	153	-31
11515337	-67	140	-44
11515665	-82	137	-41
11515993	-68	145	-41
11516321	-45	151	-42
11516649	-55	136	-56
11516977	-52	138	-62
11517305	-60	148	-65
11517633	-70	127	-55
11517961	-82	138	-44
11518289	-73	140	-52
11518617	-57	129	-35
11518945	-66	154	-36
11519273	-56	134	-40
11519601	-58	150	-32
11519929	-67	146	-26
11520257	-71	144	-13
11520585	-72	141	-21
11520913	-47	131	-12
11521241	-65	125	-11
11521569	-69	127	-17
11521897	-72	126	-7
11522225	-73	140	0
11522553	-62	121	-5
11522881	-46	135	-14
11523209	-42	126	-9
11523537	-37	137	-5
11523865	-55	137	-7
11524193	-37	138	-28
11524521	-24	147	-15
11524849	0	153	-8
11525177	2	156	-19
11525505	-3	151	-18
11525833	-7	141	-26
11526161	-18	143	-8
11526489	-28	135	-30
11526817	-37	146	-16
11527145	-56	132	-20
11527473	-54	130	-39
11527801	-61	135	-39
11528129	-81	120	-26
11528457	-104	117	-25
11528785	-115	123	-28
11529113	-116	130	-23
11529441	-110	134	-33
11529769	-97	124	-32
11530097	-101	126	-30
11530425	-103	128	-44
11530753	-115	116	-28
11531081	-94	134	-44
11531409	-75	131	-38
11531737	-58	130	-39
11532065	-48	129	-29
11532393	-57	123	-49
11532721	-35	120	-23
11533049	-52	115	-28
11533377	-58	119	-31
11533705	-37	124	-32
11534033	-46	111	-28
11534361	-41	111	-17
11534689	-40	127	-16
11535017	-9	117	-12
11535345	-31	109	-13
11535673	-25	106	-9
11536001	-34	120	-3
11536329	-44	115	-27
11536657	-70	100	-10
11536985	-81	108	-12
11537313	-93	118	-16
11537641	-77	114	-20
11537969	-64	105	-6
11538297	-56	107	-25
11538625	-66	104	-15
11538953	-73	107	-32
11539281	-76	102	-13
11539609	-69	111	-37
11539937	-58	129	-34
11540265	-74	115	-46
11540593	-41	107	-28
11540921	-42	112	-18
11541249	-55	107	-23
11541577	-57	115	-23
11541905	-46	113	-15
11542233	-55	123	-18
11542561	-57	105	-19
11542889	-46	102	-20
11543217	-48	104	-14
11543545	-54	108	-16
11543873	-53	117	-24
11544201	-54	111	-19
11544529	-63	121	-27
11544857	-54	117	-29
11545185	-61	121	-17
11545513	-68	109	-33
11545841	-79	123	-28
11546169	-65	129	-28
11546497	-46	133	-26
11546825	-47	127	-48
11547153	-32	127	-34
11547481	-42	136	-29
11547809	-64	120	-40
11548137	-69	141	-45
11548465	-67	137	-33
11548793	-62	125	-43
11549121	-58	126	-36
11549449	-61	126	-28
11549777	-78	141	-34
11550105	-82	135	-25
11550433	-81	137	-35
11550761	-72	130	-29
11551089	-61	120	-32
11551417	-51	127	-19
11551745	-68	135	-22
11552073	-65	125	-22
11552401	-61	117	-21
11552729	-66	118	-26
11553057	-71	121	-32
11553385	-54	122	-25
11553713	-65	136	-37
11554041	-71	129	-34
11554369	-79	129	-32
11554697	-64	142	-22
11555025	-68	120	-31
11555353	-79	136	-28
11555681	-55	131	-24
11556009	-59	126	-33
11556337	-53	127	-30
11556665	-49	143	-25
11556993	-62	129	-34
11557321	-59	117	-29
11557649	-41	127	-20
11557977	-46	141	-22
11558305	-48	134	-28
11558633	-58	127	-16
11558961	-65	122	-20
11559289	-59	131	-23
11559617	-54	130	-27
11559945	-74	144	-23
11560273	-68	141	-25
11560601	-70	134	-30
11560929	-73	138	-12
11561257	-91	130	-17
11561585	-90	113	-11
11561913	-74	111	3
11562241	-78	122	6
11562569	-85	105	3
11562897	-109	89	6
11563225	-128	89	16
11563553	-154	86	24
11563881	-178	105	32
11564209	-157	108	39
11564537	-131	125	35
11564865	-101	108	60
11565193	-64	125	53
11565521	-17	143	64
11565849	17	141	56
11566177	41	129	73
11566505	57	127	73
11566833	73	153	88
11567161	81	142	71
11567489	98	153	88
11567817	133	185	93
11568145	156	164	82
11568473	208	181	78
11568801	223	177	82
11569129	231	180	75
11569457	222	173	75
11569785	206	182	52
11570113	151	191	44
11570441	121	169	38
11570769	75	166	62
11571097	49	190	43
11571425	27	154	49
11571753	10	168	30
11572081	15	175	33
11572409	20	163	26
11572737	17	164	18
11573065	-1	174	16
11573393	-20	145	32
11573721	-60	162	22
11574049	-92	154	31
11574377	-119	158	48
11574705	-127	172	41
11575033	-121	166	34
11575361	-127	165	35
11575689	-132	176	50
11576017	-150	175	48
11576345	-172	182	56
11576673	-197	159	70
11577001	-217	160	61
11577329	-251	169	62
11577657	-258	169	68
11577985	-281	188	58
11578313	-300	176	75
11578641	-322	178	75
11578969	-320	174	77
11579297	-306	181	66
11579625	-293	183	64
11579953	-306	192	67
11580281	-295	182	83
11580609	-296	204	65
11580937	-322	192	84
11581265	-324	199	93
11581593	-348	193	89
11581921	-326	190	94
11582249	-331	176	99
11582577	-347	168	94
11582905	-365	190	104
11583233	-377	159	104
11583561	-384	202	98
11583889	-387	170	103
11584217	-382	193	99
11584545	-375	187	124
11584873	-354	179	119
11585201	-337	203	116
11585529	-342	190	115
11585857	-304	191	109
11586185	-321	183	118
11586513	-309	169	95
11586841	-288	222	85
11587169	-270	195	76
11587497	-238	208	73
11587825	-248	216	81
11588153	-218	185	100
11588481	-201	195	90
11588809	-196	202	63
11589137	-194	207	53
11589465	-184	201	56
11589793	-172	213	60
11590121	-165	205	52
11590449	-149	216	23
11590777	-157	220	30
11591105	-145	228	26
11591433	-134	231	14
11591761	-125	220	12
11592089	-150	233	3
11592417	-149	222	1
11592745	-156	213	11
11593073	-160	228	15
11593401	-147	217	-2
11593729	-120	213	2
11594057	-91	224	-11
11594385	-81	211	-31
11594713	-93	219	-17
11595041	-106	194	-22
11595369	-128	209	-13
11595697	-130	188	-15
11596025	-103	209	0
11596353	-105	185	-23
11596681	-106	191	-28
11597009	-93	190	-3
11597337	-104	182	-8
11597665	-85	175	-18
11597993	-120	182	-4
11598321	-127	183	3
11598649	-131	178	2
11598977	-125	172	-3
11599305	-111	172	5
11599633	-110	175	-15
11599961	-94	170	-5
11600289	-101	162	-3
11600617	-99	166	-18
11600945	-101	165	-16
11601273	-93	166	-23
11601601	-104	151	-9
11601929	-106	149	-27
11602257	-114	152	-34
11602585	-107	146	-32
11602913	-120	137	-25
11603241	-125	133	-31
11603569	-120	157	-46
11603897	-112	146	-53
11604225	-100	153	-59
11604553	-85	140	-63
11604881	-94	131	-54
11605209	-72	133	-53
11605537	-92	138	-57
11605865	-88	135	-35
11606193	-54	136	-51
11606521	-68	138	-54
11606849	-68	133	-50
11607177	-61	132	-37
11607505	-83	142	-41
11607833	-70	110	-52
11608161	-87	125	-46
11608489	-73	124	-47
11608817	-78	120	-56
11609145	-81	121	-51
11609473	-82	135	-57
11609801	-97	125	-56
11610129	-75	135	-46
11610457	-63	102	-53
11610785	-47	139	-61
11611113	-37	108	-46
11611441	-36	119	-54
11611769	-50	98	-74
11612097	-61	104	-54
11612425	-53	123	-51
11612753	-55	109	-37
11613081	-58	117	-51
11613409	-50	125	-63
11613737	-55	114	-51
11614065	-64	128	-69
11614393	-69	120	-66
11614721	-58	136	-72
11615049	-37	125	-65
11615377	-55	132	-86
11615705	-39	122	-82
11616033	-35	131	-71
11616361	-48	132	-78
11616689	-58	114	-64
11617017	-44	134	-64
11617345	-23	129	-72
11617673	-17	137	-68
11618001	-21	120	-61
11618329	-37	144	-72
11618657	-31	131	-54
11618985	-47	123	-69
11619313	-34	125	-61
11619641	-47	127	-67
11619969	-43	122	-62
11620297	-51	116	-72
11620625	-60	125	-72
11620953	-65	130	-72
11621281	-66	130	-76
11621609	-73	129	-69
11621937	-63	122	-66
11622265	-56	146	-80
11622593	-45	128	-85
11622921	-66	138	-73
11623249	-50	136	-63
11623577	-49	128	-67
11623905	-56	153	-68
11624233	-49	137	-63
11624561	-50	140	-69
11624889	-43	124	-72
11625217	-54	150	-73
11625545	-60	140	-57
11625873	-72	123	-53
11626201	-58	146	-73
11626529	-70	127	-55
11626857	-43	143	-57
11627185	-71	146	-54
11627513	-62	138	-57
11627841	-55	139	-66
11628169	-44	150	-61
11628497	-56	148	-71
11628825	-73	138	-49
11629153	-65	143	-58
11629481	-71	133	-61
11629809	-69	133	-46
11630137	-54	135	-41
11630465	-53	131	-51
11630793	-43	140	-33
11631121	-50	144	-50
11631449	-56	136	-45
11631777	-58	134	-52
11632105	-69	125	-40
11632433	-89	132	-46
11632761	-80	131	-36
11633089	-81	135	-33
11633417	-91	132	-50
11633745	-79	128	-41
11634073	-84	123	-33
11634401	-77	138	-33
11634729	-64	144	-39
11635057	-67	131	-34
11635385	-55	141	-40
11635713	-51	143	-26
11636041	-53	144	-11
11636369	-44	150	-32
11636697	-54	149	-43
11637025	-52	146	-20
11637353	-66	139	-23
11637681	-49	151	-30
11638009	-47	139	-27
11638337	-50	137	-30
11638665	-48	134	-27
11638993	-58	141	-33
11639321	-58	144	-24
11639649	-70	147	-21
11639977	-71	144	-27
11640305	-60	138	-33
11640633	-57	137	-28
11640961	-71	142	-15
11641289	-97	140	-18
11641617	-68	132	-20
11641945	-54	145	-27
11642273	-45	143	-30
11642601	-47	125	-22
11642929	-40	136	-26
11643257	-48	140	-23
11643585	-41	133	-23
11643913	-48	138	-27
11644241	-61	150	-24
11644569	-46	135	-28
11644897	-45	146	-20
11645225	-62	156	-15
11645553	-57	134	-23
11645881	-48	156	-23
11646209	-69	144	-30
11646537	-66	140	-25
11646865	-75	136	-28
11647193	-68	142	-38
11647521	-60	144	-29
11647849	-55	139	-34
11648177	-56	139	-25
11648505	-57	158	-26
11648833	-51	132	-25
11649161	-57	152	-38
11649489	-65	125	-36
11649817	-61	142	-40
11650145	-78	138	-31
11650473	-87	128	-36
11650801	-60	117	-26
11651129	-49	127	-36
11651457	-25	136	-19
11651785	-24	139	-29
11652113	-46	132	-26
11652441	-50	134	-33
11652769	-51	131	-20
11653097	-67	120	-23
11653425	-56	134	-27
11653753	-61	131	-29
11654081	-63	134	-25
11654409	-62	129	-22
11654737	-62	133	-30
11655065	-68	119	-34
11655393	-76	120	-34
11655721	-90	121	-29
11656049	-82	124	-26
11656377	-84	111	-28
11656705	-75	109	-20
11657033	-101	124	-20
11657361	-69	121	-37
11657689	-84	122	-33
11658017	-75	133	-27
11658345	-67	138	-32
11658673	-61	116	-21
11659001	-64	121	-22
11659329	-62	136	-27
11659657	-70	128	-40
11659985	-71	132	-24
11660313	-70	125	-26
11660641	-56	126	-24
11660969	-45	121	-31
11661297	-34	130	-26
11661625	-44	122	-10
11661953	-46	122	-14
11662281	-44	115	-15
11662609	-57	115	-17
11662937	-43	114	-28
11663265	-63	123	-34
11663593	-52	122	-19
11663921	-55	117	-19
11664249	-62	104	-25
11664577	-71	122	-13
11664905	-74	125	-24
11665233	-58	115	-26
11665561	-41	129	-22
11665889	-50	102	-23
11666217	-44	106	-26
11666545	-58	110	-11
11666873	-60	122	-15
11667201	-54	135	-25
11667529	-55	121	-28
11667857	-46	117	-22
11668185	-42	109	-15
11668513	-44	135	-25
11668841	-28	118	-20
11669169	-32	130	-35
11669497	-48	117	-19
11669825	-56	126	-26
11670153	-59	138	-29
11670481	-48	138	-19
11670809	-18	127	-18
11671137	-36	136	-26
11671465	-42	112	-28
11671793	-56	121	-16
11672121	-49	116	-9
11672449	-58	122	-25
11672777	-68	131	-13
11673105	-66	121	-17
11673433	-67	126	-16
11673761	-53	111	-16
11674089	-44	120	-20
11674417	-51	123	-21
11674745	-50	133	-26
11675073	-41	127	-27
11675401	-59	139	-21
11675729	-61	136	-23
11676057	-53	116	-41
11676385	-64	140	-39
11676713	-51	132	-27
11677041	-53	129	-18
11677369	-39	114	-34
11677697	-41	139	-46
11678025	-52	122	-31
11678353	-68	117	-43
11678681	-102	127	-37
11679009	-81	123	-37
11679337	-91	125	-36
11679665	-76	131	-39
11679993	-76	139	-36
11680321	-71	130	-39
11680649	-58	134	-48
11680977	-58	153	-42
11681305	-71	141	-47
11681633	-55	140	-51
11681961	-63	150	-39
11682289	-43	132	-41
11682617	-40	145	-49
11682945	-51	144	-55
11683273	-48	146	-46
11683601	-37	135	-43
11683929	-47	146	-35
11684257	-43	138	-40
11684585	-56	152	-50
11684913	-50	145	-47
11685241	-65	142	-40
11685569	-77	137	-43
11685897	-69	133	-47
11686225	-79	135	-58
11686553	-87	138	-46
11686881	-47	115	-32
11687209	-83	134	-34
11687537	-89	122	-50
11687865	-92	126	-42
11688193	-92	130	-41
11688521	-88	142	-40
11688849	-83	127	-30
11689177	-90	134	-34
11689505	-88	117	-28
11689833	-96	131	-25
11690161	-87	125	-13
11690489	-75	130	-31
11690817	-66	131	-29
11691145	-42	139	-21
11691473	-63	144	-29
11691801	-46	138	-12
11692129	-61	118	-23
11692457	-80	121	-20
11692785	-82	128	2
11693113	-62	119	-6
11693441	-59	120	-7
11693769	-79	127	-18
11694097	-53	120	-16
11694425	-58	111	-6
11694753	-52	119	-14
11695081	-69	133	-20
11695409	-79	119	-17
11695737	-66	122	-3
11696065	-74	117	-18
11696393	-65	115	-9
11696721	-44	105	-25
11697049	-41	115	-19
11697377	-52	119	-11
11697705	-75	112	-20
11698033	-97	103	-19
11698361	-90	114	-5
11698689	-81	109	-7
11699017	-57	116	-24
11699345	-54	115	-17
11699673	-61	117	-8
11700001	-61	110	-12
11700329	-88	120	-17
11700657	-92	117	-11
11700985	-92	110	-18
11701313	-72	120	-13
11701641	-62	110	-11
11701969	-65	113	-13
11702297	-58	121	-16
11702625	-61	123	1
11702953	-46	120	-19
11703281	-43	117	-22
11703609	-44	119	-29
11703937	-56	133	-16
11704265	-61	134	-30
11704593	-85	126	-33
11704921	-65	141	-25
11705249	-69	141	-34
11705577	-58	138	-46
11705905	-55	148	-21
11706233	-47	134	-26
11706561	-43	137	-30
11706889	-58	131	-25
11707217	-60	145	-35
11707545	-68	139	-27
11707873	-46	127	-29
11708201	-49	126	-25
11708529	-49	125	-32
11708857	-46	135	-22
11709185	-53	119	-21
11709513	-68	145	-18
11709841	-77	123	-25
11710169	-67	126	-22
11710497	-60	126	-28
11710825	-59	140	-10
11711153	-45	120	-13
11711481	-56	128	-20
11711809	-48	129	-15
11712137	-57	127	-40
11712465	-71	126	-34
11712793	-44	129	-32
11713121	-62	122	-13
11713449	-56	143	-30
11713777	-45	117	-24
11714105	-66	131	-32
11714433	-56	129	-27
11714761	-75	129	-28
11715089	-71	138	-31
11715417	-61	133	-22
11715745	-58	128	-19
11716073	-61	138	-42
11716401	-72	133	-25
11716729	-65	122	-16
11717057	-59	125	-27
11717385	-56	121	-21
11717713	-60	118	-27
11718041	-58	127	-25
11718369	-69	127	-26
11718697	-79	125	-54
11719025	-84	124	-36
11719353	-93	113	-33
11719681	-105	124	-50
11720009	-103	132	-42
11720337	-83	122	-56
11720665	-75	137	-75
11720993	-76	119	-65
11721321	-78	131	-54
11721649	-78	130	-51
11721977	-85	117	-54
11722305	-78	132	-56
11722633	-78	127	-56
11722961	-78	113	-38
11723289	-100	117	-39
11723617	-90	114	-20
11723945	-101	120	-17
11724273	-86	110	-14
11724601	-91	112	-1
11724929	-108	114	-4
11725257	-96	113	10
11725585	-72	116	23
11725913	-56	122	8
11726241	-38	119	6
11726569	-50	126	14
11726897	-62	137	16
11727225	-51	115	1
11727553	-62	139	-9
11727881	-56	123	-9
11728209	-57	138	-16
11728537	-65	127	-43
11728865	-76	133	-52
11729193	-89	131	-47
11729521	-98	130	-53
11729849	-98	131	-54
11730177	-105	118	-67
11730505	-90	135	-56
11730833	-89	116	-69
11731161	-121	125	-70
11731489	-129	124	-54
11731817	-118	131	-52
11732145	-127	139	-40
11732473	-118	106	-46
11732801	-95	133	-41
11733129	-84	117	-26
11733457	-70	123	-18
11733785	-82	121	-21
11734113	-81	139	-8
11734441	-81	113	-1
11734769	-72	133	4
11735097	-67	114	1
11735425	-59	146	-4
11735753	-60	137	4
11736081	-40	121	-13
11736409	-42	141	-8
11736737	-42	130	-17
11737065	-52	129	-19
11737393	-82	135	-35
11737721	-100	130	-37
11738049	-108	152	-30
11738377	-92	136	-44
11738705	-78	129	-42
11739033	-76	134	-38
11739361	-65	130	-44
11739689	-59	128	-44
11740017	-81	124	-40
11740345	-82	137	-35
11740673	-80	127	-44
11741001	-79	125	-41
11741329	-83	129	-18
11741657	-73	116	-17
11741985	-76	116	-21
11742313	-58	133	-15
11742641	-50	126	-13
11742969	-55	138	4
11743297	-44	126	1
11743625	-38	114	3
11743953	-30	114	-6
11744281	-36	127	6
11744609	-43	123	6
11744937	-43	122	0
11745265	-29	125	15
11745593	-29	119	2
11745921	-42	117	4
11746249	-49	126	-11
11746577	-62	108	-10
11746905	-68	119	-17
11747233	-64	122	-8
11747561	-73	112	-14
11747889	-65	99	-18
11748217	-58	123	-16
11748545	-65	121	-16
11748873	-39	124	-15
11749201	-55	115	-8
11749529	-57	114	-19
11749857	-60	142	-32
11750185	-86	129	-25
11750513	-73	122	-1
11750841	-82	126	10
11751169	-62	117	-13
11751497	-58	117	-7
11751825	-45	129	-19
11752153	-58	123	-14
11752481	-75	128	-13
11752809	-69	131	-10
11753137	-76	132	-6
11753465	-47	133	-15
11753793	-60	129	-20
11754121	-53	117	-19
11754449	-38	112	-1
11754777	-51	116	-12
11755105	-56	111	-8
11755433	-45	109	-15
11755761	-30	113	-8
11756089	-46	115	-9
11756417	-29	119	-33
11756745	-26	126	-31
11757073	-45	127	-30
11757401	-52	116	-25
11757729	-55	116	-22
11758057	-70	126	-18
11758385	-55	111	-14
11758713	-64	124	-41
11759041	-57	122	-35
11759369	-67	120	-22
11759697	-72	135	-27
11760025	-57	109	-20
11760353	-80	141	-38
11760681	-49	118	-42
11761009	-44	121	-26
11761337	-29	116	-22
11761665	-46	129	-38
11761993	-33	115	-43
11762321	-53	126	-35
11762649	-53	120	-31
11762977	-61	123	-23
11763305	-48	131	-30
11763633	-55	117	-30
11763961	-24	120	-35
11764289	-40	132	-30
11764617	-34	127	-46
11764945	-35	120	-41
11765273	-33	130	-47
11765601	-53	120	-33
11765929	-46	128	-24
11766257	-47	132	-27
11766585	-35	114	-51
11766913	-39	134	-48
11767241	-57	121	-37
11767569	-72	125	-41
11767897	-62	114	-36
11768225	-62	136	-54
11768553	-60	125	-46
11768881	-48	115	-41
11769209	-46	137	-52
11769537	-42	132	-42
11769865	-45	122	-37
11770193	-49	126	-50
11770521	-38	122	-33
11770849	-38	114	-45
11771177	-75	124	-39
11771505	-68	118	-41
11771833	-61	128	-49
11772161	-59	123	-42
11772489	-57	147	-50
11772817	-33	140	-55
11773145	-38	131	-47
11773473	-53	139	-57
11773801	-56	147	-58
11774129	-63	133	-64
11774457	-69	143	-61
11774785	-60	148	-57
11775113	-42	136	-60
11775441	-46	141	-51
11775769	-44	144	-56
11776097	-36	144	-65
11776425	-24	144	-63
11776753	-34	132	-70
11777081	-32	136	-62
11777409	-69	151	-56
11777737	-67	126	-62
11778065	-65	144	-56
11778393	-65	134	-57
11778721	-67	137	-61
11779049	-57	149	-58
11779377	-33	135	-58
11779705	-40	129	-50
11780033	-42	142	-53
11780361	-45	139	-41
11780689	-23	122	-50
11781017	-20	132	-33
11781345	-38	162	-38
11781673	-55	138	-56
11782001	-53	130	-41
11782329	-49	133	-41
11782657	-44	140	-50
11782985	-40	133	-28
11783313	-36	140	-46
11783641	-49	131	-60
11783969	-60	124	-41
11784297	-57	138	-43
11784625	-56	132	-24
11784953	-59	142	-48
11785281	-36	136	-47
11785609	-51	128	-43
11785937	-52	142	-48
11786265	-47	130	-44
11786593	-50	125	-54
11786921	-52	133	-39
11787249	-50	129	-44
11787577	-74	130	-33
11787905	-74	133	-40
11788233	-44	133	-36
11788561	-60	137	-38
11788889	-52	131	-38
11789217	-44	136	-48
11789545	-57	136	-42
11789873	-56	124	-37
11790201	-64	136	-37
11790529	-52	136	-43
11790857	-68	128	-48
11791185	-41	117	-49
11791513	-36	137	-42
11791841	-45	126	-42
11792169	-68	127	-49
11792497	-62	128	-47
11792825	-75	132	-41
11793153	-65	143	-38
11793481	-49	125	-50
11793809	-51	117	-45
11794137	-49	130	-44
11794465	-72	121	-50
11794793	-86	116	-42
11795121	-92	131	-41
11795449	-88	137	-49
11795777	-84	129	-53
11796105	-75	126	-50
11796433	-77	139	-49
11796761	-72	151	-47
11797089	-92	143	-42
11797417	-66	138	-48
11797745	-84	150	-52
11798073	-55	133	-60
11798401	-36	153	-64
11798729	-60	139	-61
11799057	-72	155	-55
11799385	-79	145	-47
11799713	-75	151	-57
11800041	-82	138	-45
11800369	-83	147	-59
11800697	-81	137	-50
11801025	-71	151	-48
11801353	-68	146	-46
11801681	-83	131	-50
11802009	-96	147	-39
11802337	-120	138	-44
11802665	-89	136	-51
11802993	-83	147	-48
11803321	-85	141	-50
11803649	-77	137	-29
11803977	-60	138	-43
11804305	-78	127	-31
11804633	-72	127	-35
11804961	-68	134	-38
11805289	-55	141	-33
11805617	-57	119	-39
11805945	-64	144	-38
11806273	-67	138	-38
11806601	-55	138	-31
11806929	-55	139	-33
11807257	-58	142	-33
11807585	-63	135	-28
11807913	-42	142	-27
11808241	-51	139	-31
11808569	-63	151	-41
11808897	-70	157	-39
11809225	-70	142	-36
11809553	-52	138	-24
11809881	-60	142	-30
11810209	-65	147	-46
11810537	-53	133	-43
11810865	-76	133	-35
11811193	-91	136	-40
11811521	-85	129	-32
11811849	-91	134	-32
11812177	-95	134	-32
11812505	-66	127	-41
11812833	-69	138	-47
11813161	-69	136	-35
11813489	-77	141	-43
11813817	-91	137	-31
11814145	-95	139	-43
11814473	-98	136	-35
11814801	-104	128	-29
11815129	-84	130	-37
11815457	-88	135	-39
11815785	-69	141	-42
11816113	-53	129	-26
11816441	-64	141	-35
11816769	-59	134	-32
11817097	-72	127	-20
11817425	-55	134	-32
11817753	-44	131	-20
11818081	-43	129	-25
11818409	-38	134	-26
11818737	-59	132	-27
11819065	-69	126	-33
11819393	-82	137	-39
11819721	-88	141	-37
11820049	-84	126	-47
11820377	-88	133	-43
11820705	-89	132	-36
11821033	-57	143	-39
11821361	-68	140	-36
11821689	-38	145	-57
11822017	-33	159	-39
11822345	-38	141	-55
11822673	-30	147	-49
11823001	-28	140	-53
11823329	-28	148	-47
11823657	-38	145	-43
11823985	-34	118	-34
11824313	-41	144	-37
11824641	-41	151	-33
11824969	-43	128	-34
11825297	-49	141	-36
11825625	-54	141	-33
11825953	-42	139	-26
11826281	-44	125	-28
11826609	-32	144	-27
11826937	-38	130	-14
11827265	-63	128	-28
11827593	-54	130	-21
11827921	-61	126	-25
11828249	-79	126	-15
11828577	-64	124	-25
11828905	-76	133	-5
11829233	-61	140	-15
11829561	-40	136	-14
11829889	-46	131	-15
11830217	-48	145	-25
11830545	-65	138	-11
11830873	-70	139	-10
11831201	-76	136	-14
11831529	-76	133	-15
11831857	-74	143	-21
11832185	-80	144	-24
11832513	-68	128	-15
11832841	-77	130	-23
11833169	-79	124	-13
11833497	-74	130	-16
11833825	-83	140	-18
11834153	-74	130	-21
11834481	-74	122	-20
11834809	-90	134	-21
11835137	-72	139	-25
11835465	-65	130	-15
11835793	-69	133	-24
11836121	-72	128	-19
11836449	-88	144	-11
11836777	-86	129	-18
11837105	-108	131	-17
11837433	-85	134	-10
11837761	-91	138	-19
11838089	-94	147	-28
11838417	-86	137	-22
11838745	-98	140	-19
11839073	-102	127	-12
11839401	-91	140	-10
11839729	-90	146	-18
11840057	-85	139	-14
11840385	-70	135	-10
11840713	-78	112	-15
11841041	-63	128	-9
11841369	-80	127	-33
11841697	-79	140	-29
11842025	-77	123	-21
11842353	-73	138	-22
11842681	-86	131	-31
11843009	-62	131	-21
11843337	-69	127	-19
11843665	-67	133	-27
11843993	-58	137	-19
11844321	-71	129	-26
11844649	-66	126	-20
11844977	-60	130	-37
11845305	-55	146	-35
11845633	-54	144	-37
11845961	-56	144	-39
11846289	-49	142	-32
11846617	-41	138	-30
11846945	-54	127	-20
11847273	-49	144	-25
11847601	-46	148	-30
11847929	-29	138	-33
11848257	-51	134	-34
11848585	-67	125	-30
11848913	-71	138	-25
11849241	-65	133	-38
11849569	-64	129	-26
11849897	-42	128	-28
11850225	-37	129	-34
11850553	-46	135	-40
11850881	-34	141	-38
11851209	-43	137	-34
11851537	-52	128	-34
11851865	-38	137	-28
11852193	-38	140	-36
11852521	-43	136	-37
11852849	-27	128	-30
11853177	-45	132	-39
11853505	-53	148	-36
11853833	-42	136	-46
11854161	-37	132	-31
11854489	-56	123	-27
11854817	-46	129	-37
11855145	-41	138	-44
11855473	-46	133	-33
11855801	-56	114	-42
11856129	-55	130	-39
11856457	-63	128	-30
11856785	-70	133	-33
11857113	-51	139	-44
11857441	-61	124	-21
11857769	-52	111	-35
11858097	-70	123	-28
11858425	-70	127	-27
11858753	-62	132	-30
11859081	-64	119	-41
11859409	-66	117	-44
11859737	-74	109	-36
11860065	-84	114	-47
11860393	-111	100	-28
11860721	-100	110	-24
11861049	-104	109	-34
11861377	-102	113	-30
11861705	-94	102	-18
11862033	-67	100	-20
11862361	-80	113	-32
11862689	-75	119	-19
11863017	-83	106	-19
11863345	-77	105	-29
11863673	-55	118	-31
11864001	-65	117	-30
11864329	-71	107	-39
11864657	-65	114	-35
11864985	-62	116	-19
11865313	-87	113	-24
11865641	-67	132	-32
11865969	-70	125	-22
11866297	-68	122	-49
11866625	-73	127	-42
11866953	-63	133	-36
11867281	-73	134	-33
11867609	-59	128	-43
11867937	-58	133	-39
11868265	-60	145	-25
11868593	-48	129	-36
11868921	-43	137	-31
11869249	-49	144	-33
11869577	-57	137	-35
11869905	-59	140	-38
11870233	-60	137	-38
11870561	-52	143	-35
11870889	-52	143	-25
11871217	-67	138	-23
11871545	-68	147	-29
11871873	-72	152	-36
11872201	-80	157	-22
11872529	-59	135	-26
11872857	-68	135	-39
11873185	-77	141	-24
11873513	-60	141	-28
11873841	-66	157	-26
11874169	-66	143	-24
11874497	-33	159	-30
11874825	-46	147	-27
11875153	-29	149	-31
11875481	-24	156	-32
11875809	-39	156	-31
11876137	-58	143	-21
11876465	-63	148	-33
11876793	-68	158	-32
11877121	-87	164	-30
11877449	-68	161	-33
11877777	-66	155	-44
11878105	-51	142	-38
11878433	-51	148	-27
11878761	-57	163	-40
11879089	-66	160	-39
11879417	-96	151	-37
11879745	-58	160	-34
11880073	-83	167	-28
11880401	-64	153	-20
11880729	-78	151	-38
11881057	-68	143	-39
11881385	-84	150	-35
11881713	-83	158	-14
11882041	-85	147	-23
11882369	-96	147	-39
11882697	-85	138	-33
11883025	-101	152	-31
11883353	-82	132	-32
11883681	-77	145	-36
11884009	-98	135	-39
11884337	-103	136	-31
11884665	-95	143	-32
11884993	-97	141	-33
11885321	-71	146	-33
11885649	-72	141	-33
11885977	-88	147	-31
11886305	-80	147	-33
11886633	-88	139	-22
11886961	-94	140	-34
11887289	-94	136	-33
11887617	-90	133	-40
11887945	-88	140	-42
11888273	-94	127	-29
11888601	-104	141	-37
11888929	-94	138	-34
11889257	-80	135	-37
11889585	-83	136	-45
11889913	-71	155	-45
11890241	-46	138	-30
11890569	-50	153	-54
11890897	-47	152	-31
11891225	-55	157	-45
11891553	-78	159	-49
11891881	-76	151	-46
11892209	-68	159	-45
11892537	-73	153	-58
11892865	-51	162	-48
11893193	-39	156	-57
11893521	-57	159	-60
11893849	-61	149	-61
11894177	-79	150	-63
11894505	-86	149	-57
11894833	-74	144	-52
11895161	-73	138	-55
11895489	-76	139	-71
11895817	-48	144	-59
11896145	-37	151	-58
11896473	-34	156	-60
11896801	-50	147	-67
11897129	-49	152	-55
11897457	-64	144	-52
11897785	-58	148	-59
11898113	-45	154	-70
11898441	-47	166	-64
11898769	-41	151	-69
11899097	-42	153	-71
11899425	-31	148	-59
11899753	-29	150	-70
11900081	-55	155	-64
11900409	-61	138	-57
11900737	-56	150	-53
11901065	-49	149	-63
11901393	-54	149	-82
11901721	-62	140	-63
11902049	-79	141	-58
11902377	-84	140	-64
11902705	-95	141	-57
11903033	-80	139	-65
11903361	-74	124	-62
11903689	-63	130	-47
11904017	-68	124	-54
11904345	-64	135	-54
11904673	-77	131	-56
11905001	-66	130	-41
11905329	-58	131	-49
11905657	-48	138	-50
11905985	-38	131	-59
11906313	-56	140	-42
11906641	-53	134	-43
11906969	-69	128	-30
11907297	-63	137	-51
11907625	-54	129	-42
11907953	-48	138	-41
11908281	-45	131	-46
11908609	-56	133	-36
11908937	-62	121	-40
11909265	-59	128	-40
11909593	-74	129	-43
11909921	-77	124	-42
11910249	-78	127	-40
11910577	-87	128	-52
11910905	-72	133	-39
11911233	-51	134	-41
11911561	-40	138	-39
11911889	-58	136	-35
11912217	-69	151	-52
11912545	-67	134	-49
11912873	-66	164	-45
11913201	-53	141	-44
11913529	-53	144	-38
11913857	-47	146	-40
11914185	-34	138	-55
11914513	-26	148	-61
11914841	-34	160	-46
11915169	-43	145	-35
11915497	-43	164	-44
11915825	-32	151	-45
11916153	-25	165	-57
11916481	-28	152	-65
11916809	-18	153	-98
11917137	-36	138	-71
11917465	-73	150	-47
11917793	-73	144	-39
11918121	-79	147	-61
11918449	-71	140	-62
11918777	-42	148	-53
11919105	-62	154	-53
11919433	-27	146	-60
11919761	-40	151	-69
11920089	-37	152	-82
11920417	-52	147	-73
11920745	-44	158	-81
11921073	-68	147	-72
11921401	-65	139	-80
11921729	-75	159	-58
11922057	-63	161	-82
11922385	-84	153	-88
11922713	-83	138	-77
11923041	-87	151	-72
11923369	-76	149	-67
11923697	-63	156	-54
11924025	-52	148	-67
11924353	-68	147	-62
11924681	-55	151	-61
11925009	-50	151	-81
11925337	-44	181	-80
11925665	-74	151	-84
11925993	-61	153	-48
11926321	-62	149	-47
11926649	-85	148	-54
11926977	-75	140	-59
11927305	-66	158	-52
11927633	-53	143	-44
11927961	-60	131	-51
11928289	-50	137	-39
11928617	-51	141	-29
11928945	-76	130	-44
11929273	-73	133	-35
11929601	-84	137	-36
11929929	-94	149	-37
11930257	-74	141	-30
11930585	-66	151	-25
11930913	-55	130	-38
11931241	-54	127	-29
11931569	-75	143	-28
11931897	-70	125	-34
11932225	-76	140	-40
11932553	-71	126	-35
11932881	-69	134	-22
11933209	-70	125	-33
11933537	-60	130	-31
11933865	-54	132	-28
11934193	-43	124	-20
11934521	-50	136	-28
11934849	-50	129	-17
11935177	-69	136	-26
11935505	-64	148	-21
11935833	-57	128	-33
11936161	-64	134	-19
11936489	-36	137	-20
11936817	-45	129	-20
11937145	-43	133	-30
11937473	-52	144	-23
11937801	-53	138	-28
11938129	-38	138	-23
11938457	-24	136	-21
11938785	-34	124	-20
11939113	-39	144	-26
11939441	-61	131	-25
11939769	-61	135	-17
11940097	-63	122	-14
11940425	-72	137	-17
11940753	-49	123	-23
11941081	-58	128	-27
11941409	-43	122	-16
11941737	-44	126	-17
11942065	-70	131	-29
11942393	-71	131	-30
11942721	-73	124	-20
11943049	-63	122	-25
11943377	-65	134	-16
11943705	-53	128	-25
11944033	-54	131	-35
11944361	-52	127	-29
11944689	-54	139	-31
11945017	-77	129	-34
11945345	-59	125	-36
11945673	-57	137	-37
11946001	-71	136	-49
11946329	-72	138	-31
11946657	-62	119	-37
11946985	-74	137	-37
11947313	-51	131	-45
11947641	-62	130	-49
11947969	-51	132	-45
11948297	-56	131	-45
11948625	-57	128	-39
11948953	-63	129	-32
11949281	-61	130	-32
11949609	-57	132	-50
11949937	-35	139	-49
11950265	-28	124	-37
11950593	-45	138	-50
11950921	-55	122	-42
11951249	-56	122	-51
11951577	-75	127	-32
11951905	-57	124	-34
11952233	-34	122	-40
11952561	-29	120	-48
11952889	-3	140	-60
11953217	-9	128	-47
11953545	-27	144	-50
11953873	-55	119	-37
11954201	-44	151	-49
11954529	-44	146	-68
11954857	-55	121	-42
11955185	-60	118	-38
11955513	-48	108	-38
11955841	-57	130	-55
11956169	-46	120	-36
11956497	-69	120	-45
11956825	-43	125	-43
11957153	-33	132	-43
11957481	-42	135	-47
11957809	-47	135	-31
11958137	-23	125	-43
11958465	-20	152	-47
11958793	-37	140	-51
11959121	-17	130	-50
11959449	-25	136	-51
11959777	-36	126	-51
11960105	-55	124	-54
11960433	-47	124	-27
11960761	-53	120	-26
11961089	-35	114	-34
11961417	-21	127	-25
11961745	-25	124	-23
11962073	-6	132	-31
11962401	-12	135	-40
11962729	-29	127	-32
11963057	-46	122	-26
11963385	-55	109	-16
11963713	-62	132	-16
11964041	-55	123	-21
11964369	-35	125	-16
11964697	-36	120	-14
11965025	-18	106	-12
11965353	-43	129	-12
11965681	-64	131	-22
11966009	-58	131	-11
11966337	-47	127	-14
11966665	-42	128	-30
11966993	-21	126	-21
11967321	-42	116	-35
11967649	-36	122	-20
11967977	-73	127	-23
11968305	-76	120	-34
11968633	-74	123	-32
11968961	-56	126	-38
11969289	-61	119	-34
11969617	-54	116	-31
11969945	-65	125	-29
11970273	-70	130	-37
11970601	-61	121	-30
11970929	-77	134	-33
11971257	-79	121	-36
11971585	-74	117	-27
11971913	-77	118	-26
11972241	-60	116	-29
11972569	-86	134	-33
11972897	-63	108	-22
11973225	-74	112	-19
11973553	-79	114	-18
11973881	-88	116	-28
11974209	-91	120	-36
11974537	-103	110	-26
11974865	-97	125	-27
11975193	-89	119	-30
11975521	-61	114	-10
11975849	-62	120	-22
11976177	-62	128	-27
11976505	-75	116	-34
11976833	-79	125	-29
11977161	-95	112	-35
11977489	-99	109	-25
11977817	-90	100	-14
11978145	-80	107	-35
11978473	-92	112	-13
11978801	-83	114	-14
11979129	-80	122	-19
11979457	-60	127	-27
11979785	-65	125	-30
11980113	-82	111	-23
11980441	-68	124	-49
11980769	-73	134	-43
11981097	-76	123	-31
11981425	-66	124	-28
11981753	-69	131	-31
11982081	-52	132	-29
11982409	-45	132	-22
11982737	-47	119	-18
11983065	-39	129	-22
11983393	-57	145	-33
11983721	-54	146	-36
11984049	-57	136	-26
11984377	-60	122	-19
11984705	-68	123	-21
11985033	-75	128	-18
11985361	-86	124	-17
11985689	-93	108	-14
11986017	-94	123	-2
11986345	-64	101	-15
11986673	-61	124	-6
11987001	-61	134	-12
11987329	-44	117	-3
11987657	-44	128	-10
11987985	-62	114	-3
11988313	-65	131	-7
11988641	-60	130	-9
11988969	-64	133	-2
11989297	-72	121	-18
11989625	-74	126	0
11989953	-66	126	-3
11990281	-56	124	-5
11990609	-69	126	3
11990937	-38	129	1
11991265	-71	128	6
11991593	-57	117	9
11991921	-59	115	6
11992249	-63	117	15
11992577	-86	108	24
11992905	-55	109	18
11993233	-71	100	25
11993561	-77	99	17
11993889	-84	90	27
11994217	-83	81	48
11994545	-98	78	38
11994873	-85	89	45
11995201	-72	84	36
11995529	-55	74	51
11995857	-71	71	48
11996185	-81	75	35
11996513	-113	75	43
11996841	-134	62	48
11997169	-180	54	61
11997497	-169	9	63
11997825	-132	44	77
11998153	-58	43	71
11998481	-5	42	76
11998809	-6	-15	87
11999137	5	-19	110
11999465	12	-5	131
11999793	36	-15	120
12000121	62	-29	91
12000449	58	-17	96
12000777	126	-56	96
12001105	142	-35	100
12001433	145	-59	96
12001761	89	-47	118
12002089	63	-59	116
12002417	40	-51	88
12002745	21	-63	74
12003073	39	-51	43
12003401	89	-34	23
12003729	114	-53	12
12004057	126	-52	-15
12004385	167	-34	-44
12004713	222	-29	-61
12005041	335	-26	-89
12005369	455	-19	-103
12005697	556	-7	-132
12006025	653	15	-132
12006353	733	7	-133
12006681	800	18	-165
12007009	861	12	-187
12007337	945	-29	-200
12007665	980	-31	-206
12007993	1016	-33	-213
12008321	1024	-41	-228
12008649	1011	-82	-234
12008977	1017	-91	-251
12009305	1000	-109	-257
12009633	1018	-95	-263
12009961	1040	-99	-258
12010289	1077	-111	-263
12010617	1107	-104	-276
12010945	1113	-129	-272
12011273	1126	-130	-274
12011601	1109	-141	-279
12011929	1118	-161	-278
12012257	1095	-167	-309
12012585	1074	-183	-292
12012913	1058	-169	-297
12013241	1059	-169	-308
12013569	1068	-191	-329
12013897	1058	-208	-330
12014225	1061	-191	-320
12014553	1043	-233	-330
12014881	1036	-213	-333
12015209	1019	-240	-318
12015537	996	-265	-314
12015865	963	-250	-297
12016193	1017	-267	-288
12016521	1069	-275	-254
12016849	1120	-271	-249
12017177	1143	-278	-211
12017505	1155	-250	-197
12017833	1138	-264	-163
12018161	1117	-284	-128
12018489	1012	-311	-128
12018817	904	-338	-108
12019145	795	-333	-101
12019473	711	-350	-88
12019801	671	-305	-101
12020129	675	-286	-148
12020457	678	-256	-186
12020785	690	-245	-206
12021113	682	-226	-208
12021441	689	-216	-259
12021769	723	-325	-264
12022097	653	-539	-297
12022425	705	-552	-304
12022753	780	-388	-321
12023081	866	-422	-384
12023409	999	-298	-408
12023737	1099	-403	-411
12024065	1185	-244	-399
12024393	1242	-392	-399
12024721	1299	-422	-441
12025049	1401	-208	-490
12025377	1398	43	-569
12025705	1587	248	-622
12026033	1870	481	-638
12026361	2160	683	-671
12026689	2559	902	-629
12027017	3051	1111	-581
12027345	3557	1322	-523
12027673	3924	1421	-430
12028001	4237	1618	-462
12028329	4514	1786	-533
12028657	4793	1907	-571
12028985	5024	2156	-675
12029313	5200	2401	-781
12029641	5250	2591	-866
12029969	5205	2746	-932
12030297	5044	2851	-998
12030625	4799	2941	-1022
12030953	4482	2930	-1060
12031281	4097	2897	-1060
12031609	3636	2796	-939
12031937	3215	2698	-816
12032265	2767	2592	-648
12032593	2338	2360	-448
12032921	1824	2087	-236
12033249	1291	1609	1
12033577	693	1195	256
12033905	-127	779	641
12034233	-1030	213	944
12034561	-1685	-86	1085
12034889	-2200	-5	1016
12035217	-2601	199	913
12035545	-2673	356	673
12035873	-2542	331	540
12036201	-2298	286	431
12036529	-2016	331	370
12036857	-1750	397	332
12037185	-1439	476	303
12037513	-1213	440	460
12037841	-1096	502	586
12038169	-1059	529	747
12038497	-1079	507	797
12038825	-1168	473	795
12039153	-1277	466	788
12039481	-1489	445	759
12039809	-1644	405	741
12040137	-1753	398	711
12040465	-1836	420	716
12040793	-1879	415	705
12041121	-1912	433	679
12041449	-1922	380	663
12041777	-1910	470	649
12042105	-1829	505	623
12042433	-1765	542	636
12042761	-1727	542	620
12043089	-1803	495	626
12043417	-1853	414	651
12043745	-1900	472	621
12044073	-1905	498	587
12044401	-1804	550	573
12044729	-1715	546	544
12045057	-1608	537	505
12045385	-1488	493	481
12045713	-1406	485	496
12046041	-1345	407	513
12046369	-1292	392	493
12046697	-1166	404	452
12047025	-914	476	470
12047353	-672	461	490
12047681	-503	369	511
12048009	-387	344	503
12048337	-329	336	456
12048665	-280	287	457
12048993	-149	343	460
12049321	-61	310	416
12049649	-117	253	413
12049977	-93	326	409
12050305	-70	224	429
12050633	-40	191	406
12050961	62	256	348
12051289	262	265	288
12051617	330	249	245
12051945	351	265	194
12052273	422	230	179
12052601	494	234	133
12052929	524	221	96
12053257	574	202	59
12053585	622	170	28
12053913	671	136	-8
12054241	735	105	-50
12054569	797	105	-120
12054897	871	62	-154
12055225	890	45	-189
12055553	875	-2	-198
12055881	872	7	-250
12056209	858	-25	-308
12056537	867	13	-347
12056865	925	1	-369
12057193	1005	-18	-399
12057521	1067	-64	-406
12057849	1118	-38	-408
12058177	1208	-52	-406
12058505	1254	-50	-407
12058833	1197	-99	-411
12059161	1112	-91	-398
12059489	1058	-31	-386
12059817	963	-64	-345
12060145	977	-23	-357
12060473	997	-8	-367
12060801	1003	10	-367
12061129	978	-21	-362
12061457	910	-55	-340
12061785	871	8	-297
12062113	824	17	-259
12062441	781	45	-210
12062769	735	68	-197
12063097	704	113	-180
12063425	700	116	-181
12063753	688	86	-163
12064081	704	95	-127
12064409	680	51	-118
12064737	678	28	-87
12065065	706	-29	-93
12065393	721	-23	-110
12065721	786	-7	-86
12066049	884	-39	-100
12066377	995	-23	-94
12066705	1191	-12	-129
12067033	1330	11	-157
12067361	1386	-2	-146
12067689	1355	18	-156
12068017	1277	6	-118
12068345	1125	9	-89
12068673	954	10	-72
12069001	810	11	-60
12069329	704	28	-66
12069657	617	34	-78
12069985	569	51	-81
12070313	561	61	-63
12070641	521	32	-72
12070969	447	20	-64
12071297	351	43	-75
12071625	157	5	-63
12071953	32	-26	-24
12072281	-111	12	-24
12072609	-191	0	-13
12072937	-258	27	-26
12073265	-285	22	-4
12073593	-301	14	1
12073921	-359	8	11
12074249	-395	3	15
12074577	-407	67	45
12074905	-484	51	48
12075233	-493	84	58
12075561	-489	61	51
12075889	-412	126	39
12076217	-307	107	40
12076545	-196	132	-1
12076873	-118	143	-11
12077201	-59	144	-9
12077529	-46	155	-11
12077857	-72	135	-3
12078185	-115	132	-1
12078513	-156	125	40
12078841	-209	140	37
12079169	-205	164	42
12079497	-191	160	26
12079825	-203	149	14
12080153	-207	140	24
12080481	-198	135	17
12080809	-227	144	0
12081137	-244	149	7
12081465	-281	165	2
12081793	-291	164	-4
12082121	-259	162	0
12082449	-259	153	-5
12082777	-247	177	-11
12083105	-228	195	-30
12083433	-233	175	-39
12083761	-246	179	-30
12084089	-246	175	-33
12084417	-257	188	-33
12084745	-267	213	-44
12085073	-259	198	-63
12085401	-257	202	-77
12085729	-242	208	-65
12086057	-238	219	-60
12086385	-222	225	-54
12086713	-233	230	-77
12087041	-228	221	-83
12087369	-205	233	-77
12087697	-191	229	-78
12088025	-174	236	-69
12088353	-174	251	-68
12088681	-176	242	-51
12089009	-202	228	-33
12089337	-228	239	-6
12089665	-218	245	-5
12089993	-213	270	-23
12090321	-221	279	-35
12090649	-213	256	-43
12090977	-181	242	-33
12091305	-182	252	-53
12091633	-173	252	-63
12091961	-160	262	-31
12092289	-143	245	-39
12092617	-102	254	-47
12092945	-70	260	-62
12093273	-45	255	-51
12093601	-38	247	-54
12093929	-24	252	-43
12094257	-19	262	-73
12094585	-22	245	-68
12094913	-48	246	-56
12095241	-75	241	-64
12095569	-91	242	-59
12095897	-110	245	-62
12096225	-93	248	-50
12096553	-81	240	-53
12096881	-65	240	-61
12097209	-50	244	-75
12097537	-44	258	-70
12097865	-38	250	-83
12098193	-43	266	-93
12098521	-49	260	-96
12098849	-41	251	-89
12099177	-23	270	-83
12099505	-29	252	-89
12099833	0	252	-79
12100161	5	234	-78
12100489	-14	231	-69
12100817	-34	249	-59
12101145	-33	233	-65
12101473	-45	242	-70
12101801	-45	239	-63
12102129	-52	225	-63
12102457	-38	224	-55
12102785	-49	227	-71
12103113	-82	210	-60
12103441	-99	210	-44
12103769	-128	204	-47
12104097	-132	208	-29
12104425	-130	198	-20
12104753	-104	203	-21
12105081	-95	205	-34
12105409	-105	188	-30
12105737	-103	184	-15
12106065	-79	188	-25
12106393	-94	196	-40
12106721	-75	173	-30
12107049	-49	188	-37
12107377	-85	172	-77
12107705	-82	170	-59
12108033	-111	160	-52
12108361	-140	149	-57
12108689	-151	146	-40
12109017	-162	171	-38
12109345	-177	157	-48
12109673	-138	146	-27
12110001	-150	152	-36
12110329	-151	139	-27
12110657	-151	144	-39
12110985	-169	140	-30
12111313	-160	131	-15
12111641	-166	141	-26
12111969	-162	138	-35
12112297	-159	132	-35
12112625	-142	135	-42
12112953	-161	131	-41
12113281	-193	133	-39
12113609	-200	143	-44
12113937	-209	142	-36
12114265	-184	138	-39
12114593	-131	139	-55
12114921	-114	139	-48
12115249	-102	144	-61
12115577	-94	151	-48
12115905	-84	147	-78
12116233	-83	157	-64
12116561	-107	155	-98
12116889	-99	147	-76
12117217	-97	152	-73
12117545	-115	148	-76
12117873	-125	132	-54
12118201	-136	132	-47
12118529	-151	113	-51
12118857	-161	127	-56
12119185	-166	104	-38
12119513	-184	102	-21
12119841	-234	129	-33
12120169	-228	102	-30
12120497	-223	127	-26
12120825	-223	113	-22
12121153	-205	133	-25
12121481	-198	159	-41
12121809	-184	139	-21
12122137	-191	135	-40
12122465	-184	158	-28
12122793	-176	155	-43
12123121	-200	158	-37
12123449	-194	152	-34
12123777	-183	168	-28
12124105	-153	169	-27
12124433	-125	166	-27
12124761	-117	173	-28
12125089	-85	151	-32
12125417	-91	163	-38
12125745	-108	164	-27
12126073	-97	167	-46
12126401	-116	152	-32
12126729	-114	149	-35
12127057	-94	164	-33
12127385	-99	145	-32
12127713	-110	141	-39
12128041	-113	155	-22
12128369	-113	154	-22
12128697	-133	151	-33
12129025	-121	146	-23
12129353	-106	133	-41
12129681	-83	148	-41
12130009	-63	155	-50
12130337	-43	146	-53
12130665	-64	148	-76
12130993	-107	114	-64
12131321	-98	152	-56
12131649	-115	152	-56
12131977	-149	137	-68
12132305	-108	139	-47
12132633	-76	137	-24
12132961	-73	138	-47
12133289	-45	134	-38
12133617	-54	133	-17
12133945	-70	128	-28
12134273	-94	113	-19
12134601	-84	132	-18
12134929	-66	124	-19
12135257	-69	123	-8
12135585	-53	139	-19
12135913	-38	119	-18
12136241	-68	134	-11
12136569	-63	124	-10
12136897	-77	136	-6
12137225	-51	118	-21
12137553	-26	135	-5
12137881	-5	128	-2
12138209	4	127	-17
12138537	40	138	-13
12138865	1	131	-16
12139193	5	150	-23
12139521	8	136	-19
12139849	-15	132	-37
12140177	-31	141	-22
12140505	-40	144	-24
12140833	-45	118	-22
12141161	-68	134	-27
12141489	-86	136	-34
12141817	-87	127	-45
12142145	-103	123	-50
12142473	-84	102	-40
12142801	-79	111	-41
12143129	-111	126	-44
12143457	-95	113	-27
12143785	-87	115	-40
12144113	-81	114	-37
12144441	-35	126	-46
12144769	-35	131	-50
12145097	-17	129	-42
12145425	-40	119	-52
12145753	-40	127	-58
12146081	-61	124	-49
12146409	-54	130	-48
12146737	-52	138	-43
12147065	-38	127	-49
12147393	-56	119	-62
12147721	-55	140	-68
12148049	-69	119	-87
12148377	-79	132	-74
12148705	-104	117	-76
12149033	-133	122	-76
12149361	-105	121	-75
12149689	-91	135	-80
12150017	-62	122	-77
12150345	-44	125	-104
12150673	-20	146	-106
12151001	-36	118	-126
12151329	-76	122	-116
12151657	-89	115	-110
12151985	-87	139	-121
12152313	-51	140	-144
12152641	5	165	-172
12152969	-23	103	-162
12153297	-1	113	-137
12153625	-5	140	-142
12153953	-39	147	-177
12154281	-52	135	-157
12154609	-13	124	-160
12154937	-20	163	-160
12155265	-11	142	-183
12155593	-26	126	-172
12155921	-49	122	-150
12156249	-78	117	-149
12156577	-94	120	-153
12156905	-66	139	-155
12157233	-21	139	-144
12157561	3	128	-152
12157889	-28	114	-135
12158217	-12	100	-117
12158545	-10	129	-125
12158873	-29	113	-126
12159201	-39	126	-120
12159529	-9	122	-108
12159857	18	142	-116
12160185	10	100	-126
12160513	7	124	-87
12160841	2	113	-90
12161169	-3	138	-116
12161497	17	156	-136
12161825	22	129	-133
12162153	-23	119	-125
12162481	-8	142	-148
12162809	-27	136	-154
12163137	-89	127	-152
12163465	-106	114	-122
12163793	-117	122	-137
12164121	-114	134	-134
12164449	-97	116	-129
12164777	-71	121	-120
12165105	-47	101	-127
12165433	-56	128	-134
12165761	-81	94	-117
12166089	-101	93	-90
12166417	-117	105	-100
12166745	-133	100	-82
12167073	-106	107	-66
12167401	-75	113	-64
12167729	-54	103	-62
12168057	-49	119	-50
12168385	-70	104	-40
12168713	-99	100	-43
12169041	-111	124	-34
12169369	-114	115	-43
12169697	-120	134	-41
12170025	-119	122	-41
12170353	-106	136	-44
12170681	-103	132	-41
12171009	-145	130	-40
12171337	-167	140	-50
12171665	-138	112	-48
12171993	-143	137	-47
12172321	-143	142	-59
12172649	-128	150	-70
12172977	-121	132	-83
12173305	-120	140	-66
12173633	-117	131	-54
12173961	-115	130	-67
12174289	-118	130	-47
12174617	-104	143	-42
12174945	-101	116	-42
12175273	-87	136	-31
12175601	-96	133	-51
12175929	-83	144	-31
12176257	-98	132	-34
12176585	-97	131	-44
12176913	-91	129	-36
12177241	-100	135	-34
12177569	-111	145	-30
12177897	-110	136	-24
12178225	-99	140	-17
12178553	-110	141	-26
12178881	-81	125	-25
12179209	-79	147	-32
12179537	-69	145	-27
12179865	-54	159	-18
12180193	-50	151	-21
12180521	-52	149	-32
12180849	-56	164	-36
12181177	-68	149	-34
12181505	-79	160	-36
12181833	-80	144	-32
12182161	-73	148	-44
12182489	-54	151	-41
12182817	-59	134	-49
12183145	-46	130	-33
12183473	-52	157	-35
12183801	-34	151	-30
12184129	-44	146	-30
12184457	-42	148	-39
12184785	-41	153	-21
12185113	-29	160	-21
12185441	-16	158	-18
12185769	7	159	1
12186097	13	156	1
12186425	13	154	15
12186753	21	137	17
12187081	21	150	19
12187409	23	150	22
12187737	-12	144	32
12188065	-24	139	45
12188393	-10	150	60
12188721	13	134	68
12189049	15	133	67
12189377	45	130	86
12189705	67	137	81
12190033	71	126	83
12190361	85	130	94
12190689	75	135	95
12191017	58	126	113
12191345	65	153	101
12191673	72	142	106
12192001	71	158	94
12192329	49	143	88
12192657	65	164	77
12192985	71	150	88
12193313	69	165	93
12193641	70	168	83
12193969	42	163	78
12194297	62	152	64
12194625	76	168	71
12194953	81	178	50
12195281	69	187	41
12195609	58	177	39
12195937	13	167	52
12196265	1	184	38
12196593	-15	171	10
12196921	-49	158	14
12197249	-33	149	37
12197577	-52	159	5
12197905	-57	167	8
12198233	-49	163	8
12198561	-66	154	-6
12198889	-104	155	-13
12199217	-111	152	-23
12199545	-127	152	-22
12199873	-139	146	-37
12200201	-170	161	-39
12200529	-168	157	-42
12200857	-172	154	-47
12201185	-171	154	-44
12201513	-155	155	-35
12201841	-136	147	-42
12202169	-146	147	-38
12202497	-142	147	-35
12202825	-134	132	-38
12203153	-142	146	-34
12203481	-136	153	-41
12203809	-134	154	-34
12204137	-147	149	-26
12204465	-134	138	-36
12204793	-111	141	-17
12205121	-103	147	-33
12205449	-112	128	-12
12205777	-117	133	-16
12206105	-122	151	-12
12206433	-146	151	-28
12206761	-147	141	-20
12207089	-126	151	-17
12207417	-134	128	-11
12207745	-122	140	-12
12208073	-113	137	-24
12208401	-100	124	-13
12208729	-118	140	-18
12209057	-87	131	-9
12209385	-78	133	-26
12209713	-60	130	-19
12210041	-63	131	-22
12210369	-38	145	-21
12210697	-7	136	-15
12211025	17	135	-15
12211353	10	122	-18
12211681	21	129	-21
12212009	7	144	-35
12212337	9	136	-18
12212665	-16	134	-15
12212993	-23	122	-19
12213321	-28	121	3
12213649	-23	125	-5
12213977	-25	115	-1
12214305	-21	101	1
12214633	1	95	-3
12214961	-29	117	0
12215289	-16	115	-9
12215617	-24	104	-6
12215945	-44	100	11
12216273	-39	116	5
12216601	-51	107	8
12216929	-53	105	10
12217257	-32	108	8
12217585	-33	103	4
12217913	-53	103	6
12218241	-46	103	-1
12218569	-58	108	15
12218897	-65	105	1
12219225	-67	91	1
12219553	-88	96	2
12219881	-85	91	9
12220209	-113	91	10
12220537	-102	93	2
12220865	-102	79	6
12221193	-110	81	1
12221521	-101	86	8
12221849	-110	82	10
12222177	-97	81	4
12222505	-116	85	13
12222833	-105	93	17
12223161	-108	69	12
12223489	-98	96	7
12223817	-93	90	6
12224145	-107	90	-2
12224473	-124	88	0
12224801	-126	88	-11
12225129	-136	91	-7
12225457	-140	91	-21
12225785	-147	95	-15
12226113	-127	97	-10
12226441	-133	91	-14
12226769	-130	91	-24
12227097	-133	90	-30
12227425	-133	91	-18
12227753	-119	94	-2
12228081	-96	94	1
12228409	-101	87	-24
12228737	-94	77	-22
12229065	-81	85	-21
12229393	-100	86	-7
12229721	-96	95	2
12230049	-95	90	6
12230377	-81	94	12
12230705	-63	97	-2
12231033	-48	89	6
12231361	-64	107	4
12231689	-66	92	18
12232017	-56	87	20
12232345	-50	94	11
12232673	-50	83	7
12233001	-60	93	3
12233329	-63	89	7
12233657	-75	103	20
12233985	-80	102	10
12234313	-68	86	12
12234641	-44	93	11
12234969	-27	89	15
12235297	-29	95	22
12235625	-3	98	21
12235953	-27	83	8
12236281	-17	100	12
12236609	-17	89	13
12236937	-21	94	7
12237265	-14	77	16
12237593	-29	92	13
12237921	-30	96	9
12238249	-33	93	19
12238577	-25	103	11
12238905	-21	102	5
12239233	-23	101	-1
12239561	-20	113	-5
12239889	-54	104	-9
12240217	-41	122	-4
12240545	-44	121	-5
12240873	-22	100	-8
12241201	-3	104	-13
12241529	15	107	-17
12241857	19	111	-13
12242185	-15	122	-16
12242513	-6	118	-8
12242841	-10	122	-14
12243169	-5	116	-10
12243497	12	115	-16
12243825	24	119	-13
12244153	27	121	-6
12244481	25	113	-6
12244809	23	117	-16
12245137	10	110	-23
12245465	16	108	-18
12245793	16	108	-32
12246121	7	116	-16
12246449	26	111	-10
12246777	30	124	-13
12247105	13	114	-21
12247433	10	113	-12
12247761	24	126	-21
12248089	-4	115	-27
12248417	-3	117	-31
12248745	8	119	-14
12249073	10	118	-23
12249401	32	112	-24
12249729	18	111	-45
12250057	-4	117	-30
12250385	-28	121	-26
12250713	-32	120	-21
12251041	-29	117	-12
12251369	-32	109	-22
12251697	-23	133	-32
12252025	-26	124	-17
12252353	-11	110	-20
12252681	-8	119	-29
12253009	-20	111	-28
12253337	-26	112	-27
12253665	-25	115	-16
12253993	-32	133	-22
12254321	-54	127	-22
12254649	-45	120	-7
12254977	-43	122	-7
12255305	-47	119	-21
12255633	-24	116	-19
12255961	-55	123	-10
12256289	-57	127	-11
12256617	-39	136	-11
12256945	-45	123	-17
12257273	-45	126	-12
12257601	-55	114	-8
12257929	-49	122	-15
12258257	-75	120	-12
12258585	-61	124	-2
12258913	-86	121	5
12259241	-92	112	-6
12259569	-108	123	-5
12259897	-90	126	-5
12260225	-101	113	-6
12260553	-100	116	1
12260881	-87	110	0
12261209	-68	123	3
12261537	-72	120	16
12261865	-60	115	3
12262193	-76	113	10
12262521	-94	120	15
12262849	-110	119	5
12263177	-91	121	8
12263505	-97	129	8
12263833	-105	125	11
12264161	-87	130	15
12264489	-75	126	17
12264817	-62	133	7
12265145	-84	126	11
12265473	-58	127	2
12265801	-84	119	9
12266129	-94	134	7
12266457	-97	122	13
12266785	-113	129	9
12267113	-97	132	7
12267441	-98	107	8
12267769	-90	118	6
12268097	-66	126	9
12268425	-81	121	14
12268753	-98	131	3
12269081	-97	122	13
12269409	-91	120	17
12269737	-102	124	23
12270065	-90	121	12
12270393	-94	125	11
12270721	-64	120	15
12271049	-78	129	32
12271377	-63	139	27
12271705	-68	136	30
12272033	-80	118	26
12272361	-78	120	29
12272689	-53	118	21
12273017	-63	123	22
12273345	-68	142	14
12273673	-60	115	22
12274001	-89	140	18
12274329	-95	127	1
12274657	-120	121	26
12274985	-115	119	13
12275313	-104	127	14
12275641	-108	113	15
12275969	-122	117	6
12276297	-138	95	11
12276625	-118	146	-1
12276953	-116	137	-13
12277281	-90	137	-16
12277609	-89	116	1
12277937	-88	120	9
12278265	-79	134	-4
12278593	-78	119	3
12278921	-59	137	4
12279249	-64	119	3
12279577	-58	124	13
12279905	-59	126	6
12280233	-66	127	-3
12280561	-49	135	4
12280889	-62	129	-5
12281217	-55	131	5
12281545	-37	126	-4
12281873	-35	125	-6
12282201	-43	120	-18
12282529	-52	124	-16
12282857	-48	111	-2
12283185	-82	124	-19
12283513	-90	124	-26
12283841	-105	115	-5
12284169	-110	121	-1
12284497	-106	136	-11
12284825	-87	127	-19
12285153	-72	122	-26
12285481	-56	122	-13
12285809	-64	132	-22
12286137	-66	127	-31
12286465	-85	137	-30
12286793	-65	128	-23
12287121	-68	144	-38
12287449	-71	145	-16
12287777	-61	133	-19
12288105	-58	132	-19
12288433	-69	137	-36
12288761	-62	146	-22
12289089	-68	131	-34
12289417	-59	136	-29
12289745	-76	144	-38
12290073	-87	127	-32
12290401	-69	127	-45
12290729	-84	133	-19
12291057	-70	137	-18
12291385	-64	145	-26
12291713	-39	135	-30
12292041	-44	132	-12
12292369	-60	135	-24
12292697	-68	147	-23
12293025	-60	147	-31
12293353	-64	149	-34
12293681	-64	134	-40
12294009	-49	143	-34
12294337	-38	145	-33
12294665	-48	143	-49
12294993	-45	139	-53
12295321	-44	129	-32
12295649	-72	126	-37
12295977	-78	134	-49
12296305	-67	139	-34
12296633	-63	144	-44
12296961	-45	132	-42
12297289	-46	132	-35
12297617	-49	129	-38
12297945	-44	133	-46
12298273	-47	149	-47
12298601	-53	142	-51
12298929	-69	134	-47
12299257	-46	145	-42
12299585	-69	129	-49
12299913	-69	133	-44
12300241	-62	141	-47
12300569	-60	123	-42
12300897	-66	134	-42
12301225	-68	125	-46
12301553	-59	133	-30
12301881	-61	135	-32
12302209	-31	129	-46
12302537	-50	121	-37
12302865	-42	137	-45
12303193	-51	134	-35
12303521	-38	128	-35
12303849	-25	131	-38
12304177	-59	124	-38
12304505	-68	118	-41
12304833	-83	137	-29
12305161	-69	123	-31
12305489	-57	130	-36
12305817	-53	125	-53
12306145	-53	115	-50
12306473	-56	118	-38
12306801	-54	136	-46
12307129	-66	117	-28
12307457	-71	126	-34
12307785	-86	134	-36
12308113	-72	139	-31
12308441	-59	135	-53
12308769	-69	136	-43
12309097	-77	140	-45
12309425	-59	147	-60
12309753	-67	142	-44
12310081	-44	148	-55
12310409	-61	148	-46
12310737	-49	138	-61
12311065	-69	136	-54
12311393	-73	137	-45
12311721	-65	132	-55
12312049	-66	143	-49
12312377	-63	133	-58
12312705	-57	140	-46
12313033	-55	155	-38
12313361	-50	133	-28
12313689	-39	143	-49
12314017	-35	136	-38
12314345	-40	125	-30
12314673	-30	135	-43
12315001	-33	138	-38
12315329	-43	138	-38
12315657	-31	136	-37
12315985	-43	144	-41
12316313	-31	133	-42
12316641	-46	137	-45
12316969	-44	141	-52
12317297	-70	137	-51
12317625	-78	142	-40
12317953	-59	143	-47
12318281	-66	140	-38
12318609	-65	135	-51
12318937	-58	138	-56
12319265	-51	147	-53
12319593	-57	138	-47
12319921	-56	147	-49
12320249	-48	147	-47
12320577	-53	132	-48
12320905	-65	141	-44
12321233	-47	121	-47
12321561	-56	143	-49
12321889	-50	145	-45
12322217	-48	137	-56
12322545	-61	128	-52
12322873	-80	135	-49
12323201	-97	145	-63
12323529	-60	128	-50
12323857	-77	124	-46
12324185	-70	137	-57
12324513	-56	149	-57
12324841	-53	135	-39
12325169	-51	129	-36
12325497	-57	129	-55
12325825	-72	130	-51
12326153	-74	135	-33
12326481	-73	117	-41
12326809	-68	121	-35
12327137	-73	121	-43
12327465	-70	124	-42
12327793	-59	126	-41
12328121	-64	132	-36
12328449	-72	140	-39
12328777	-69	128	-36
12329105	-69	145	-45
12329433	-70	141	-48
12329761	-46	134	-32
12330089	-45	145	-40
12330417	-58	144	-50
12330745	-61	138	-46
12331073	-52	139	-50
12331401	-55	142	-65
12331729	-58	143	-54
12332057	-50	149	-39
12332385	-52	147	-47
12332713	-51	144	-50
12333041	-74	133	-45
12333369	-53	137	-34
12333697	-64	133	-44
12334025	-73	133	-42
12334353	-56	126	-34
12334681	-67	127	-47
12335009	-44	113	-48
12335337	-43	136	-34
12335665	-46	124	-39
12335993	-48	141	-45
12336321	-58	133	-38
12336649	-69	132	-38
12336977	-80	133	-25
12337305	-65	138	-44
12337633	-63	119	-47
12337961	-48	134	-40
12338289	-56	136	-38
12338617	-51	134	-47
12338945	-56	125	-44
12339273	-68	125	-55
12339601	-51	143	-52
12339929	-62	132	-46
12340257	-61	129	-32
12340585	-56	129	-38
12340913	-61	121	-47
12341241	-46	144	-36
12341569	-60	135	-45
12341897	-60	135	-45
12342225	-43	127	-43
12342553	-70	128	-61
12342881	-72	126	-48
12343209	-65	133	-40
12343537	-70	131	-40
12343865	-50	122	-47
12344193	-20	141	-44
12344521	-41	122	-38
12344849	-25	128	-31
12345177	-34	115	-29
12345505	-36	144	-32
12345833	-47	140	-44
12346161	-51	140	-54
12346489	-48	124	-38
12346817	-59	132	-41
12347145	-53	138	-18
12347473	-63	135	-35
12347801	-56	130	-32
12348129	-45	129	-38
12348457	-39	136	-51
12348785	-30	118	-47
12349113	-54	124	-50
12349441	-55	119	-35
12349769	-65	138	-51
12350097	-57	128	-55
12350425	-46	133	-50
12350753	-44	139	-40
12351081	-42	131	-56
12351409	-42	135	-57
12351737	-52	150	-62
12352065	-48	134	-68
12352393	-55	139	-46
12352721	-44	151	-52
12353049	-32	151	-58
12353377	-21	151	-50
12353705	-6	153	-63
12354033	-14	146	-68
12354361	-21	146	-61
12354689	-15	141	-54
12355017	-42	153	-67
12355345	-43	133	-63
12355673	-33	143	-58
12356001	-42	136	-57
12356329	-60	143	-56
12356657	-54	140	-51
12356985	-50	132	-66
12357313	-52	136	-61
12357641	-32	133	-63
12357969	-38	143	-57
12358297	-41	146	-68
12358625	-49	150	-64
12358953	-51	149	-60
12359281	-51	140	-52
12359609	-42	137	-57
12359937	-50	144	-63
12360265	-39	150	-58
12360593	-38	145	-54
12360921	-24	160	-53
12361249	-44	130	-58
12361577	-36	152	-43
12361905	-38	143	-65
12362233	-61	150	-67
12362561	-54	119	-50
12362889	-59	139	-60
12363217	-51	154	-74
12363545	-35	152	-58
12363873	-43	140	-68
12364201	-50	152	-65
12364529	-55	157	-62
12364857	-48	147	-62
12365185	-51	165	-76
12365513	-55	140	-79
12365841	-63	155	-67
12366169	-70	134	-72
12366497	-67	137	-68
12366825	-45	147	-61
12367153	-60	132	-67
12367481	-40	149	-63
12367809	-35	152	-71
12368137	-45	132	-63
12368465	-70	153	-70
12368793	-72	134	-65
12369121	-72	117	-77
12369449	-66	125	-65
12369777	-50	129	-63
12370105	-47	116	-56
12370433	-69	130	-53
12370761	-55	137	-44
12371089	-46	124	-57
12371417	-61	133	-66
12371745	-67	141	-60
12372073	-54	150	-66
12372401	-56	143	-62
12372729	-38	147	-75
12373057	-53	150	-64
12373385	-44	139	-79
12373713	-50	145	-81
12374041	-72	149	-64
12374369	-77	150	-70
12374697	-51	140	-75
12375025	-50	140	-75
12375353	-44	142	-85
12375681	-64	160	-84
12376009	-58	146	-78
12376337	-70	146	-67
12376665	-57	149	-83
12376993	-73	137	-59
12377321	-65	143	-74
12377649	-89	132	-67
12377977	-79	152	-66
12378305	-75	139	-63
12378633	-67	149	-66
12378961	-64	139	-70
12379289	-61	151	-64
12379617	-51	149	-61
12379945	-66	143	-68
12380273	-76	153	-75
12380601	-77	147	-61
12380929	-69	140	-79
12381257	-80	144	-68
12381585	-77	157	-63
12381913	-65	148	-54
12382241	-65	147	-62
12382569	-55	155	-72
12382897	-40	156	-70
12383225	-55	157	-80
12383553	-80	153	-75
12383881	-78	156	-70
12384209	-82	159	-66
12384537	-76	168	-73
12384865	-71	156	-58
12385193	-65	165	-74
12385521	-71	143	-72
12385849	-58	157	-62
12386177	-71	146	-70
12386505	-59	159	-72
12386833	-55	156	-73
12387161	-38	165	-71
12387489	-59	161	-80
12387817	-79	166	-68
12388145	-51	145	-57
12388473	-61	161	-61
12388801	-54	145	-56
12389129	-50	157	-62
12389457	-57	174	-58
12389785	-80	165	-63
12390113	-58	167	-50
12390441	-74	168	-57
12390769	-42	158	-59
12391097	-49	165	-51
12391425	-56	171	-72
12391753	-67	137	-50
12392081	-42	160	-49
12392409	-32	177	-71
12392737	-51	160	-77
12393065	-91	146	-60
12393393	-111	137	-37
12393721	-141	166	-50
12394049	-118	138	-51
12394377	-103	158	-39
12394705	-88	160	-40
12395033	-97	165	-45
12395361	-91	148	-36
12395689	-98	156	-46
12396017	-96	166	-47
12396345	-81	160	-23
12396673	-65	152	-26
12397001	-66	147	-25
12397329	-93	148	-22
12397657	-96	158	-30
12397985	-88	138	-23
12398313	-88	138	-11
12398641	-90	135	-12
12398969	-90	144	-5
12399297	-94	145	-16
12399625	-98	144	-11
12399953	-92	147	-2
12400281	-94	128	-6
12400609	-114	138	6
12400937	-103	135	7
12401265	-104	135	-3
12401593	-86	128	-8
12401921	-70	132	18
12402249	-75	119	16
12402577	-73	135	8
12402905	-81	122	-1
12403233	-80	139	20
12403561	-75	143	11
12403889	-83	140	0
12404217	-92	128	13
12404545	-88	134	23
12404873	-79	122	26
12405201	-79	129	13
12405529	-85	117	13
12405857	-91	124	20
12406185	-81	121	27
12406513	-77	141	15
12406841	-69	121	12
12407169	-65	130	19
12407497	-60	115	18
12407825	-87	114	8
12408153	-92	129	9
12408481	-72	116	23
12408809	-58	118	17
12409137	-66	113	16
12409465	-41	119	5
12409793	-64	119	7
12410121	-67	110	9
12410449	-70	118	18
12410777	-85	107	15
12411105	-86	112	10
12411433	-64	126	24
12411761	-55	114	17
12412089	-63	124	25
12412417	-68	114	20
12412745	-70	105	21
12413073	-79	101	32
12413401	-84	103	21
12413729	-78	89	13
12414057	-90	102	14
12414385	-94	100	19
12414713	-96	108	20
12415041	-102	113	9
12415369	-92	98	25
12415697	-81	106	25
12416025	-72	102	12
12416353	-81	111	4
12416681	-82	115	6
12417009	-93	108	4
12417337	-98	119	1
12417665	-88	114	8
12417993	-78	117	14
12418321	-77	115	-5
12418649	-68	117	-10
12418977	-63	114	4
12419305	-83	115	5
12419633	-87	112	5
12419961	-79	114	-2
12420289	-79	124	1
12420617	-66	106	-5
12420945	-60	119	-7
12421273	-44	103	2
12421601	-55	101	-4
12421929	-56	115	-4
12422257	-49	119	-8
12422585	-39	116	-5
12422913	-43	114	-3
12423241	-46	124	-20
12423569	-37	107	-10
12423897	-28	116	-7
12424225	-31	121	-10
12424553	-32	123	-14
12424881	-11	115	-13
12425209	2	112	-18
12425537	-1	114	-18
12425865	-28	129	-18
12426193	-21	129	-26
12426521	-45	133	-29
12426849	-43	127	-37
12427177	-45	127	-22
12427505	-57	119	-22
12427833	-44	123	-27
12428161	-49	114	-32
12428489	-26	130	-21
12428817	-41	118	-31
12429145	-57	121	-17
12429473	-56	124	-21
12429801	-55	130	-24
12430129	-48	121	-20
12430457	-44	123	-21
12430785	-43	128	-28
12431113	-50	127	-11
12431441	-69	116	-4
12431769	-64	116	-3
12432097	-77	114	0
12432425	-71	122	-8
12432753	-89	121	-25
12433081	-99	110	-10
12433409	-90	118	-7
12433737	-108	127	-26
12434065	-101	119	-14
12434393	-105	132	-14
12434721	-93	113	-21
12435049	-97	115	-27
12435377	-111	121	-21
12435705	-123	125	-19
12436033	-114	123	-21
12436361	-104	134	-19
12436689	-107	132	-12
12437017	-103	123	5
12437345	-104	130	-6
12437673	-113	116	-9
12438001	-123	128	1
12438329	-124	134	-2
12438657	-118	138	-2
12438985	-116	134	-1
12439313	-88	145	3
12439641	-85	158	9
12439969	-78	150	13
12440297	-79	136	11
12440625	-75	139	-1
12440953	-81	164	-3
12441281	-74	143	11
12441609	-71	150	6
12441937	-56	143	7
12442265	-31	151	6
12442593	-54	147	14
12442921	-57	141	16
12443249	-44	132	17
12443577	-75	123	5
12443905	-40	132	8
12444233	-62	145	0
12444561	-28	144	-7
12444889	-27	132	-8
12445217	-15	138	-18
12445545	-25	147	-1
12445873	-46	137	2
12446201	-52	136	1
12446529	-38	147	-28
12446857	-21	126	-8
12447185	5	128	-14
12447513	-11	122	-11
12447841	7	141	-20
12448169	-15	130	-29
12448497	-6	126	-17
12448825	-29	135	-21
12449153	-19	134	-25
12449481	-13	153	-28
12449809	-16	139	-26
12450137	1	123	-24
12450465	-7	119	-16
12450793	-30	122	-20
12451121	-30	123	-23
12451449	-37	133	-24
12451777	-45	126	-19
12452105	-51	126	-20
12452433	-43	125	-26
12452761	-49	105	-20
12453089	-35	130	-22
12453417	-28	137	-31
12453745	-26	115	-20
12454073	-25	125	-19
12454401	-45	126	-21
12454729	-43	119	-1
12455057	-49	117	-11
12455385	-40	126	-11
12455713	-44	112	-19
12456041	-46	128	-18
12456369	-56	123	-15
12456697	-39	120	-10
12457025	-28	115	-19
12457353	-40	117	-14
12457681	-42	125	-21
12458009	-55	120	-13
12458337	-73	114	-4
12458665	-75	112	-12
12458993	-59	107	-16
12459321	-54	109	-12
12459649	-61	117	-13
12459977	-65	105	-14
12460305	-72	116	-14
12460633	-92	111	-14
12460961	-86	122	-14
12461289	-80	117	-17
12461617	-82	127	-11
12461945	-92	107	-19
12462273	-68	126	-17
12462601	-78	126	-9
12462929	-71	124	-17
12463257	-77	126	-27
12463585	-67	139	-19
12463913	-71	131	-30
12464241	-51	132	-22
12464569	-79	133	-17
12464897	-44	126	-26
12465225	-57	126	-10
12465553	-39	122	-2
12465881	-47	124	-8
12466209	-57	124	-18
12466537	-58	120	-13
12466865	-60	120	-10
12467193	-67	132	-12
12467521	-79	120	-16
12467849	-79	127	-13
12468177	-80	131	-9
12468505	-58	118	-8
12468833	-56	118	-12
12469161	-60	113	-7
12469489	-70	108	5
12469817	-73	125	6
12470145	-82	122	-4
12470473	-71	105	4
12470801	-63	103	10
12471129	-75	107	6
12471457	-71	112	10
12471785	-76	115	21
12472113	-84	105	19
12472441	-75	114	17
12472769	-88	102	18
12473097	-70	115	26
12473425	-75	112	12
12473753	-65	107	27
12474081	-88	108	38
12474409	-118	99	45
12474737	-126	96	51
12475065	-107	103	54
12475393	-106	95	57
12475721	-88	98	49
12476049	-54	123	44
12476377	-67	111	34
12476705	-63	94	49
12477033	-63	118	66
12477361	-52	128	37
12477689	-57	130	48
12478017	-57	129	46
12478345	-44	144	30
12478673	-58	119	11
12479001	-65	130	31
12479329	-70	129	22
12479657	-84	127	11
12479985	-92	148	12
12480313	-75	144	5
12480641	-55	136	-11
12480969	-61	138	0
12481297	-46	139	3
12481625	-56	138	8
12481953	-58	142	-3
12482281	-57	136	-2
12482609	-60	143	-3
12482937	-50	133	6
12483265	-49	116	5
12483593	-25	118	9
12483921	-29	126	28
12484249	-38	118	9
12484577	-38	130	17
12484905	-43	132	17
12485233	-27	120	14
12485561	-39	130	3
12485889	-47	134	7
12486217	-36	134	-1
12486545	-39	126	-12
12486873	-54	134	8
12487201	-60	135	2
12487529	-40	138	8
12487857	-35	128	-10
12488185	-53	145	-3
12488513	-66	135	7
12488841	-78	123	6
12489169	-82	138	12
12489497	-71	138	12
12489825	-58	122	-2
12490153	-79	137	-4
12490481	-82	119	-1
12490809	-90	136	10
12491137	-137	116	32
12491465	-153	112	18
12491793	-134	122	18
12492121	-101	143	7
12492449	-91	154	-2
12492777	-75	143	3
12493105	-76	137	14
12493433	-84	127	8
12493761	-90	136	4
12494089	-91	129	5
12494417	-99	132	16
12494745	-101	133	3
12495073	-90	151	5
12495401	-60	137	7
12495729	-75	140	-7
12496057	-104	142	-12
12496385	-104	145	1
12496713	-110	139	-15
12497041	-103	135	-12
12497369	-113	155	-14
12497697	-94	141	-9
12498025	-113	151	-6
12498353	-127	129	-22
12498681	-117	156	-17
12499009	-112	152	-20
12499337	-94	148	-14
12499665	-92	152	-32
12499993	-93	146	-20
12500321	-85	145	-17
12500649	-91	143	-28
12500977	-87	152	-13
12501305	-104	151	-11
12501633	-82	132	-32
12501961	-65	139	-34
12502289	-84	140	-20
12502617	-84	131	-23
12502945	-77	137	-35
12503273	-81	150	-45
12503601	-75	138	-29
12503929	-77	144	-29
12504257	-89	137	-35
12504585	-101	131	-36
12504913	-111	133	-43
12505241	-106	146	-31
12505569	-96	136	-17
12505897	-88	129	-23
12506225	-94	131	-25
12506553	-95	135	-30
12506881	-82	135	-31
12507209	-95	133	-20
12507537	-100	130	-36
12507865	-105	129	-17
12508193	-100	118	-30
12508521	-80	145	-35
12508849	-61	128	-46
12509177	-68	140	-40
12509505	-60	143	-41
12509833	-78	143	-48
12510161	-79	138	-43
12510489	-68	152	-42
12510817	-76	145	-40
12511145	-69	148	-37
12511473	-54	142	-31
12511801	-39	147	-42
12512129	-33	147	-34
12512457	-31	144	-40
12512785	-22	160	-40
12513113	-30	146	-43
12513441	-22	153	-34
12513769	-32	140	-24
12514097	-19	157	-47
12514425	-14	143	-40
12514753	-33	136	-35
12515081	-27	131	-36
12515409	-51	143	-31
12515737	-40	133	-30
12516065	-25	130	-32
12516393	-25	142	-27
12516721	9	137	-31
12517049	-3	133	-27
12517377	4	130	-25
12517705	4	147	-30
12518033	3	139	-29
12518361	20	156	-35
12518689	18	128	-34
12519017	22	151	-36
12519345	27	143	-33
12519673	26	141	-22
12520001	38	144	-19
12520329	47	142	-24
12520657	72	146	-26
12520985	69	141	-22
12521313	90	146	-3
12521641	94	131	1
12521969	98	148	7
12522297	113	145	12
12522625	108	134	12
12522953	119	136	21
12523281	114	134	39
12523609	131	131	40
12523937	107	131	43
12524265	104	131	46
12524593	73	118	43
12524921	92	130	40
12525249	77	125	45
12525577	69	130	47
12525905	58	116	42
12526233	15	132	52
12526561	14	100	54
12526889	-17	106	56
12527217	-7	112	61
12527545	-21	105	64
12527873	-33	101	53
12528201	-44	88	38
12528529	-54	92	49
12528857	-91	94	58
12529185	-117	89	58
12529513	-137	80	45
12529841	-143	79	28
12530169	-131	89	41
12530497	-132	100	21
12530825	-143	99	-1
12531153	-141	82	3
12531481	-148	81	4
12531809	-186	86	-4
12532137	-184	68	-4
12532465	-233	77	13
12532793	-219	78	-4
12533121	-213	79	1
12533449	-207	92	-9
12533777	-174	76	10
12534105	-173	90	-6
12534433	-193	91	-13
12534761	-210	93	-19
12535089	-221	96	-39
12535417	-239	117	-41
12535745	-243	115	-47
12536073	-265	111	-57
12536401	-240	99	-66
12536729	-247	111	-58
12537057	-260	111	-76
12537385	-252	111	-73
12537713	-267	122	-87
12538041	-282	127	-86
12538369	-285	118	-101
12538697	-293	118	-94
12539025	-277	135	-95
12539353	-241	140	-114
12539681	-208	132	-112
12540009	-185	136	-102
12540337	-158	136	-81
12540665	-165	130	-77
12540993	-128	156	-82
12541321	-108	124	-61
12541649	-86	164	-64
12541977	-68	143	-53
12542305	-45	150	-48
12542633	-70	144	-51
12542961	-81	145	-47
12543289	-74	153	-29
12543617	-79	140	-52
12543945	-107	139	-41
12544273	-117	131	-29
12544601	-118	134	-41
12544929	-93	150	-38
12545257	-54	139	-42
12545585	-6	155	-28
12545913	19	139	-21
12546241	37	137	-24
12546569	57	135	-11
12546897	54	138	-5
12547225	56	141	-17
12547553	80	147	-17
12547881	110	147	-18
12548209	120	153	-20
12548537	145	161	-18
12548865	127	155	-22
12549193	124	172	-13
12549521	113	164	-13
12549849	116	171	-13
12550177	120	148	-11
12550505	121	155	-12
12550833	104	151	-8
12551161	101	146	-11
12551489	93	125	20
12551817	87	155	7
12552145	87	132	5
12552473	71	147	6
12552801	49	140	-7
12553129	20	132	-24
12553457	5	124	-17
12553785	-38	130	-13
12554113	-58	120	-13
12554441	-70	121	-19
12554769	-92	139	-24
12555097	-95	123	-22
12555425	-96	127	-18
12555753	-92	126	-26
12556081	-84	112	-27
12556409	-98	108	-29
12556737	-89	125	-25
12557065	-87	125	-40
12557393	-83	125	-51
12557721	-85	134	-56
12558049	-94	132	-49
12558377	-127	112	-44
12558705	-146	130	-51
12559033	-137	136	-64
12559361	-109	135	-65
12559689	-93	138	-69
12560017	-63	152	-73
12560345	-29	152	-84
12560673	-41	167	-76
12561001	-31	163	-76
12561329	-66	150	-71
12561657	-52	152	-63
12561985	-54	154	-48
12562313	-12	163	-54
12562641	2	163	-45
12562969	45	167	-40
12563297	27	155	-37
12563625	20	150	-24
12563953	-21	154	-29
12564281	-38	150	-14
12564609	-71	153	-6
12564937	-72	151	-11
12565265	-76	140	-9
12565593	-71	141	-11
12565921	-100	133	-7
12566249	-119	129	-20
12566577	-176	124	-28
12566905	-242	95	-9
12567233	-282	123	-2
12567561	-297	119	-14
12567889	-291	103	-24
12568217	-258	101	-41
12568545	-244	103	-41
12568873	-272	100	-36
12569201	-269	107	-32
12569529	-275	100	-57
12569857	-323	103	-75
12570185	-324	82	-85
12570513	-337	100	-94
12570841	-361	117	-86
12571169	-353	94	-87
12571497	-333	82	-89
12571825	-333	89	-89
12572153	-312	86	-80
12572481	-303	87	-75
12572809	-311	69	-75
12573137	-312	81	-71
12573465	-318	65	-80
12573793	-311	73	-87
12574121	-314	64	-80
12574449	-304	60	-100
12574777	-326	59	-105
12575105	-309	70	-88
12575433	-289	85	-95
12575761	-289	75	-112
12576089	-269	88	-137
12576417	-245	88	-156
12576745	-243	109	-162
12577073	-231	96	-189
12577401	-223	88	-207
12577729	-168	114	-231
12578057	-110	59	-275
12578385	-122	-181	-301
12578713	-136	-317	-342
12579041	-123	-249	-401
12579369	-115	-243	-456
12579697	-187	-404	-540
12580025	-229	-605	-640
12580353	-216	-785	-732
12580681	-83	-556	-877
12581009	-3	-625	-1064
12581337	33	-372	-1240
12581665	147	-245	-1486
12581993	14	-129	-1664
12582321	-233	20	-1717
12582649	-199	-126	-1790
12582977	-5	-84	-2011
12583305	82	454	-2387
12583633	271	932	-2912
12583961	506	1349	-3419
12584289	427	1513	-3680
12584617	143	1764	-3750
12584945	-140	1966	-3676
12585273	-545	2023	-3481
12585601	-833	1929	-3111
12585929	-1328	1786	-3095
12586257	-1543	1562	-3158
12586585	-1907	1083	-3221
12586913	-1970	519	-3156
12587241	-2595	-215	-3384
12587569	-2765	-191	-2841
12587897	-3420	-765	-2740
12588225	-3998	-791	-2380
12588553	-4214	-473	-2087
12588881	-3729	88	-1224
12589209	-2188	1111	-243
12589537	253	2194	891
12589865	2937	4026	2355
12590193	4014	5173	4162
12590521	3585	3121	5434
12590849	3664	249	3981
12591177	3531	869	2761
12591505	3151	2379	2556
12591833	3788	2202	3015
12592161	5239	581	3458
12592489	6475	-1209	3490
12592817	7156	-490	3235
12593145	8084	485	3022
12593473	9315	601	2871
12593801	9522	1851	3391
12594129	9293	822	4197
12594457	7801	-873	4667
12594785	7532	-3520	5072
12595113	4175	-964	2921
12595441	1787	2551	512
12595769	3084	1052	382
12596097	3738	-2343	2141
12596425	2216	466	1459
12596753	1488	1690	1436
12597081	1518	187	1817
12597409	579	395	1488
12597737	102	1073	1002
12598065	88	624	621
12598393	169	934	303
12598721	257	1878	-403
12599049	388	1284	-710
12599377	114	770	-1004
12599705	-652	416	-1141
12600033	-1139	0	-1201
12600361	-1185	-104	-1193
12600689	-1082	264	-1205
12601017	-865	512	-1221
12601345	-659	562	-1114
12601673	-514	607	-1099
12602001	-1637	1964	-1171
12602329	-3105	4818	-1744
12602657	-3233	7286	-8938
12602985	-3925	1932	-8046
12603313	-4016	-1595	-2941
12603641	-2875	-7306	-1364
12603969	-1709	-5112	-64
12604297	-3860	1694	-65
12604625	-3740	3785	191
12604953	-10303	-1755	958
12605281	-2755	7005	-1770
12605609	2963	-12298	-10497
12605937	-4172	-7704	-2186
12606265	-3598	7433	2224
12606593	-2167	12363	-3223
12606921	2949	7409	-4322
12607249	10211	13	43
12607577	10429	-7586	3050
12607905	8179	-8389	2857
12608233	3674	-372	2954
12608561	-1140	5449	2518
12608889	-4017	1935	1515
12609217	-4272	-1585	1428
12609545	-2169	326	1266
12609873	-593	1624	1048
12610201	983	-6	1375
12610529	1397	-48	1347
12610857	1225	-1276	2124
12611185	1036	173	1341
12611513	1832	890	838
12611841	1133	-974	1184
12612169	791	-1411	1059
12612497	255	-1013	811
12612825	-487	-1173	1112
12613153	-974	-1047	1181
12613481	-1564	-1205	1695
12613809	-1804	-1457	970
12614137	-2006	-531	1019
12614465	-1317	-607	1008
12614793	-860	-571	589
12615121	-626	-38	342
12615449	-401	-16	675
12615777	-339	-235	676
12616105	175	-263	329
12616433	-72	280	379
12616761	222	61	318
12617089	324	-457	241
12617417	345	-550	302
12617745	200	-454	350
12618073	-160	-303	362
12618401	-240	70	224
12618729	-210	-144	-106
12619057	-333	216	445
12619385	-526	-123	398
12619713	-649	194	358
12620041	-680	172	279
12620369	-622	86	370
12620697	-743	31	306
12621025	-647	222	273
12621353	-485	144	301
12621681	-279	153	284
12622009	-77	241	196
12622337	35	237	143
12622665	60	171	122
12622993	115	170	131
12623321	87	302	136
12623649	42	359	126
12623977	131	213	86
12624305	130	67	92
12624633	61	106	85
12624961	-1	152	41
12625289	-35	233	36
12625617	-55	231	-7
12625945	-96	297	-50
12626273	-128	389	-25
12626601	-130	419	-40
12626929	-120	561	-66
12627257	-63	701	-105
12627585	42	752	-144
12627913	120	733	-135
12628241	109	651	-119
12628569	39	472	-118
12628897	-10	457	-98
12629225	-28	436	-69
12629553	-12	356	-57
12629881	13	332	-94
12630209	36	282	-125
12630537	74	182	-109
12630865	120	148	-109
12631193	109	147	-108
12631521	82	103	-111
12631849	93	18	-28
12632177	108	-31	-38
12632505	144	16	-39
12632833	200	-9	-56
12633161	228	3	-106
12633489	151	82	-107
12633817	138	31	-109
12634145	78	-19	-65
12634473	48	-49	-33
12634801	-2	-17	-68
12635129	-17	58	-79
12635457	1	76	-88
12635785	33	72	-110
12636113	43	93	-109
12636441	56	81	-65
12636769	26	54	-55
12637097	12	100	-66
12637425	39	101	-82
12637753	44	148	-90
12638081	23	116	-101
12638409	24	131	-98
12638737	-27	98	-60
12639065	-30	46	-28
12639393	-68	50	-2
12639721	-91	78	2
12640049	-68	75	-5
12640377	-59	85	4
12640705	-9	86	-10
12641033	11	92	6
12641361	45	114	13
12641689	39	92	5
12642017	40	108	-1
12642345	19	123	-6
12642673	-12	114	6
12643001	-33	89	25
12643329	-45	84	15
12643657	-82	99	23
12643985	-102	91	41
12644313	-42	64	5
12644641	-67	84	15
12644969	-59	66	-1
12645297	-37	108	12
12645625	-36	67	-14
12645953	-50	114	-1
12646281	-46	110	26
12646609	-62	93	2
12646937	-61	133	-11
12647265	-50	110	-43
12647593	-16	135	-23
12647921	-33	124	-37
12648249	-54	118	-11
12648577	-87	116	-6
12648905	-96	133	-2
12649233	-123	137	-28
12649561	-111	135	-28
12649889	-71	138	-42
12650217	-112	137	-50
12650545	-121	114	-64
12650873	-135	137	-57
12651201	-167	109	-45
12651529	-185	134	-43
12651857	-163	125	-51
12652185	-149	123	-69
12652513	-114	129	-57
12652841	-85	130	-61
12653169	-54	134	-78
12653497	-55	139	-70
12653825	-76	140	-68
12654153	-91	121	-51
12654481	-116	121	-49
12654809	-138	116	-43
12655137	-113	138	-55
12655465	-84	126	-60
12655793	-81	129	-86
12656121	-96	122	-62
12656449	-95	111	-70
12656777	-119	118	-74
12657105	-103	133	-86
12657433	-104	122	-54
12657761	-98	126	-57
12658089	-116	127	-62
12658417	-86	117	-48
12658745	-84	143	-60
12659073	-74	117	-60
12659401	-124	143	-66
12659729	-96	107	-53
12660057	-99	160	-25
12660385	-84	86	-63
12660713	-87	156	-56
12661041	-86	138	-33
12661369	-62	106	-30
12661697	-100	135	-29
12662025	-108	120	-23
12662353	-96	130	-32
12662681	-103	127	-39
12663009	-102	146	-37
12663337	-111	124	-20
12663665	-125	115	-8
12663993	-109	131	-22
12664321	-115	129	-34
12664649	-98	127	-31
12664977	-96	114	-7
12665305	-82	134	-32
12665633	-83	149	-4
12665961	-75	115	-10
12666289	-72	117	-21
12666617	-90	141	-26
12666945	-84	126	-15
12667273	-77	130	-22
12667601	-64	122	-37
12667929	-74	132	-13
12668257	-59	120	-11
12668585	-81	100	-13
12668913	-97	121	-2
12669241	-76	109	-7
12669569	-81	114	-17
12669897	-69	122	-19
12670225	-66	112	-14
12670553	-59	119	-30
12670881	-73	109	-36
12671209	-77	119	-24
12671537	-100	103	-28
12671865	-94	122	-36
12672193	-103	114	-43
12672521	-96	124	-47
12672849	-105	125	-45
12673177	-112	123	-47
12673505	-90	115	-57
12673833	-101	130	-59
12674161	-100	124	-57
12674489	-82	134	-61
12674817	-72	138	-59
12675145	-35	145	-53
12675473	-15	140	-73
12675801	-1	129	-58
12676129	-11	146	-58
12676457	-40	140	-54
12676785	-57	118	-49
12677113	-69	147	-44
12677441	-86	121	-65
12677769	-99	126	-48
12678097	-110	127	-53
12678425	-94	111	-60
12678753	-108	126	-57
12679081	-115	128	-68
12679409	-89	141	-81
12679737	-109	125	-71
12680065	-113	121	-52
12680393	-109	107	-50
12680721	-124	122	-35
12681049	-118	125	-38
12681377	-69	121	-55
12681705	-49	124	-53
12682033	-62	126	-88
12682361	-37	104	-61
12682689	-52	122	-37
12683017	-61	118	-56
12683345	-88	148	-80
12683673	-121	152	-62
12684001	-91	111	-66
12684329	-102	133	-81
12684657	-126	120	-71
12684985	-102	141	-57
12685313	-94	125	-61
12685641	-101	129	-60
12685969	-50	140	-73
12686297	-58	121	-68
12686625	-40	141	-50
12686953	-26	143	-62
12687281	-10	137	-78
12687609	-26	147	-89
12687937	-48	133	-76
12688265	-62	135	-76
12688593	-70	137	-59
12688921	-58	118	-73
12689249	-61	117	-62
12689577	-58	133	-62
12689905	-62	136	-66
12690233	-47	126	-76
12690561	-33	116	-77
12690889	-19	123	-76
12691217	-18	133	-87
12691545	-30	148	-87
12691873	-36	133	-97
12692201	-62	136	-87
12692529	-83	121	-78
12692857	-53	128	-76
12693185	-60	136	-98
12693513	-47	124	-96
12693841	-28	120	-77
12694169	-3	108	-92
12694497	-14	124	-97
12694825	-16	126	-92
12695153	-38	125	-98
12695481	-38	146	-98
12695809	-69	131	-109
12696137	-40	141	-103
12696465	-42	155	-107
12696793	-52	134	-99
12697121	-62	146	-92
12697449	-61	131	-93
12697777	-33	154	-98
12698105	-26	148	-89
12698433	-2	155	-109
12698761	-32	122	-99
12699089	-20	152	-109
12699417	-7	140	-108
12699745	-50	132	-122
12700073	-72	129	-92
12700401	-89	130	-96
12700729	-82	126	-102
12701057	-47	151	-93
12701385	-21	149	-114
12701713	-15	148	-119
12702041	-55	117	-119
12702369	-58	105	-104
12702697	-88	111	-112
12703025	-81	113	-103
12703353	-100	135	-122
12703681	-85	137	-131
12704009	-92	121	-139
12704337	-107	120	-118
12704665	-113	108	-102
12704993	-84	129	-113
12705321	-45	137	-136
12705649	-59	160	-137
12705977	-84	127	-120
12706305	-68	121	-111
12706633	-43	131	-111
12706961	-31	170	-133
12707289	-56	119	-120
12707617	-53	121	-123
12707945	-103	101	-100
12708273	-107	139	-97
12708601	-92	134	-96
12708929	-56	143	-110
12709257	-14	142	-103
12709585	-16	139	-107
12709913	-50	116	-106
12710241	-41	117	-88
12710569	-54	130	-85
12710897	-70	125	-95
12711225	-70	130	-91
12711553	-53	128	-77
12711881	-68	124	-82
12712209	-40	126	-90
12712537	-27	115	-66
12712865	-35	119	-77
12713193	-61	97	-86
12713521	-92	92	-72
12713849	-92	114	-74
12714177	-103	112	-73
12714505	-110	108	-67
12714833	-85	113	-63
12715161	-85	100	-61
12715489	-68	114	-69
12715817	-55	129	-69
12716145	-67	83	-51
12716473	-96	119	-52
12716801	-105	111	-61
12717129	-120	114	-51
12717457	-132	132	-70
12717785	-77	123	-58
12718113	-71	130	-70
12718441	-64	120	-62
12718769	-72	125	-65
12719097	-90	102	-51
12719425	-108	108	-58
12719753	-99	124	-52
12720081	-101	140	-53
12720409	-76	122	-57
12720737	-74	125	-60
12721065	-103	122	-46
12721393	-95	113	-29
12721721	-109	116	-31
12722049	-123	115	-30
12722377	-132	121	-23
12722705	-110	121	-20
12723033	-94	120	-31
12723361	-73	114	-30
12723689	-73	109	-39
12724017	-93	105	-40
12724345	-107	110	-35
12724673	-120	109	-34
12725001	-148	115	-24
12725329	-157	121	-37
12725657	-141	122	-47
12725985	-133	109	-12
12726313	-121	107	-12
12726641	-102	106	-31
12726969	-97	108	-25
12727297	-94	113	-37
12727625	-95	107	-39
12727953	-128	119	-35
12728281	-138	119	-27
12728609	-131	124	-1
12728937	-101	149	-19
12729265	-76	134	-37
12729593	-7	134	-32
12729921	-6	116	-35
12730249	-14	105	-27
12730577	-55	111	-46
12730905	-86	111	-29
12731233	-98	119	-32
12731561	-93	115	-28
12731889	-74	99	-34
12732217	-49	100	-39
12732545	-10	95	-39
12732873	-23	123	-53
12733201	-32	112	-48
12733529	-55	96	-62
12733857	-92	91	-51
12734185	-122	86	-59
12734513	-132	91	-66
12734841	-133	60	-66
12735169	-152	85	-66
12735497	-173	62	-67
12735825	-195	94	-60
12736153	-231	55	-61
12736481	-232	82	-52
12736809	-190	70	-55
12737137	-212	88	-72
12737465	-195	86	-75
12737793	-183	88	-73
12738121	-177	82	-60
12738449	-178	102	-64
12738777	-168	109	-82
12739105	-156	100	-67
12739433	-151	108	-69
12739761	-153	95	-45
12740089	-136	100	-48
12740417	-131	107	-52
12740745	-125	104	-52
12741073	-82	103	-47
12741401	-68	119	-55
12741729	-81	100	-67
12742057	-110	95	-67
12742385	-82	116	-58
12742713	-76	119	-58
12743041	-31	142	-84
12743369	-35	122	-88
12743697	-42	99	-82
12744025	-58	110	-86
12744353	-59	117	-75
12744681	-78	111	-78
12745009	-68	113	-87
12745337	-35	123	-100
12745665	-15	124	-110
12745993	3	128	-123
12746321	34	118	-122
12746649	53	140	-110
12746977	52	152	-140
12747305	24	132	-129
12747633	-23	106	-120
12747961	-65	101	-115
12748289	-73	130	-113
12748617	-94	114	-116
12748945	-80	135	-120
12749273	-44	143	-138
12749601	-13	145	-138
12749929	-19	100	-135
12750257	-57	126	-113
12750585	-94	110	-107
12750913	-117	121	-122
12751241	-130	130	-122
12751569	-93	130	-132
12751897	-55	123	-133
12752225	-21	150	-123
12752553	-24	111	-128
12752881	-79	113	-109
12753209	-86	117	-98
12753537	-92	109	-89
12753865	-87	144	-96
12754193	-67	136	-103
12754521	-38	134	-103
12754849	-12	130	-106
12755177	-7	133	-99
12755505	-22	126	-96
12755833	-58	114	-81
12756161	-62	119	-76
12756489	-76	113	-87
12756817	-71	117	-81
12757145	-37	133	-88
12757473	-10	125	-65
12757801	-38	117	-83
12758129	-44	114	-77
12758457	-35	121	-64
12758785	-40	150	-71
12759113	-35	140	-69
12759441	1	144	-69
12759769	-21	150	-108
12760097	-36	138	-76
12760425	-49	127	-68
12760753	-61	149	-76
12761081	-71	150	-82
12761409	-56	138	-60
12761737	-45	139	-57
12762065	-26	159	-66
12762393	33	156	-68
12762721	1	139	-60
12763049	-54	122	-54
12763377	-130	121	-22
12763705	-136	121	-31
12764033	-139	142	-32
12764361	-112	132	-32
12764689	-73	119	-16
12765017	-43	142	-23
12765345	-47	134	-26
12765673	-50	142	-21
12766001	-59	124	-6
12766329	-95	131	-9
12766657	-123	111	-12
12766985	-111	134	0
12767313	-104	130	6
12767641	-82	122	7
12767969	-71	123	9
12768297	-50	136	0
12768625	-29	119	9
12768953	-32	111	12
12769281	-52	134	7
12769609	-67	139	5
12769937	-72	123	10
12770265	-76	130	5
12770593	-50	134	17
12770921	-49	123	30
12771249	-46	134	25
12771577	-29	116	32
12771905	-64	120	34
12772233	-71	122	34
12772561	-67	123	44
12772889	-73	119	24
12773217	-66	128	22
12773545	-48	116	27
12773873	-67	99	33
12774201	-62	107	32
12774529	-73	106	51
12774857	-69	108	37
12775185	-78	109	20
12775513	-69	99	28
12775841	-66	107	16
12776169	-83	88	32
12776497	-87	98	27
12776825	-87	112	30
12777153	-64	105	35
12777481	-34	98	25
12777809	-40	94	43
12778137	-51	88	24
12778465	-54	85	31
12778793	-58	85	30
12779121	-80	78	41
12779449	-81	90	19
12779777	-86	86	29
12780105	-82	79	32
12780433	-74	92	27
12780761	-74	104	20
12781089	-62	90	21
12781417	-28	105	14
12781745	-31	115	15
12782073	-56	109	17
12782401	-58	90	15
12782729	-77	105	5
12783057	-69	104	19
12783385	-68	101	9
12783713	-26	116	15
12784041	-12	100	15
12784369	5	99	41
12784697	48	79	50
12785025	62	81	43
12785353	49	17	59
12785681	35	10	84
12786009	11	-31	86
12786337	11	-83	118
12786665	-61	-129	140
12786993	-113	-147	182
12787321	-107	-111	181
12787649	-34	-63	178
12787977	84	-47	151
12788305	174	-123	161
12788633	156	-165	172
12788961	88	-129	149
12789289	75	-147	152
12789617	73	-97	137
12789945	135	-102	132
12790273	162	-100	127
12790601	187	-112	97
12790929	197	-108	90
12791257	200	-94	67
12791585	266	-94	77
12791913	323	-82	17
12792241	323	-83	6
12792569	358	-102	-19
12792897	460	-132	-12
12793225	496	-118	-53
12793553	529	-139	-64
12793881	559	-140	-81
12794209	569	-113	-105
12794537	594	-100	-131
12794865	637	-112	-160
12795193	621	-114	-149
12795521	627	-141	-167
12795849	629	-168	-201
12796177	598	-199	-205
12796505	544	-232	-211
12796833	514	-230	-242
12797161	472	-216	-264
12797489	423	-230	-294
12797817	390	-302	-313
12798145	261	-499	-304
12798473	135	-626	-327
12798801	112	-560	-316
12799129	64	-1035	-320
12799457	73	-1014	-423
12799785	119	-983	-498
12800113	340	-1023	-578
12800441	619	-594	-745
12800769	705	-117	-985
12801097	755	250	-938
12801425	867	639	-976
12801753	1173	1268	-974
12802081	1754	1975	-885
12802409	2455	2448	-849
12802737	2910	2886	-667
12803065	3327	3030	-650
12803393	3628	3355	-453
12803721	3761	3507	-367
12804049	3763	3837	-211
12804377	3543	4065	-127
12804705	2955	4045	-122
12805033	2192	4086	-5
12805361	1252	4036	66
12805689	315	3892	202
12806017	-562	3740	194
12806345	-1199	3566	145
12806673	-1692	3339	176
12807001	-1942	3018	188
12807329	-1995	2720	226
12807657	-1854	2468	253
12807985	-1806	2102	217
12808313	-2153	1593	-14
12808641	-2361	922	-175
12808969	-2615	785	-353
12809297	-2901	793	-526
12809625	-3164	619	-718
12809953	-3294	374	-915
12810281	-3466	-266	-1170
12810609	-3664	-513	-1437
12810937	-3856	-816	-1702
12811265	-3979	-1165	-1834
12811593	-4058	-1411	-1962
12811921	-4108	-1477	-2069
12812249	-4048	-1425	-2201
12812577	-3990	-1540	-2319
12812905	-3858	-1529	-2351
12813233	-3584	-1568	-2410
12813561	-3202	-1655	-2476
12813889	-2733	-1674	-2524
12814217	-2205	-1544	-2622
12814545	-1391	-1437	-2630
12814873	-846	-1404	-2586
12815201	-441	-1809	-2488
12815529	-420	-2928	-2261
12815857	-624	-3359	-2161
12816185	-689	-3493	-2004
12816513	-755	-3678	-1902
12816841	-916	-3723	-1804
12817169	-1074	-3748	-1718
12817497	-1147	-3731	-1616
12817825	-1231	-3742	-1515
12818153	-1190	-3656	-1418
12818481	-1208	-3538	-1308
12818809	-1258	-3652	-1164
12819137	-1327	-3825	-1063
12819465	-1654	-3783	-990
12819793	-2017	-3633	-987
12820121	-2314	-3399	-958
12820449	-2604	-3208	-932
12820777	-2826	-2876	-896
12821105	-3055	-2539	-913
12821433	-3321	-2290	-922
12821761	-3702	-2226	-983
12822089	-4479	-2586	-1036
12822417	-4967	-2932	-1083
12822745	-4851	-2501	-1059
12823073	-4315	-1713	-856
12823401	-3685	-1415	-376
12823729	-3419	-1417	59
12824057	-3013	-1417	110
12824385	-2123	-1445	206
12824713	-1523	-1281	438
12825041	-1154	-896	491
12825369	-840	-531	501
12825697	-545	-442	573
12826025	-350	-451	980
12826353	-566	-491	1387
12826681	-950	-366	1583
12827009	-1302	-185	1605
12827337	-1540	-296	1568
12827665	-1702	-242	1432
12827993	-1705	-154	1357
12828321	-1500	-260	1415
12828649	-1286	-367	1558
12828977	-1372	-231	1659
12829305	-1685	25	1504
12829633	-1837	251	1231
12829961	-1711	474	999
12830289	-1303	729	970
12830617	-759	1011	1047
12830945	-449	1074	1127
12831273	-377	1039	1057
12831601	-424	1058	896
12831929	-365	1021	779
12832257	-204	1070	739
12832585	28	1076	822
12832913	-6	1037	783
12833241	-124	917	802
12833569	-231	879	807
12833897	-426	829	721
12834225	-593	720	546
12834553	-622	626	230
12834881	-528	529	46
12835209	-404	476	-111
12835537	-295	456	-257
12835865	-223	371	-327
12836193	-340	186	-348
12836521	-485	-26	-382
12836849	-764	-21	-474
12837177	-889	-77	-609
12837505	-952	-144	-673
12837833	-1018	-223	-705
12838161	-1037	-225	-764
12838489	-950	-190	-854
12838817	-805	-147	-987
12839145	-547	-188	-1137
12839473	-317	-299	-1224
12839801	-169	-492	-1264
12840129	314	-2024	-1216
12840457	478	-4092	-1150
12840785	684	-4272	-1185
12841113	647	-5355	-1309
12841441	237	-4232	-1313
12841769	105	-2650	-1525
12842097	-139	-2102	-1506
12842425	-538	-1859	-1568
12842753	-692	-1738	-1608
12843081	-674	-1633	-1686
12843409	-571	-1437	-1744
12843737	-372	-1185	-1816
12844065	-166	-1058	-1842
12844393	159	-1041	-1876
12844721	401	-907	-1874
12845049	484	-709	-1865
12845377	574	-616	-1832
12845705	503	-548	-1783
12846033	597	-427	-1797
12846361	638	-303	-1774
12846689	696	-227	-1714
12847017	740	-238	-1626
12847345	710	-56	-1550
12847673	782	186	-1416
12848001	819	170	-1332
12848329	842	160	-1261
12848657	903	242	-1207
12848985	892	234	-1127
12849313	713	267	-1008
12849641	527	285	-895
12849969	341	308	-810
12850297	393	305	-775
12850625	466	427	-716
12850953	542	537	-648
12851281	589	699	-537
12851609	605	1005	-516
12851937	693	1282	-501
12852265	662	922	-452
12852593	588	273	-377
12852921	523	163	-308
12853249	390	204	-274
12853577	300	248	-243
12853905	244	246	-246
12854233	185	288	-231
12854561	179	222	-216
12854889	228	201	-225
12855217	340	268	-259
12855545	362	335	-307
12855873	366	409	-335
12856201	312	506	-352
12856529	248	657	-394
12856857	277	883	-421
12857185	277	1302	-457
12857513	268	1780	-519
12857841	215	1673	-501
12858169	232	1523	-534
12858497	375	663	-496
12858825	427	585	-424
12859153	478	911	-419
12859481	418	875	-372
12859809	412	835	-330
12860137	308	918	-302
12860465	232	1174	-271
12860793	127	1475	-206
12861121	47	1760	-187
12861449	17	1923	-172
12861777	30	2063	-161
12862105	91	2081	-148
12862433	226	1929	-73
12862761	298	1770	-56
12863089	348	1505	-26
12863417	625	615	-36
12863745	878	152	-13
12864073	882	850	44
12864401	962	916	106
12864729	1167	1241	303
12865057	1338	1536	372
12865385	1535	1673	365
12865713	1784	1881	302
12866041	2037	2144	242
12866369	2363	2304	314
12866697	2599	2487	417
12867025	2696	2581	548
12867353	2748	2438	634
12867681	2727	2220	588
12868009	2744	1941	469
12868337	2708	1427	505
12868665	2479	1489	496
12868993	2180	1545	563
12869321	1833	1401	594
12869649	1435	1318	653
12869977	1079	1137	669
12870305	844	1032	672
12870633	702	896	727
12870961	596	784	885
12871289	566	746	1077
12871617	530	601	1211
12871945	647	238	1234
12872273	695	179	1169
12872601	639	27	1109
12872929	456	-173	1055
12873257	293	-245	976
12873585	157	-236	951
12873913	9	-358	806
12874241	-59	-490	691
12874569	-24	-430	597
12874897	117	-423	577
12875225	302	-444	571
12875553	533	-405	479
12875881	832	-394	341
12876209	1249	-388	186
12876537	1611	-330	110
12876865	1897	-329	55
12877193	2076	-342	-48
12877521	2237	-326	-65
12877849	2357	-311	-134
12878177	2521	-252	-297
12878505	2757	-298	-406
12878833	2950	-401	-467
12879161	3071	-562	-570
12879489	2996	-511	-744
12879817	3037	-888	-614
12880145	3147	-1181	-661
12880473	2987	-1213	-774
12880801	3081	-1394	-793
12881129	3281	-1769	-877
12881457	3541	-1843	-967
12881785	3897	-1920	-1049
12882113	4272	-2187	-1069
12882441	4665	-2159	-1101
12882769	5188	-2225	-1056
12883097	5640	-2246	-893
12883425	6146	-2091	-631
12883753	7069	-1819	-282
12884081	8437	-1500	13
12884409	9950	-941	279
12884737	11760	-1474	516
12885065	13558	-2566	881
12885393	14947	-188	1637
12885721	16378	1013	1723
12886049	17463	2809	1775
12886377	18297	4567	2054
12886705	18660	5866	2618
12887033	18255	6060	2884
12887361	17634	5905	2764
12887689	15819	5780	2277
12888017	12953	4784	1078
12888345	10588	4732	-258
12888673	8554	5025	-1315
12889001	6710	6212	-2580
12889329	5033	7236	-3549
12889657	4535	8211	-4243
12889985	4617	8878	-4686
12890313	4930	8675	-4767
12890641	5496	8451	-4843
12890969	6178	8447	-4907
12891297	6559	8280	-4948
12891625	6670	7858	-5021
12891953	6537	7871	-4931
12892281	6041	7058	-4805
12892609	5530	6751	-4614
12892937	4793	6212	-4257
12893265	4205	5313	-3663
12893593	3463	5209	-1969
12893921	3245	3680	-1882
12894249	2793	3495	-1678
12894577	2367	2821	-1515
12894905	1968	2245	-1050
12895233	1779	1951	-672
12895561	1733	1673	-592
12895889	1642	1524	-74
12896217	1346	1390	63
12896545	1308	1441	107
12896873	1406	1427	163
12897201	1443	1514	313
12897529	1639	1484	311
12897857	1667	1498	140
12898185	1605	1618	334
12898513	1656	1468	328
12898841	1670	1450	359
12899169	1660	1314	407
12899497	1499	1392	307
12899825	1407	1469	264
12900153	1444	1630	168
12900481	1503	1957	76
12900809	1612	2168	100
12901137	1690	2382	65
12901465	1824	2424	16
12901793	1951	2662	-44
12902121	2080	2796	-55
12902449	2385	2889	-115
12902777	2597	2878	-65
12903105	2626	2801	-82
12903433	2545	2303	-97
12903761	2292	2318	-257
12904089	1931	2383	-601
12904417	1722	2460	-1014
12904745	1653	2745	-1644
12905073	2013	3293	-2174
12905401	2429	3550	-2512
12905729	2564	3491	-2599
12906057	2564	3335	-2696
12906385	2300	3343	-2670
12906713	1780	3118	-2537
12907041	1211	2752	-2587
12907369	405	2128	-2496
12907697	-580	1523	-2268
12908025	-1641	1169	-1994
12908353	-2782	944	-1693
12908681	-3829	972	-1547
12909009	-4677	972	-1466
12909337	-5182	902	-1489
12909665	-5450	656	-1575
12909993	-5475	445	-1922
12910321	-5352	418	-2143
12910649	-4994	465	-2375
12910977	-4389	722	-2202
12911305	-3740	760	-1915
12911633	-3284	560	-1702
12911961	-2931	480	-1547
12912289	-2589	1068	-1512
12912617	-2150	1586	-1416
12912945	-1753	1723	-1349
12913273	-1383	1970	-1268
12913601	-841	2108	-1069
12913929	-419	2429	-1183
12914257	196	2638	-1300
12914585	986	3588	-1560
12914913	1056	3361	-1552
12915241	1096	3311	-1633
12915569	1109	3458	-1667
12915897	1216	3493	-1644
12916225	1103	3754	-1660
12916553	1437	3944	-1703
12916881	1769	3948	-1868
12917209	2199	4028	-2101
12917537	2544	4100	-2315
12917865	2780	3811	-2490
12918193	2770	3330	-2682
12918521	2746	3403	-2664
12918849	2757	3452	-2512
12919177	2950	3549	-2507
12919505	3231	3522	-2421
12919833	3564	3614	-2239
12920161	3856	3827	-2061
12920489	4258	3861	-1990
12920817	4691	4068	-2039
12921145	5331	3905	-2082
12921473	5921	3688	-2190
12921801	6086	3557	-2397
12922129	6178	3361	-2810
12922457	6372	2918	-3085
12922785	6382	2816	-3199
12923113	6292	2655	-3283
12923441	6063	2587	-3332
12923769	5663	2299	-3509
12924097	5112	1769	-4007
12924425	4331	935	-4620
12924753	3546	-837	-5408
12925081	2725	-85	-6080
12925409	1892	768	-6656
12925737	1125	-904	-6734
12926065	1001	-1564	-6911
12926393	1557	-985	-7223
12926721	1552	45	-7016
12927049	664	803	-6739
12927377	-552	888	-6610
12927705	-1516	-144	-6336
12928033	-1736	-1088	-6050
12928361	-1125	-2068	-5226
12928689	57	-2745	-4016
12929017	1165	-2403	-2072
12929345	2287	-1938	-32
12929673	2877	-2496	2149
12930001	3352	-3219	3819
12930329	4240	-3303	4709
12930657	5603	-3305	5249
12930985	6260	-2800	5530
12931313	7002	-1233	5069
12931641	6785	-421	4138
12931969	6529	-1424	3487
12932297	6452	-2363	3339
12932625	6030	-1588	3649
12932953	5641	-1502	4001
12933281	5134	-1218	4606
12933609	4418	-1779	5375
12933937	4030	-1208	5045
12934265	3597	-1442	4516
12934593	2662	-2113	4173
12934921	1802	-2597	3970
12935249	950	-2301	3699
12935577	136	-1882	3314
12935905	-606	-1852	3004
12936233	-1183	-1813	2819
12936561	-1656	-1751	2383
12936889	-1935	-1601	2150
12937217	-2061	-1474	1794
12937545	-2159	-1313	1556
12937873	-2381	-1139	1400
12938201	-2963	-860	1210
12938529	-3643	-637	1100
12938857	-4223	-493	727
12939185	-4510	-112	401
12939513	-5042	5	351
12939841	-5505	-91	334
12940169	-6121	-256	304
12940497	-6363	-206	259
12940825	-6562	-49	266
12941153	-6194	39	319
12941481	-5527	364	322
12941809	-4748	859	391
12942137	-3764	1198	426
12942465	-2920	1250	428
12942793	-2267	955	417
12943121	-2012	550	504
12943449	-2087	204	693
12943777	-2638	-273	785
12944105	-3299	-648	884
12944433	-3554	-580	940
12944761	-3449	-310	954
12945089	-2669	-202	1052
12945417	-1651	-193	1222
12945745	-501	-194	1488
12946073	467	-63	1943
12946401	1042	64	2487
12946729	1038	322	2944
12947057	840	600	3359
12947385	704	973	3588
12947713	542	1412	3549
12948041	612	1507	3497
12948369	488	1719	3742
12948697	1082	2564	4225
12949025	1381	3096	4690
12949353	1611	3373	5020
12949681	1731	3445	5117
12950009	1762	4152	5373
12950337	603	4237	5439
12950665	-1092	1087	2910
12950993	-211	-269	2057
12951321	-373	2517	2652
12951649	-571	2793	3672
12951977	-12	2940	4384
12952305	945	2924	4467
12952633	2318	2348	4034
12952961	3412	1861	3694
12953289	3357	1756	3311
12953617	2722	1691	3075
12953945	1984	1627	2531
12954273	1204	1327	2308
12954601	516	1128	2460
12954929	-246	589	2691
12955257	-1020	516	2795
12955585	-1755	872	2640
12955913	-1969	817	2517
12956241	-2401	821	2276
12956569	-2535	717	2108
12956897	-2532	42	1918
12957225	-2741	-87	1616
12957553	-3036	-150	1406
12957881	-3375	-538	1325
12958209	-3857	-561	1268
12958537	-4265	-532	1124
12958865	-4538	-771	972
12959193	-4723	-942	848
12959521	-4924	-1121	704
12959849	-5027	-1324	588
12960177	-5199	-1567	501
12960505	-5304	-1815	443
12960833	-5528	-1984	302
12961161	-5721	-2379	158
12961489	-5876	-2794	106
12961817	-6162	-3236	-21
12962145	-6374	-3519	-22
12962473	-6510	-3870	-185
12962801	-6976	-3519	-234
12963129	-7269	-3957	-152
12963457	-7733	-4362	-303
12963785	-8310	-4460	-348
12964113	-9066	-4839	-503
12964441	-9810	-5144	-602
12964769	-10162	-5188	-679
12965097	-10455	-4900	-725
12965425	-10512	-5435	-826
12965753	-11027	-5856	-848
12966081	-11682	-6570	-510
12966409	-13419	-7661	-200
12966737	-15133	-8600	120
12967065	-16507	-8479	-153
12967393	-17262	-8099	-731
12967721	-17558	-7626	-1068
12968049	-17530	-8665	-1824
12968377	-17649	-8863	-2585
12968705	-17475	-9708	-3222
12969033	-17308	-10054	-3406
12969361	-17297	-10266	-3437
12969689	-17654	-10817	-3011
12970017	-18071	-10685	-2775
12970345	-18304	-10195	-2486
12970673	-18278	-9770	-2362
12971001	-17689	-9412	-2462
12971329	-16477	-8996	-2586
12971657	-14863	-8470	-2771
12971985	-13365	-8110	-2637
12972313	-12129	-7931	-2471
12972641	-10962	-7313	-2062
12972969	-10023	-6945	-1887
12973297	-9357	-7037	-1805
12973625	-8985	-6887	-1732
12973953	-8822	-6523	-1621
12974281	-8554	-5972	-1402
12974609	-8052	-5617	-1252
12974937	-7113	-4657	-1057
12975265	-6193	-4178	-962
12975593	-4964	-3611	-886
12975921	-3961	-2927	-868
12976249	-3256	-2595	-925
12976577	-2614	-2463	-936
12976905	-2727	-2674	-900
12977233	-2966	-2451	-783
12977561	-3574	-2664	-703
12977889	-4350	-2596	-795
12978217	-4739	-2567	-869
12978545	-5022	-2727	-951
12978873	-5304	-2601	-926
12979201	-5569	-2702	-940
12979529	-5763	-2781	-1168
12979857	-5986	-2881	-1385
12980185	-6475	-3782	-1426
12980513	-6638	-3928	-1425
12980841	-7069	-3870	-1421
12981169	-7106	-4534	-1515
12981497	-7678	-4665	-1427
12981825	-8040	-4913	-1814
12982153	-8304	-5064	-1990
12982481	-8559	-4916	-1778
12982809	-8152	-4164	-1856
12983137	-7699	-3646	-1795
12983465	-6811	-3490	-1734
12983793	-6051	-3148	-1792
12984121	-5115	-2754	-1778
12984449	-4582	-2193	-1712
12984777	-4110	-1294	-1755
12985105	-3350	-354	-1668
12985433	-2672	22	-1612
12985761	-1852	724	-1561
12986089	-1409	1491	-1532
12986417	-1393	2022	-1195
12986745	-1784	1472	-861
12987073	-2671	755	13
12987401	-4020	-852	975
12987729	-5543	-3074	2046
12988057	-6920	-4297	2968
12988385	-7859	-3510	3117
12988713	-8040	-1852	2690
12989041	-6396	107	2458
12989369	-4220	1748	1948
12989697	-855	2579	2730
12990025	2463	2123	2991
12990353	4656	1706	4401
12990681	767	-547	3480
12991009	511	-2540	-803
12991337	-2038	-767	582
12991665	-4313	3267	889
12991993	-3709	4480	1843
12992321	-2877	3700	2558
12992649	-646	2991	2104
12992977	1741	2683	1638
12993305	2270	2214	1670
12993633	1882	777	1623
12993961	696	-89	1549
12994289	115	-1067	1155
12994617	462	-2054	849
12994945	823	-1683	734
12995273	481	-1230	689
12995601	13	-891	829
12995929	-454	-309	1058
12996257	-660	-36	1232
12996585	-572	47	1245
12996913	-339	463	1310
12997241	-235	428	1384
12997569	-161	381	1381
12997897	120	631	1235
12998225	289	722	1082
12998553	475	694	970
12998881	517	871	887
12999209	434	609	856
12999537	242	391	806
12999865	31	577	728
13000193	-90	650	692
13000521	-150	963	562
13000849	-106	1234	459
13001177	-101	1521	354
13001505	-157	1989	171
13001833	-192	2804	1
13002161	-305	3205	-122
13002489	-651	2539	-207
13002817	-1232	1668	-214
13003145	-1930	1211	-275
13003473	-2779	667	-458
13003801	-3459	294	-666
13004129	-3756	-65	-997
13004457	-4044	-569	-1361
13004785	-4289	-922	-1759
13005113	-4398	-1110	-1941
13005441	-4396	-825	-2527
13005769	-4283	-975	-2722
13006097	-4086	-1201	-3129
13006425	-4045	-1139	-3778
13006753	-4377	-917	-4257
13007081	-5189	-568	-4858
13007409	-5989	-163	-5284
13007737	-6378	-461	-5580
13008065	-7295	-951	-5727
13008393	-8011	-1964	-5787
13008721	-8419	-1854	-5258
13009049	-8373	-269	-4742
13009377	-7113	-289	-4378
13009705	-5439	-918	-3225
13010033	-9276	-2523	-1551
13010361	-10938	-3885	1587
13010689	-8057	-5225	4159
13011017	-5648	-3066	6793
13011345	-4093	-2761	7998
13011673	-3407	-3365	9694
13012001	-3058	-3550	10834
13012329	-2533	-4694	11422
13012657	-2400	-6063	12327
13012985	-2321	-6897	12547
13013313	-2461	-7705	12512
13013641	-2756	-8562	12655
13013969	-3496	-8748	12573
13014297	-4115	-8907	12234
13014625	-4538	-9256	11735
13014953	-4761	-9519	11033
13015281	-4923	-9778	10962
13015609	-5533	-9686	11174
13015937	-6460	-9188	10760
13016265	-7117	-8144	10355
13016593	-7497	-7976	9724
13016921	-7769	-7968	8629
13017249	-7949	-7894	7610
13017577	-8111	-8208	7162
13017905	-8354	-9351	6535
13018233	-8560	-10055	5509
13018561	-8819	-9476	4271
13018889	-8831	-8819	2720
13019217	-8454	-8843	1530
13019545	-8397	-7596	253
13019873	-8051	-5981	-962
13020201	-7774	-4883	-2029
13020529	-7537	-4037	-2825
13020857	-7503	-2597	-3575
13021185	-7307	-2499	-4204
13021513	-7351	-2136	-4340
13021841	-8043	-1744	-4891
13022169	-7584	-1642	-4734
13022497	-6487	606	-4157
13022825	-4668	3026	-1038
13023153	-519	3625	-2921
13023481	-327	4570	-8172
13023809	-1270	8467	-7648
13024137	-1064	4725	-4723
13024465	-1634	1951	-3322
13024793	-2079	2684	-2776
13025121	-2230	3441	-320
13025449	-2100	2887	1077
13025777	-1955	3389	539
13026105	-2002	3393	-781
13026433	-1606	2642	-1410
13026761	-1317	2701	-935
13027089	-980	2932	-1189
13027417	-655	2537	-1297
13027745	-463	1754	-1410
13028073	-425	2478	-1234
13028401	-110	3345	-893
13028729	302	3392	-684
13029057	734	3197	-612
13029385	666	2869	-584
13029713	672	2959	-597
13030041	322	3183	-688
13030369	-28	3192	-924
13030697	-152	2939	-1142
13031025	-104	2292	-1384
13031353	107	1418	-1543
13031681	244	378	-1463
13032009	317	763	-1595
13032337	319	701	-1791
13032665	-15	215	-1921
13032993	-553	187	-1654
13033321	-1092	-1	-1286
13033649	-1302	-238	-783
13033977	-1330	-317	-491
13034305	-1082	-457	-361
13034633	-1024	-612	-275
13034961	-998	-651	-257
13035289	-862	-588	-236
13035617	-683	-796	-55
13035945	-638	-977	-101
13036273	-566	-1096	-40
13036601	-487	-1028	95
13036929	-401	-1254	279
13037257	-284	-1569	386
13037585	-160	-1537	476
13037913	86	-1426	680
13038241	397	-1466	899
13038569	780	-1703	1003
13038897	1191	-1876	1119
13039225	1434	-1988	1209
13039553	1617	-2045	1297
13039881	1730	-2065	1474
13040209	1773	-2190	1629
13040537	1756	-2358	1714
13040865	1690	-2495	1797
13041193	1624	-2728	1880
13041521	1571	-2916	1959
13041849	1521	-2969	2124
13042177	1498	-3079	2441
13042505	1666	-3587	2550
13042833	1717	-3466	2797
13043161	1880	-3327	2941
13043489	2449	-3763	3158
13043817	3071	-4485	3285
13044145	3474	-3575	3464
13044473	4183	-3544	3714
13044801	5095	-3350	4034
13045129	5909	-2389	3992
13045457	6824	-2553	3965
13045785	7562	-2711	4116
13046113	8099	-2497	4328
13046441	9301	-2760	3559
13046769	10891	-1576	3953
13047097	12231	-1389	3846
13047425	13929	-422	2985
13047753	15284	764	2015
13048081	16913	1535	1510
13048409	18753	1962	905
13048737	19887	3101	342
13049065	20073	3371	-485
13049393	18739	2338	-2801
13049721	15906	3681	-4811
13050049	11970	2732	-6540
13050377	7684	3214	-8161
13050705	4483	4590	-9009
13051033	2524	5588	-9595
13051361	865	5208	-10312
13051689	208	5091	-10876
13052017	-5	4575	-11546
13052345	593	4599	-11971
13052673	1096	4228	-11978
13053001	1958	3698	-11786
13053329	2639	3677	-10981
13053657	3378	2942	-11318
13053985	3374	3278	-11257
13054313	2961	3383	-11357
13054641	2319	3620	-10943
13054969	1933	4157	-10204
13055297	1910	4055	-9235
13055625	2462	4611	-8347
13055953	2792	4626	-7560
13056281	3448	4749	-6936
13056609	4479	5217	-6321
13056937	5243	5208	-5780
13057265	6295	5263	-5251
13057593	7041	5606	-4586
13057921	7691	5602	-3978
13058249	8297	5957	-3268
13058577	8682	6570	-2448
13058905	9216	7118	-1632
13059233	9604	7505	-938
13059561	9970	7575	-293
13059889	10063	7891	309
13060217	10076	8233	962
13060545	10013	8514	1502
13060873	10076	8918	2198
13061201	10220	8666	3011
13061529	10213	8501	3854
13061857	10123	8473	4485
13062185	10154	8504	4714
13062513	10044	8742	4650
13062841	10019	8673	4253
13063169	9870	8021	3578
13063497	8317	6816	2641
13063825	5055	4018	1414
13064153	1192	364	-195
13064481	-822	-648	-3216
13064809	-2891	534	-3471
13065137	-5940	1346	-1688
13065465	-7678	3034	-510
13065793	-6361	4424	716
13066121	-4865	4385	2698
13066449	-4153	3398	3909
13066777	-3798	1503	2267
13067105	-1783	-58	-639
13067433	-138	-71	-2074
13067761	1111	-1557	-1860
13068089	1643	-2350	-306
13068417	445	-593	827
13068745	-940	427	1488
13069073	-2223	1299	1853
13069401	-2440	2186	1515
13069729	-1638	2057	826
13070057	-630	1851	568
13070385	280	1478	307
13070713	991	1203	358
13071041	1387	1691	307
13071369	1822	1960	79
13071697	2175	1856	-11
13072025	2406	2088	-286
13072353	2590	2324	-589
13072681	2952	2488	-919
13073009	3240	2694	-1153
13073337	3413	2732	-1329
13073665	3424	2745	-1442
13073993	3307	3096	-1509
13074321	3405	3342	-1483
13074649	3686	3292	-1451
13074977	4224	3156	-1485
13075305	4847	3171	-1463
13075633	4955	2854	-1457
13075961	5181	1971	-1401
13076289	5366	966	-1424
13076617	5095	1594	-1619
13076945	5235	1473	-1846
13077273	5048	1142	-1934
13077601	5226	1681	-2038
13077929	5453	1921	-2062
13078257	5934	2262	-1947
13078585	6563	3012	-1741
13078913	7238	2795	-1766
13079241	7789	2388	-1923
13079569	8351	2436	-2292
13079897	8627	2441	-2565
13080225	8819	2397	-2729
13080553	8965	2449	-2709
13080881	9090	2506	-2641
13081209	9209	2724	-2866
13081537	9559	2683	-3172
13081865	9719	1936	-3234
13082193	9888	1727	-3349
13082521	9739	1812	-3472
13082849	9331	1480	-3468
13083177	9345	1508	-3410
13083505	9526	1818	-3374
13083833	9953	2035	-3411
13084161	10479	2166	-3422
13084489	10902	2142	-3450
13084817	11322	2067	-3414
13085145	11490	1920	-3437
13085473	11290	2079	-3117
13085801	10668	1811	-2519
13086129	9512	1390	-2275
13086457	8158	964	-2145
13086785	6176	386	-1864
13087113	4166	-308	-1714
13087441	2653	-987	-1658
13087769	1740	-1324	-1687
13088097	1016	-1586	-1267
13088425	687	-1379	-1454
13088753	801	-1355	-1520
13089081	1000	-1324	-1414
13089409	1388	-1006	-1349
13089737	1953	-619	-1137
13090065	2147	-486	-908
13090393	1946	-504	-710
13090721	1553	-614	-575
13091049	1054	-800	-520
13091377	693	-985	-423
13091705	493	-721	-659
13092033	94	-897	-431
13092361	-283	-946	-387
13092689	-574	-977	-343
13093017	-750	-847	-347
13093345	-751	-551	-376
13093673	-564	-277	-397
13094001	-523	-187	-315
13094329	-501	-84	-164
13094657	-545	39	-41
13094985	-595	248	10
13095313	-701	471	73
13095641	-667	691	147
13095969	-688	1345	249
13096297	-623	1971	225
13096625	-280	2655	148
13096953	79	3001	162
13097281	44	2711	295
13097609	-262	1829	568
13097937	-1147	-215	771
13098265	-1916	-596	934
13098593	-2309	-100	795
13098921	-2293	-152	673
13099249	-1877	211	556
13099577	-1378	413	482
13099905	-1127	366	408
13100233	-1035	586	231
13100561	-1227	863	119
13100889	-1133	1436	-110
13101217	-578	1359	-353
13101545	-682	1285	-225
13101873	-921	907	-482
13102201	-808	950	-399
13102529	-950	978	-529
13102857	-1030	885	-663
13103185	-907	712	-718
13103513	-642	600	-905
13103841	-359	460	-1064
13104169	-167	171	-1163
13104497	-347	102	-1369
13104825	-712	-90	-1586
13105153	-1166	-265	-1762
13105481	-1479	-419	-1961
13105809	-1579	-576	-2297
13106137	-1443	-647	-2810
13106465	-1394	-719	-2905
13106793	-1422	-1031	-3347
13107121	-1376	-912	-3715
13107449	-1320	-852	-4119
13107777	-1483	-949	-4494
13108105	-1799	-981	-4848
13108433	-2533	-926	-5232
13108761	-3685	-711	-5326
13109089	-4568	-527	-5385
13109417	-4773	-442	-5649
13109745	-4735	487	-5434
13110073	-5010	174	-5351
13110401	-5615	-45	-5155
13110729	-6709	473	-4951
13111057	-8062	575	-4980
13111385	-8370	73	-4908
13111713	-8553	-467	-4683
13112041	-10927	-1330	-3733
13112369	-9647	-381	-2084
13112697	-8143	651	-1265
13113025	-6348	738	-825
13113353	-5627	1491	109
13113681	-4496	2242	1600
13114009	-3402	2480	2833
13114337	-2434	2068	4190
13114665	-983	865	4970
13114993	-156	89	6078
13115321	330	279	6725
13115649	970	-645	8562
13115977	1718	-2424	8897
13116305	1710	-1786	9855
13116633	2030	-1538	10359
13116961	2213	-2258	10795
13117289	2341	-2987	11083
13117617	1587	-2904	10889
13117945	364	-2413	11446
13118273	-1021	-2986	12053
13118601	-2238	-3128	12616
13118929	-2995	-3111	12558
13119257	-3461	-3805	12570
13119585	-3176	-4583	12589
13119913	-3039	-4761	12537
13120241	-2738	-4312	12795
13120569	-2392	-4146	12707
13120897	-2081	-3677	12884
13121225	-1638	-2887	12972
13121553	-913	-3336	13461
13121881	-118	-3106	12910
13122209	620	-3000	12233
13122537	1011	-3545	11763
13122865	983	-3981	11129
13123193	926	-4286	10226
13123521	624	-4338	9696
13123849	413	-4307	9195
13124177	348	-4324	8989
13124505	94	-4075	8510
13124833	-526	-4425	7829
13125161	-985	-3996	7518
13125489	-1044	-3804	7157
13125817	-823	-3001	6642
13126145	-620	-2107	5813
13126473	-357	-1406	5156
13126801	220	-465	4735
13127129	860	24	4061
13127457	1595	355	3171
13127785	2060	871	2075
13128113	2555	1028	660
13128441	2755	1794	-873
13128769	2588	2842	-2109
13129097	1717	3033	-3576
13129425	-395	2660	-5260
13129753	-3739	1691	-6400
13130081	-5556	1008	-6437
13130409	-5776	1195	-10504
13130737	-4685	4095	-10521
13131065	-5885	5306	-9622
13131393	-6145	3251	-7197
13131721	-6063	2046	-4191
13132049	-5870	2138	-2469
13132377	-5117	1967	-2985
13132705	-4088	1807	-4249
13133033	-3135	1696	-4483
13133361	-2381	1771	-4444
13133689	-1846	1353	-4052
13134017	-1287	612	-4006
13134345	-1439	625	-3701
13134673	-1251	976	-3111
13135001	-1458	1321	-2462
13135329	-1730	1538	-1901
13135657	-1875	1643	-1660
13135985	-1707	1883	-1691
13136313	-1575	2038	-1751
13136641	-1639	1971	-2021
13136969	-1106	1629	-2202
13137297	-742	1488	-2285
13137625	-778	1300	-2392
13137953	-382	960	-2470
13138281	-158	350	-2420
13138609	392	269	-2451
13138937	394	897	-2568
13139265	385	763	-2676
13139593	492	243	-2644
13139921	477	401	-2693
13140249	195	1065	-2644
13140577	128	1384	-2600
13140905	172	1570	-2626
13141233	389	1378	-2668
13141561	702	1241	-2731
13141889	1011	1512	-2697
13142217	1413	1529	-2672
13142545	1875	1687	-2725
13142873	2254	2040	-2746
13143201	2743	2258	-2738
13143529	3090	2415	-2724
13143857	3209	2604	-2703
13144185	3270	2709	-2675
13144513	3192	2668	-2631
13144841	3131	2494	-2652
13145169	3117	2533	-2663
13145497	3078	2791	-2614
13145825	2994	2963	-2639
13146153	2937	2746	-2813
13146481	3108	1554	-3035
13146809	3639	1735	-3168
13147137	4050	1961	-3386
13147465	4288	1879	-3646
13147793	4556	2126	-4121
13148121	4904	1999	-4407
13148449	5304	1707	-4502
13148777	5762	1420	-4328
13149105	6009	1552	-4131
13149433	6206	1408	-4041
13149761	6414	1373	-3935
13150089	6987	1778	-3755
13150417	7671	2131	-3478
13150745	8187	2246	-3503
13151073	8622	1952	-3700
13151401	8888	1498	-3808
13151729	9142	1690	-3855
13152057	9252	1973	-3844
13152385	9006	2237	-3688
13152713	8391	2262	-3435
13153041	7717	2065	-3171
13153369	6985	1943	-2875
13153697	6259	1374	-2596
13154025	5780	612	-2385
13154353	5194	39	-2258
13154681	4236	-472	-2125
13155009	3019	-563	-1863
13155337	1939	-659	-1750
13155665	1251	-886	-1798
13155993	973	-1076	-1860
13156321	787	-1355	-1820
13156649	598	-1827	-1713
13156977	198	-2071	-1210
13157305	-202	-2059	-1075
13157633	-306	-1829	-1122
13157961	-705	-2043	-923
13158289	-1113	-2021	-514
13158617	-1152	-1691	-110
13158945	-1050	-1275	87
13159273	-801	-839	-17
13159601	-595	-373	-181
13159929	-863	-193	-17
13160257	-1010	72	193
13160585	-584	500	171
13160913	58	865	50
13161241	658	723	43
13161569	1056	543	73
13161897	1256	441	84
13162225	1401	663	152
13162553	1490	930	218
13162881	1808	909	156
13163209	2138	720	35
13163537	2432	498	30
13163865	2681	427	9
13164193	2902	443	-98
13164521	2958	398	-74
13164849	2907	201	-42
13165177	2801	84	-102
13165505	2723	250	-75
13165833	2831	174	-55
13166161	3245	85	62
13166489	3700	223	248
13166817	3971	-37	511
13167145	4373	-486	740
13167473	5225	-665	926
13167801	5579	-3157	1217
13168129	6533	-3251	1189
13168457	7703	-1017	1171
13168785	8955	-1363	1653
13169113	9974	-178	1886
13169441	10998	1771	2037
13169769	12146	2652	2082
13170097	13254	3192	2317
13170425	14312	4049	2297
13170753	14912	4688	1858
13171081	15024	5208	1112
13171409	14637	5676	387
13171737	13864	6259	-567
13172065	12663	6857	-1756
13172393	11224	7198	-3175
13172721	10174	7806	-4722
13173049	9480	8539	-6064
13173377	9396	9656	-7093
13173705	9539	10636	-7853
13174033	9702	11247	-8243
13174361	9771	11463	-8470
13174689	9891	12183	-8352
13175017	9909	12329	-8137
13175345	10051	12330	-7989
13175673	10248	13219	-8283
13176001	10315	13432	-8302
13176329	9771	13270	-8201
13176657	9532	13404	-7808
13176985	9249	12636	-7461
13177313	8969	11961	-7255
13177641	8951	12503	-6822
13177969	9076	12677	-6366
13178297	9284	12684	-6004
13178625	9484	13095	-5472
13178953	9949	13470	-4967
13179281	10961	14090	-4178
13179609	12306	14561	-3404
13179937	13774	14955	-2717
13180265	15047	15270	-1974
13180593	15986	15216	-1163
13180921	16849	15230	-365
13181249	17598	15369	401
13181577	18544	15462	871
13181905	19082	16063	1391
13182233	19711	15884	1742
13182561	19968	16278	2193
13182889	20454	16792	2677
13183217	20506	16955	3011
13183545	20778	16722	3392
13183873	20494	16515	3723
13184201	20314	15938	3892
13184529	20032	16216	4131
13184857	19377	16215	4248
13185185	18805	16016	4541
13185513	17866	15760	4683
13185841	17125	15026	4922
13186169	16659	14902	5061
13186497	16165	15031	4939
13186825	16205	14934	4723
13187153	15296	14396	4817
13187481	14789	13100	4674
13187809	14271	11982	4327
13188137	13327	9861	3993
13188465	11551	7232	3779
13188793	9131	4408	3594
13189121	5331	1337	2666
13189449	1327	-502	1549
13189777	837	-763	-2623
13190105	1554	-2769	-2868
13190433	-739	1771	-888
13190761	-988	3930	203
13191089	-572	4098	2379
13191417	-584	3399	3026
13191745	-133	1824	1097
13192073	1282	2182	-1570
13192401	2941	1028	-2877
13192729	3650	-212	-2151
13193057	3277	430	-1249
13193385	1885	1110	-567
13193713	-115	1723	-324
13194041	-1078	1785	-373
13194369	-903	785	-382
13194697	-555	748	-718
13195025	-37	515	-1271
13195353	351	412	-1432
13195681	538	339	-1371
13196009	642	432	-1443
13196337	895	877	-1559
13196665	1370	1150	-1783
13196993	1844	1083	-2076
13197321	2252	889	-2257
13197649	2288	940	-2386
13197977	2377	1062	-2512
13198305	2354	1019	-2578
13198633	2203	951	-2700
13198961	2001	839	-2710
13199289	1835	519	-2691
13199617	1890	254	-2658
13199945	2266	-21	-2636
13200273	2687	-605	-2759
13200601	3049	-1034	-2471
13200929	3178	60	-2846
13201257	3285	252	-2972
13201585	3475	-263	-2938
13201913	3515	-184	-2880
13202241	3657	-738	-2873
13202569	3797	-2072	-2808
13202897	3889	-1736	-2802
13203225	4078	-1547	-2868
13203553	4367	-1353	-3129
13203881	4594	-1554	-3624
13204209	4909	-1893	-4050
13204537	5373	-1783	-4098
13204865	5817	-1677	-3914
13205193	6424	-1451	-3659
13205521	6820	-1036	-3465
13205849	7175	-796	-3399
13206177	7376	-700	-3315
13206505	7392	-851	-3218
13206833	7315	-950	-3193
13207161	7101	-1004	-3077
13207489	7023	-877	-2899
13207817	6914	-365	-2658
13208145	6907	-70	-2228
13208473	6817	62	-1724
13208801	6732	587	-1464
13209129	6791	874	-1467
13209457	6886	845	-1492
13209785	6599	665	-1379
13210113	5842	243	-1203
13210441	4808	-88	-1091
13210769	3442	-621	-785
13211097	2158	-1051	-589
13211425	1263	-1382	-545
13211753	518	-1632	-445
13212081	10	-1406	-564
13212409	-462	-1670	-371
13212737	-750	-1758	-325
13213065	-734	-1538	-345
13213393	-528	-1162	-159
13213721	-351	-1083	-193
13214049	-356	-790	-170
13214377	-338	-538	-194
13214705	-436	-613	-163
13215033	-395	-500	-130
13215361	-487	-487	-18
13215689	-617	-573	49
13216017	-676	-541	162
13216345	-610	-268	262
13216673	-586	-331	296
13217001	-656	-379	401
13217329	-961	-299	443
13217657	-1270	-290	487
13217985	-1478	-348	466
13218313	-1713	-345	379
13218641	-1845	-134	353
13218969	-1750	-177	323
13219297	-1551	84	381
13219625	-1311	311	447
13219953	-1127	487	441
13220281	-1180	710	468
13220609	-1287	960	526
13220937	-1393	1312	635
13221265	-1570	1528	685
13221593	-1607	1585	801
13221921	-1497	1653	875
13222249	-1358	1926	980
13222577	-1123	2191	1065
13222905	-1007	2483	1252
13223233	-1030	2574	1463
13223561	-980	3080	1681
13223889	-924	4164	1887
13224217	-883	4810	2073
13224545	-867	4627	2281
13224873	-1221	3781	2367
13225201	-1246	3102	2381
13225529	-883	3172	2545
13225857	-486	3287	2568
13226185	-161	2857	2628
13226513	-294	2273	2737
13226841	-909	2012	2738
13227169	-1602	1913	2563
13227497	-2192	1841	2403
13227825	-2653	1475	2220
13228153	-2934	1172	1884
13228481	-2978	1070	1446
13228809	-3027	683	1184
13229137	-3087	290	1063
13229465	-3025	104	926
13229793	-2949	-98	774
13230121	-2867	-308	680
13230449	-2675	-218	637
13230777	-2544	-237	629
13231105	-2505	-373	599
13231433	-2470	-478	484
13231761	-2548	-735	403
13232089	-2698	-1011	344
13232417	-2907	-1336	209
