Time Stamp	Gyroscope X	Gyroscope Y	Gyroscope Z
RAW	RAW	RAW	RAW
no units	no units	no units	no units
13325082	-161	170	78
13325410	-195	162	85
13325738	-233	179	97
13326066	-277	152	120
13326394	-301	149	139
13326722	-298	125	148
13327050	-314	161	144
13327378	-273	161	161
13327706	-227	163	165
13328034	-194	161	200
13328362	-166	153	196
13328690	-148	174	165
13329018	-122	210	177
13329346	-65	222	220
13329674	9	221	225
13330002	61	219	243
13330330	117	210	244
13330658	162	182	244
13330986	188	193	271
13331314	238	213	280
13331642	261	204	301
13331970	306	181	332
13332298	322	194	363
13332626	307	155	380
13332954	293	138	385
13333282	267	159	419
13333610	225	130	427
13333938	206	156	452
13334266	190	143	472
13334594	131	150	485
13334922	138	161	472
13335250	89	156	453
13335578	63	151	471
13335906	28	141	469
13336234	-36	114	493
13336562	-76	102	491
13336890	-80	123	459
13337218	-62	140	454
13337546	-42	113	461
13337874	-24	84	464
13338202	4	63	423
13338530	19	10	407
13338858	5	-21	393
13339186	-21	-19	427
13339514	-20	-3	462
13339842	-33	-16	426
13340170	-60	-6	424
13340498	-76	-18	451
13340826	-48	44	515
13341154	-32	63	493
13341482	44	67	460
13341810	110	127	398
13342138	168	99	374
13342466	223	113	377
13342794	272	131	365
13343122	318	137	347
13343450	389	129	341
13343778	461	140	361
13344106	526	172	323
13344434	557	172	336
13344762	597	152	333
13345090	571	128	321
13345418	515	108	306
13345746	449	84	302
13346074	393	121	321
13346402	298	141	311
13346730	214	100	328
13347058	150	103	334
13347386	96	71	314
13347714	66	33	301
13348042	47	41	318
13348370	39	11	300
13348698	37	-16	286
13349026	31	-3	288
13349354	46	-55	282
13349682	28	-65	297
13350010	19	-107	264
13350338	32	-111	289
13350666	14	-112	306
13350994	19	-107	315
13351322	-9	-81	289
13351650	-62	-62	278
13351978	-89	-78	281
13352306	-121	-58	281
13352634	-163	-40	278
13352962	-230	-63	282
13353290	-274	-56	284
13353618	-274	-9	313
13353946	-334	-15	306
13354274	-334	-31	284
13354602	-350	-2	337
13354930	-350	-8	325
13355258	-392	-19	308
13355586	-433	-5	279
13355914	-437	1	284
13356242	-437	6	255
13356570	-412	32	229
13356898	-366	64	206
13357226	-288	108	163
13357554	-230	135	127
13357882	-177	135	94
13358210	-177	123	73
13358538	-157	111	67
13358866	-124	135	58
13359194	-217	138	69
13359522	-265	112	24
13359850	-286	148	-11
13360178	-265	211	-53
13360506	-234	226	-108
13360834	-192	287	-126
13361162	-181	312	-144
13361490	-194	323	-165
13361818	-241	325	-186
13362146	-277	298	-190
13362474	-319	297	-182
13362802	-359	292	-192
13363130	-394	277	-194
13363458	-404	283	-192
13363786	-436	292	-213
13364114	-443	317	-207
13364442	-409	319	-209
13364770	-395	329	-225
13365098	-325	377	-231
13365426	-274	429	-233
13365754	-272	405	-218
13366082	-276	375	-208
13366410	-242	423	-198
13366738	-210	482	-186
13367066	-183	435	-155
13367394	-153	380	-122
13367722	-173	333	-123
13368050	-193	284	-100
13368378	-186	245	-66
13368706	-213	211	-40
13369034	-207	184	-22
13369362	-204	95	-22
13369690	-233	38	8
13370018	-258	-24	46
13370346	-313	-54	79
13370674	-365	-49	78
13371002	-325	9	56
13371330	-263	21	40
13371658	-224	-24	26
13371986	-192	-41	44
13372314	-181	-23	36
13372642	-238	-34	62
13372970	-217	-46	49
13373298	-211	10	37
13373626	-172	41	11
13373954	-156	38	0
13374282	-160	-7	-4
13374610	-182	-59	12
13374938	-241	-78	23
13375266	-261	-77	36
13375594	-252	-23	22
13375922	-211	49	-14
13376250	-162	48	-26
13376578	-115	61	-47
13376906	-100	48	-44
13377234	-107	52	-49
13377562	-103	92	-46
13377890	-87	142	-66
13378218	-31	173	-70
13378546	-5	174	-90
13378874	5	209	-93
13379202	9	219	-95
13379530	33	236	-117
13379858	17	219	-114
13380186	24	223	-114
13380514	9	207	-88
13380842	-14	212	-74
13381170	-32	233	-68
13381498	-20	237	-56
13381826	-9	259	-60
13382154	51	276	-33
13382482	139	348	-27
13382810	141	351	-17
13383138	124	269	-4
13383466	146	279	5
13383794	281	373	17
13384122	427	477	20
13384450	682	670	4
13384778	823	717	-41
13385106	825	513	-75
13385434	893	478	-54
13385762	858	470	13
13386090	739	382	62
13386418	634	345	83
13386746	502	318	85
13387074	450	256	95
13387402	452	225	101
13387730	463	227	98
13388058	475	224	86
13388386	461	217	80
13388714	405	238	80
13389042	375	254	92
13389370	361	251	89
13389698	352	229	81
13390026	385	241	90
13390354	374	225	78
13390682	373	209	74
13391010	344	201	86
13391338	282	142	83
13391666	231	153	109
13391994	177	163	135
13392322	167	172	118
13392650	145	174	102
13392978	174	180	96
13393306	177	185	76
13393634	145	161	80
13393962	108	151	90
13394290	72	147	93
13394618	66	134	111
13394946	32	100	85
13395274	71	101	80
13395602	72	114	66
13395930	117	123	55
13396258	123	145	46
13396586	137	143	34
13396914	136	155	39
13397242	93	154	30
13397570	62	131	29
13397898	53	144	25
13398226	18	168	22
13398554	21	134	24
13398882	29	108	29
13399210	45	118	28
13399538	55	111	26
13399866	42	86	23
13400194	50	75	27
13400522	30	75	44
13400850	-1	82	49
13401178	2	65	35
13401506	19	66	60
13401834	52	90	43
13402162	50	76	43
13402490	54	81	38
13402818	20	90	29
13403146	32	99	25
13403474	8	106	17
13403802	-26	102	20
13404130	-47	100	4
13404458	-77	109	-5
13404786	-113	131	4
13405114	-135	114	-21
13405442	-173	125	-31
13405770	-156	143	-31
13406098	-137	166	-38
13406426	-119	143	-50
13406754	-120	143	-67
13407082	-116	147	-63
13407410	-147	145	-66
13407738	-163	139	-65
13408066	-163	117	-53
13408394	-143	125	-51
13408722	-116	141	-51
13409050	-71	141	-53
13409378	-60	140	-54
13409706	-59	134	-58
13410034	-68	149	-49
13410362	-91	134	-58
13410690	-102	129	-51
13411018	-115	125	-41
13411346	-125	112	-37
13411674	-129	108	-37
13412002	-145	106	-28
13412330	-135	113	-43
13412658	-147	116	-43
13412986	-166	121	-34
13413314	-156	135	-53
13413642	-134	157	-57
13413970	-132	164	-70
13414298	-134	154	-80
13414626	-124	168	-85
13414954	-136	159	-78
13415282	-149	154	-76
13415610	-151	147	-62
13415938	-149	149	-75
13416266	-152	160	-79
13416594	-158	164	-88
13416922	-148	157	-86
13417250	-140	165	-78
13417578	-139	160	-95
13417906	-173	159	-72
13418234	-186	151	-64
13418562	-195	167	-58
13418890	-155	202	-69
13419218	-131	186	-80
13419546	-85	207	-99
13419874	-54	193	-84
13420202	-68	170	-90
13420530	-97	160	-68
13420858	-119	159	-70
13421186	-111	172	-76
13421514	-87	168	-74
13421842	-38	181	-87
13422170	6	196	-103
13422498	0	200	-87
13422826	-31	173	-88
13423154	-44	159	-72
13423482	-91	144	-77
13423810	-114	119	-67
13424138	-106	124	-65
13424466	-102	136	-44
13424794	-108	122	-51
13425122	-78	137	-68
13425450	-71	135	-82
13425778	-43	134	-72
13426106	-34	135	-68
13426434	-11	129	-82
13426762	-16	122	-83
13427090	-5	121	-89
13427418	12	123	-75
13427746	28	120	-79
13428074	36	134	-72
13428402	21	135	-66
13428730	21	129	-66
13429058	16	138	-71
13429386	22	124	-54
13429714	14	136	-74
13430042	28	130	-75
13430370	18	125	-64
13430698	-3	117	-69
13431026	-27	122	-62
13431354	-32	93	-57
13431682	-40	106	-60
13432010	-39	120	-62
13432338	-46	107	-55
13432666	-53	93	-55
13432994	-76	96	-50
13433322	-106	72	-49
13433650	-105	92	-54
13433978	-95	106	-53
13434306	-93	116	-48
13434634	-106	88	-70
13434962	-124	105	-55
13435290	-144	80	-67
13435618	-144	97	-60
13435946	-146	89	-62
13436274	-164	80	-47
13436602	-163	85	-52
13436930	-163	88	-58
13437258	-177	96	-43
13437586	-185	93	-42
13437914	-197	91	-47
13438242	-193	82	-40
13438570	-195	58	-45
13438898	-185	76	-40
13439226	-199	85	-37
13439554	-204	85	-37
13439882	-203	92	-37
13440210	-187	118	-53
13440538	-137	151	-47
13440866	-92	142	-66
13441194	-56	155	-65
13441522	-65	183	-70
13441850	-63	162	-58
13442178	-60	162	-62
13442506	-61	165	-61
13442834	-69	161	-68
13443162	-60	142	-67
13443490	-56	166	-62
13443818	-70	148	-54
13444146	-48	153	-59
13444474	-43	175	-52
13444802	-26	178	-49
13445130	1	173	-58
13445458	45	201	-67
13445786	47	192	-63
13446114	35	168	-63
13446442	37	176	-72
13446770	18	174	-47
13447098	7	172	-45
13447426	21	164	-38
13447754	47	197	-56
13448082	68	184	-81
13448410	84	195	-70
13448738	73	179	-58
13449066	32	151	-43
13449394	-17	127	-34
13449722	-54	124	-31
13450050	-70	128	-15
13450378	-59	138	-22
13450706	-19	146	-24
13451034	-3	172	-31
13451362	1	147	-55
13451690	-6	154	-44
13452018	-34	141	-35
13452346	-81	130	-24
13452674	-112	110	-25
13453002	-137	100	-17
13453330	-124	106	-38
13453658	-93	112	-32
13453986	-71	144	-29
13454314	-39	128	-38
13454642	-37	116	-52
13454970	-44	120	-57
13455298	-64	117	-46
13455626	-81	109	-27
13455954	-98	109	-38
13456282	-77	115	-32
13456610	-57	115	-34
13456938	-57	144	-43
13457266	-42	109	-44
13457594	-53	105	-35
13457922	-60	122	-30
13458250	-80	103	-37
13458578	-86	96	-10
13458906	-69	104	-20
13459234	-43	107	-31
13459562	-53	101	-30
13459890	-45	88	-19
13460218	-67	87	-10
13460546	-109	79	-11
13460874	-129	81	-5
13461202	-141	82	-26
13461530	-148	77	0
13461858	-143	81	-11
13462186	-151	68	-4
13462514	-143	70	-13
13462842	-124	95	-17
13463170	-121	66	-38
13463498	-112	75	-23
13463826	-119	85	-4
13464154	-118	72	-12
13464482	-146	56	9
13464810	-155	75	6
13465138	-175	54	7
13465466	-176	42	-16
13465794	-160	62	-7
13466122	-156	76	10
13466450	-145	91	13
13466778	-142	107	2
13467106	-122	94	-10
13467434	-100	89	-12
13467762	-92	123	-4
13468090	-76	82	-2
13468418	-74	51	13
13468746	-77	56	30
13469074	-65	43	20
13469402	-55	61	28
13469730	-60	39	34
13470058	-61	39	28
13470386	-64	54	31
13470714	-52	32	44
13471042	-68	29	44
13471370	-92	23	48
13471698	-64	20	77
13472026	-57	29	93
13472354	-48	30	90
13472682	-32	16	91
13473010	-37	19	109
13473338	-41	18	108
13473666	-58	16	123
13473994	-83	15	127
13474322	-82	8	115
13474650	-97	14	131
13474978	-145	6	137
13475306	-170	-7	148
13475634	-138	1	162
13475962	-114	55	174
13476290	-40	76	180
13476618	23	73	142
13476946	83	66	149
13477274	149	67	150
13477602	163	76	152
13477930	136	59	160
13478258	124	52	174
13478586	134	93	170
13478914	121	116	161
13479242	140	139	147
13479570	159	147	132
13479898	179	164	129
13480226	180	176	124
13480554	141	179	159
13480882	90	137	157
13481210	47	146	155
13481538	17	124	148
13481866	-13	150	136
13482194	-11	167	141
13482522	-10	173	118
13482850	-45	211	110
13483178	5	234	117
13483506	3	234	119
13483834	18	249	120
13484162	-14	272	104
13484490	-51	256	84
13484818	-102	281	57
13485146	-158	294	38
13485474	-210	304	36
13485802	-267	316	15
13486130	-302	359	13
13486458	-349	375	-8
13486786	-348	396	-25
13487114	-334	446	-39
13487442	-258	548	-85
13487770	-184	594	-96
13488098	-188	617	-139
13488426	-216	596	-156
13488754	-229	632	-183
13489082	-252	608	-198
13489410	-326	606	-191
13489738	-395	635	-220
13490066	-497	675	-227
13490394	-588	753	-239
13490722	-609	804	-248
13491050	-581	841	-303
13491378	-582	802	-313
13491706	-532	833	-379
13492034	-532	839	-365
13492362	-512	869	-402
13492690	-515	864	-481
13493018	-563	922	-533
13493346	-364	916	-659
13493674	-275	908	-709
13494002	-268	811	-667
13494330	-253	766	-641
13494658	-130	834	-558
13494986	13	962	-585
13495314	106	1029	-591
13495642	344	1078	-610
13495970	579	1110	-627
13496298	735	972	-677
13496626	904	926	-653
13496954	1013	898	-618
13497282	1000	795	-565
13497610	960	686	-501
13497938	881	700	-425
13498266	841	676	-305
13498594	834	560	-249
13498922	838	481	-228
13499250	858	365	-222
13499578	871	235	-219
13499906	867	192	-180
13500234	902	191	-117
13500562	964	190	-113
13500890	945	171	-92
13501218	959	119	-70
13501546	1028	138	-44
13501874	1115	235	-19
13502202	1235	292	-45
13502530	1429	330	-103
13502858	1525	357	-129
13503186	1666	313	-116
13503514	1742	352	-82
13503842	1680	413	-45
13504170	1603	350	-103
13504498	1628	261	-162
13504826	1590	133	-201
13505154	1540	90	-248
13505482	1518	59	-258
13505810	1515	92	-231
13506138	1427	204	-259
13506466	1315	135	-297
13506794	1235	79	-348
13507122	1153	25	-347
13507450	1106	57	-353
13507778	1017	102	-317
13508106	973	94	-336
13508434	999	101	-348
13508762	1031	127	-369
13509090	1087	145	-401
13509418	1115	84	-415
13509746	1155	79	-417
13510074	1117	77	-420
13510402	1078	36	-427
13510730	1084	73	-436
13511058	1097	141	-449
13511386	1173	173	-480
13511714	1280	143	-497
13512042	1449	154	-513
13512370	1582	172	-550
13512698	1628	141	-563
13513026	1678	75	-593
13513354	1694	48	-601
13513682	1653	17	-605
13514010	1635	-30	-611
13514338	1536	-93	-639
13514666	1537	-140	-681
13514994	1578	-114	-684
13515322	1566	-163	-697
13515650	1560	-240	-750
13515978	1492	-313	-793
13516306	1426	-402	-817
13516634	1363	-475	-804
13516962	1323	-559	-791
13517290	1247	-682	-780
13517618	1205	-758	-777
13517946	1123	-720	-775
13518274	983	-730	-810
13518602	838	-775	-788
13518930	516	-867	-743
13519258	340	-1085	-667
13519586	-148	-1274	-605
13519914	-778	-1471	-501
13520242	-1404	-1727	-390
13520570	-2464	-1944	-326
13520898	-3142	-2094	-320
13521226	-3845	-1955	-321
13521554	-4139	-1390	-307
13521882	-3893	-790	-485
13522210	-3221	-454	-953
13522538	-2114	-216	-1442
13522866	-839	-35	-1673
13523194	305	256	-1909
13523522	1089	425	-1858
13523850	1590	822	-1868
13524178	2344	1472	-1590
13524506	2969	2079	-1218
13524834	3575	2136	-1121
13525162	4686	2498	-1348
13525490	6185	3512	-1666
13525818	7452	4614	-2098
13526146	8328	5431	-2300
13526474	8423	5869	-2341
13526802	7983	5900	-2170
13527130	7106	5783	-1965
13527458	6083	5568	-1669
13527786	5522	5659	-1435
13528114	4645	5666	-1142
13528442	3813	5568	-1046
13528770	3371	5503	-957
13529098	3020	5361	-819
13529426	2376	5056	-647
13529754	1803	4658	-390
13530082	737	4058	-13
13530410	-307	3042	363
13530738	-810	1859	593
13531066	-1586	954	984
13531394	-2485	45	1325
13531722	-3104	-950	1709
13532050	-3710	-1439	2154
13532378	-3799	-1324	2643
13532706	-3469	-813	3082
13533034	-2022	-163	3504
13533362	572	1576	3859
13533690	1387	3669	4000
13534018	-196	4183	3099
13534346	-2271	1685	555
13534674	-2055	-3875	-431
13535002	224	-4240	-81
13535330	1784	-886	675
13535658	2465	-710	1026
13535986	2540	-542	710
13536314	1716	302	441
13536642	1357	209	286
13536970	1717	-10	276
13537298	1991	-4	401
13537626	1960	142	491
13537954	1934	138	375
13538282	1835	74	289
13538610	1743	132	301
13538938	1622	193	143
13539266	1234	-37	139
13539594	690	-448	179
13539922	144	-606	269
13540250	-419	-427	371
13540578	-764	-210	462
13540906	-940	-82	525
13541234	-938	-29	529
13541562	-796	20	462
13541890	-556	67	367
13542218	-360	78	257
13542546	-250	22	208
13542874	-198	-30	175
13543202	-103	-23	154
13543530	-105	-6	114
13543858	-137	64	91
13544186	-179	118	83
13544514	-242	129	63
13544842	-275	108	26
13545170	-198	139	-17
13545498	-148	146	-84
13545826	-96	128	-91
13546154	-67	104	-85
13546482	-68	85	-93
13546810	-106	93	-62
13547138	-114	123	-40
13547466	-174	167	26
13547794	-264	172	44
13548122	-348	152	69
13548450	-444	130	50
13548778	-552	63	11
13549106	-644	57	-4
13549434	-753	64	17
13549762	-790	42	35
13550090	-750	105	81
13550418	-679	158	15
13550746	-543	166	-32
13551074	-320	207	-88
13551402	-96	231	-137
13551730	139	260	-215
13552058	373	298	-251
13552386	509	315	-280
13552714	583	226	-295
13553042	529	135	-235
13553370	441	62	-187
13553698	298	-10	-172
13554026	138	99	-195
13554354	48	148	-221
13554682	-1	95	-256
13555010	-13	125	-255
13555338	-61	189	-259
13555666	-83	162	-247
13555994	-169	133	-237
13556322	-271	133	-251
13556650	-287	141	-262
13556978	-249	168	-265
13557306	-247	154	-264
13557634	-204	124	-263
13557962	-163	118	-257
13558290	-184	79	-266
13558618	-216	77	-271
13558946	-243	24	-266
13559274	-190	62	-271
13559602	-69	156	-301
13559930	34	196	-348
13560258	160	212	-392
13560586	275	234	-433
13560914	284	231	-442
13561242	237	191	-417
13561570	109	141	-403
13561898	-39	44	-399
13562226	-199	4	-371
13562554	-371	-66	-316
13562882	-488	-107	-291
13563210	-618	-104	-275
13563538	-743	-81	-256
13563866	-852	-139	-253
13564194	-998	-213	-203
13564522	-1169	-241	-180
13564850	-1187	-166	-153
13565178	-991	81	-193
13565506	-842	199	-317
13565834	-586	170	-453
13566162	-222	211	-490
13566490	-68	213	-427
13566818	-95	190	-349
13567146	-185	188	-324
13567474	-374	213	-314
13567802	-488	176	-300
13568130	-486	176	-284
13568458	-367	224	-296
13568786	-309	266	-276
13569114	-224	313	-288
13569442	-110	403	-295
13569770	-92	403	-292
13570098	-75	345	-284
13570426	-72	328	-267
13570754	-30	325	-255
13571082	-54	379	-262
13571410	76	416	-276
13571738	260	510	-374
13572066	493	587	-469
13572394	741	624	-530
13572722	927	654	-567
13573050	1031	726	-617
13573378	1067	785	-740
13573706	1068	833	-970
13574034	1031	935	-1243
13574362	1014	969	-1488
13574690	877	1044	-1733
13575018	599	1174	-2021
13575346	259	1376	-2365
13575674	-126	1650	-2713
13576002	-666	1942	-3007
13576330	-1078	2057	-3198
13576658	-1485	2137	-3362
13576986	-1488	2157	-3304
13577314	-2025	2162	-3350
13577642	-2329	2399	-3553
13577970	-2650	2675	-3900
13578298	-2640	2862	-4200
13578626	-2520	3330	-4341
13578954	-2754	3898	-4446
13579282	-3268	4168	-4793
13579610	-3586	4202	-4642
13579938	-4171	3531	-4634
13580266	-4950	1962	-4584
13580594	-5656	-102	-4709
13580922	-5722	-1263	-4586
13581250	-4898	-376	-4262
13581578	-3650	2531	-3918
13581906	-2404	5737	-3687
13582234	-1296	7342	-3605
13582562	-460	6394	-3192
13582890	-128	5046	-3589
13583218	91	4464	-3702
13583546	-290	4101	-3795
13583874	-1337	2783	-3866
13584202	-2232	1013	-3575
13584530	-2963	-14	-3091
13584858	-2960	-260	-2677
13585186	-2857	-846	-1952
13585514	-3027	-1794	-1600
13585842	-2191	-1916	-1117
13586170	-762	-861	-192
13586498	600	186	817
13586826	1834	641	1698
13587154	2648	380	2743
13587482	3376	464	3434
13587810	3881	136	4368
13588138	3783	-1498	5351
13588466	3767	-3542	5851
13588794	4481	-4743	6166
13589122	5102	-5787	7071
13589450	6160	-6065	7436
13589778	6940	-5555	7857
13590106	7660	-5128	8669
13590434	8497	-5400	9100
13590762	9425	-5536	9957
13591090	9285	-5262	11107
13591418	9350	-6041	11373
13591746	9277	-9622	12318
13592074	9414	-14246	13294
13592402	11367	-12096	12600
13592730	12002	-5828	10604
13593058	9743	385	6798
13593386	5403	3047	-463
13593714	3161	5225	-4654
13594042	2331	2769	-5723
13594370	3414	-183	-4351
13594698	4272	-1264	-1662
13595026	3304	-1404	335
13595354	700	-1464	2244
13595682	-1224	-1731	2374
13596010	-3655	-1771	3343
13596338	-4646	-780	3776
13596666	-4500	597	3757
13596994	-3950	1682	3274
13597322	-2992	2089	2408
13597650	-1390	1534	1609
13597978	172	1093	769
13598306	1441	971	-176
13598634	2129	1070	-1011
13598962	1816	1302	-1692
13599290	1004	1219	-2381
13599618	-3	1048	-3096
13599946	-1287	1533	-3777
13600274	-2251	2225	-4691
13600602	-2660	2532	-5402
13600930	-2310	2970	-5833
13601258	-1382	3093	-5848
13601586	-289	2227	-5825
13601914	822	2135	-5515
13602242	-1272	2715	-7646
13602570	-3125	1817	-10585
13602898	-5949	-1609	-11568
13603226	-6285	9995	-13056
13603554	-5854	22411	-13222
13603882	2598	29227	-8331
13604210	234	14094	7230
13604538	-2509	-1624	8502
13604866	-7391	-7572	-9127
13605194	-8630	-4313	-2414
13605522	91	11298	804
13605850	-4267	-161	990
13606178	-12510	-18824	-10005
13606506	-16904	-24332	-5512
13606834	-8187	-21288	3742
13607162	721	3	2944
13607490	3437	8781	6492
13607818	3738	19862	17224
13608146	5507	5820	-999
13608474	6134	533	3573
13608802	6457	1732	3028
13609130	5558	2856	3891
13609458	3833	-346	3870
13609786	1626	-4888	4123
13610114	77	-7772	4355
13610442	-1032	-8388	4014
13610770	-1586	-7154	3973
13611098	-1898	-4893	3474
13611426	-1834	-2797	2597
13611754	-1879	-1359	2083
13612082	-2078	-348	1961
13612410	-2062	-46	2017
13612738	-2094	-240	2159
13613066	-1973	-321	2114
13613394	-2088	-283	1876
13613722	-2482	-643	1801
13614050	-2501	-471	1273
13614378	-1975	115	1283
13614706	-1911	165	1025
13615034	-1557	169	940
13615362	-953	183	704
13615690	-441	33	424
13616018	-93	123	307
13616346	-78	123	353
13616674	-242	-119	420
13617002	-523	-514	474
13617330	-654	-732	481
13617658	-920	-772	537
13617986	-1249	-977	567
13618314	-1430	-1221	667
13618642	-1673	-1321	789
13618970	-1773	-1313	931
13619298	-2016	-1309	1032
13619626	-2051	-1419	1085
13619954	-2113	-1554	1075
13620282	-1902	-1655	995
13620610	-1667	-1630	1034
13620938	-1483	-1691	955
13621266	-1180	-1556	848
13621594	-801	-1203	741
13621922	-584	-780	643
13622250	-575	-669	570
13622578	-987	-733	407
13622906	-1813	-1198	818
13623234	-1856	-1264	768
13623562	-1523	-1087	685
13623890	-1348	-774	549
13624218	-1171	-770	441
13624546	-699	-533	280
13624874	-444	-119	89
13625202	-323	106	-48
13625530	-331	116	-149
13625858	-248	-64	-206
13626186	24	-81	-215
13626514	476	120	-99
13626842	1505	604	171
13627170	2564	1592	392
13627498	3092	1769	583
13627826	4213	1354	964
13628154	4228	2058	1418
13628482	1698	3105	637
13628810	659	1126	-621
13629138	1635	495	-1328
13629466	2064	1051	-898
13629794	2670	-355	-228
13630122	3398	-359	-133
13630450	3551	595	-60
13630778	2857	302	-172
13631106	2070	-28	-80
13631434	1251	-57	299
13631762	575	32	463
13632090	48	146	448
13632418	65	156	315
13632746	499	47	341
13633074	954	17	296
13633402	1184	112	186
13633730	1240	59	53
13634058	1190	-57	18
13634386	961	-58	48
13634714	697	23	122
13635042	436	46	94
13635370	164	57	104
13635698	-74	49	94
13636026	-298	44	39
13636354	-361	74	-65
13636682	-183	143	-179
13637010	-53	256	-292
13637338	57	249	-429
13637666	79	222	-433
13637994	-39	199	-504
13638322	-320	223	-534
13638650	-517	255	-555
13638978	-524	211	-591
13639306	-525	301	-650
13639634	-538	337	-656
13639962	-551	334	-623
13640290	-536	257	-563
13640618	-578	238	-513
13640946	-604	236	-497
13641274	-583	273	-460
13641602	-579	306	-430
13641930	-536	282	-419
13642258	-455	216	-360
13642586	-389	176	-331
13642914	-392	170	-273
13643242	-432	155	-230
13643570	-546	122	-156
13643898	-576	146	-152
13644226	-620	127	-134
13644554	-539	148	-145
13644882	-376	221	-128
13645210	-262	249	-154
13645538	-208	194	-135
13645866	-180	212	-128
13646194	-129	204	-97
13646522	-24	238	-102
13646850	34	258	-106
13647178	37	256	-138
13647506	47	224	-127
13647834	87	229	-87
13648162	78	228	-77
13648490	8	231	-73
13648818	-41	219	-97
13649146	-81	238	-91
13649474	-135	254	-59
13649802	-197	228	-62
13650130	-198	257	-41
13650458	-212	269	-33
13650786	-170	305	8
13651114	-205	317	21
13651442	-187	281	42
13651770	-172	314	21
13652098	-146	351	16
13652426	-114	317	4
13652754	-153	299	5
13653082	-157	272	31
13653410	-175	290	38
13653738	-180	318	28
13654066	-132	365	6
13654394	-102	379	18
13654722	-21	361	17
13655050	-3	340	21
13655378	-16	322	21
13655706	-89	256	38
13656034	-72	259	25
13656362	-77	270	-5
13656690	116	387	19
13657018	439	501	-45
13657346	656	520	-54
13657674	800	537	-238
13658002	748	566	-363
13658330	699	167	-269
13658658	455	6	-165
13658986	9	-29	-144
13659314	-384	-88	-88
13659642	-637	-44	-29
13659970	-674	12	-40
13660298	-526	-3	-70
13660626	-381	-2	-146
13660954	-279	-45	-199
13661282	-308	-114	-136
13661610	-248	-11	-154
13661938	-235	52	-203
13662266	-266	97	-242
13662594	-233	86	-208
13662922	-145	76	-153
13663250	-86	162	-180
13663578	-148	97	-210
13663906	-272	62	-236
13664234	-483	65	-265
13664562	-769	-21	-250
13664890	-930	-65	-246
13665218	-920	108	-206
13665546	-948	192	-288
13665874	-849	102	-403
13666202	-720	110	-424
13666530	-567	10	-402
13666858	-515	119	-354
13667186	-457	195	-322
13667514	-426	232	-325
13667842	-432	191	-336
13668170	-317	273	-309
13668498	-143	131	-234
13668826	77	200	-264
13669154	259	286	-277
13669482	395	-9	-254
13669810	484	-93	-156
13670138	464	-120	-39
13670466	337	-154	-48
13670794	36	-231	-67
13671122	-232	-345	-44
13671450	-285	-297	-14
13671778	-233	-355	-44
13672106	-38	-251	-157
13672434	295	-238	-192
13672762	600	-368	-170
13673090	787	-388	-198
13673418	823	-410	-230
13673746	763	-472	-238
13674074	700	-566	-226
13674402	628	-589	-264
13674730	510	-603	-308
13675058	508	-721	-327
13675386	498	-762	-314
13675714	409	-801	-366
13676042	271	-852	-418
13676370	37	-1000	-455
13676698	-157	-1140	-448
13677026	-404	-1309	-438
13677354	-570	-1357	-420
13677682	-447	-1284	-451
13678010	-395	-1246	-598
13678338	-259	-1217	-772
13678666	-38	-1210	-877
13678994	89	-1203	-920
13679322	53	-1273	-949
13679650	-74	-1276	-965
13679978	-197	-1246	-1030
13680306	-279	-1219	-1105
13680634	-246	-1218	-1113
13680962	21	-1058	-1198
13681290	164	-1146	-1264
13681618	366	-1185	-1353
13681946	714	-1128	-1384
13682274	939	-1235	-1295
13682602	955	-1390	-1090
13682930	1120	-1340	-870
13683258	1354	-1325	-615
13683586	1528	-1202	-389
13683914	2035	-1092	-230
13684242	2400	-1163	-74
13684570	3354	-1192	212
13684898	3472	-1231	428
13685226	3758	-1542	639
13685554	3578	-1530	785
13685882	3073	-1702	869
13686210	2783	-2156	776
13686538	2337	-2361	486
13686866	1855	-2042	118
13687194	1410	-1626	-180
13687522	966	-1489	-310
13687850	438	-1589	-364
13688178	30	-1638	-541
13688506	483	-1141	-862
13688834	1241	-546	-1177
13689162	2678	-56	-1389
13689490	4877	1155	-1636
13689818	6235	1674	-1693
13690146	7223	1460	-1654
13690474	7412	1051	-1380
13690802	7018	412	-1171
13691130	6339	-232	-891
13691458	5621	-627	-514
13691786	4926	-650	-354
13692114	4372	-677	-308
13692442	4108	-456	-369
13692770	3802	-237	-558
13693098	3411	-355	-915
13693426	3123	-568	-998
13693754	2504	-858	-944
13694082	1872	-1268	-790
13694410	1791	178	-1136
13694738	1901	1342	-1966
13695066	1851	2202	-2473
13695394	992	2274	-2254
13695722	-199	1817	-1915
13696050	-901	1139	-1485
13696378	-1453	1067	-729
13696706	-1587	1613	-138
13697034	-1378	1768	13
13697362	-1387	2187	-237
13697690	-827	2368	-374
13698018	-27	2443	-149
13698346	625	2746	8
13698674	133	2482	108
13699002	-726	1857	-97
13699330	-1067	367	-624
13699658	-1584	-1534	-684
13699986	-2914	-2219	-361
13700314	-4029	-1942	238
13700642	-4990	-1313	648
13700970	-5155	-194	473
13701298	-4670	843	325
13701626	-3735	1455	161
13701954	-2468	1608	73
13702282	-1355	1649	117
13702610	-492	1624	113
13702938	-77	1202	52
13703266	-264	718	174
13703594	-754	542	428
13703922	-1308	270	693
13704250	-1631	331	831
13704578	-1821	381	870
13704906	-1583	454	768
13705234	-1087	600	652
13705562	-546	632	607
13705890	15	714	518
13706218	378	596	542
13706546	438	578	648
13706874	324	511	637
13707202	13	366	622
13707530	-342	265	609
13707858	-539	173	575
13708186	-710	145	540
13708514	-734	110	506
13708842	-719	124	481
13709170	-654	173	430
13709498	-631	297	325
13709826	-688	324	214
13710154	-781	272	190
13710482	-799	228	230
13710810	-839	189	230
13711138	-941	88	210
13711466	-961	30	149
13711794	-898	70	104
13712122	-822	25	65
13712450	-634	6	56
13712778	-478	23	35
13713106	-368	33	-1
13713434	-180	50	-38
13713762	14	115	-79
13714090	180	161	-123
13714418	296	152	-128
13714746	318	112	-160
13715074	328	98	-157
13715402	351	119	-173
13715730	347	79	-172
13716058	364	-14	-139
13716386	377	-37	-116
13716714	414	-25	-149
13717042	326	-113	-159
13717370	298	-98	-156
13717698	261	-114	-130
13718026	280	-171	-140
13718354	313	-83	-178
13718682	425	36	-252
13719010	582	58	-305
13719338	817	56	-338
13719666	1031	102	-368
13719994	1141	75	-304
13720322	1142	124	-296
13720650	1052	116	-315
13720978	1035	-38	-296
13721306	906	-121	-270
13721634	797	-138	-205
13721962	727	-132	-182
13722290	689	-112	-170
13722618	636	-145	-176
13722946	627	-173	-166
13723274	687	-142	-163
13723602	661	-144	-177
13723930	516	-246	-207
13724258	456	-198	-230
13724586	277	-301	-274
13724914	140	-366	-275
13725242	27	-221	-311
13725570	-91	-197	-382
13725898	55	-159	-492
13726226	241	-105	-505
13726554	705	-82	-562
13726882	1241	34	-698
13727210	1573	184	-875
13727538	1972	358	-1028
13727866	2026	511	-1075
13728194	1918	343	-1085
13728522	2400	539	-1095
13728850	2591	613	-1087
13729178	2990	909	-1221
13729506	3616	1219	-1328
13729834	4379	1367	-1230
13730162	5105	1777	-1149
13730490	5857	2305	-1087
13730818	6643	2796	-1059
13731146	7477	3169	-1032
13731474	8450	3884	-1075
13731802	9411	4452	-1101
13732130	10336	4877	-1021
13732458	11068	5213	-875
13732786	11424	5102	-820
13733114	11672	4589	-627
13733442	12061	3827	-287
13733770	12564	3179	82
13734098	13427	2636	628
13734426	14221	2818	1290
13734754	14763	3280	1890
13735082	15091	3952	2185
13735410	14911	4400	2288
13735738	14792	4686	2262
13736066	14747	4316	1855
13736394	15892	3856	1233
13736722	17242	4061	1021
13737050	17942	3688	1233
13737378	17658	1901	1616
13737706	16759	309	2437
13738034	15396	-767	2890
13738362	13869	-1295	3028
13738690	12233	-989	2887
13739018	10951	-765	2690
13739346	10014	-1125	2162
13739674	8659	-2056	1598
13740002	7169	-2492	988
13740330	6098	-2729	464
13740658	5017	-3112	48
13740986	3323	-3748	-255
13741314	1441	-3746	-602
13741642	350	-2265	-1570
13741970	-295	-710	-3195
13742298	-2343	2320	-5371
13742626	-4176	3488	-7378
13742954	-5662	2463	-7244
13743282	-5733	4011	-6525
13743610	-5497	4295	-4510
13743938	-4640	4248	-2791
13744266	-4337	3487	-2593
13744594	-3179	1260	-3233
13744922	-2438	1349	-3796
13745250	-2218	793	-4081
13745578	-904	250	-3828
13745906	714	453	-3053
13746234	1340	1855	-2376
13746562	115	4112	-2065
13746890	-1939	8719	-2188
13747218	-2291	10479	-2196
13747546	-443	2291	-2156
13747874	335	-5749	-1902
13748202	-19	-5808	-1260
13748530	-692	-2747	-773
13748858	-1439	-1786	588
13749186	-2254	647	683
13749514	-2316	2725	965
13749842	-1559	2564	327
13750170	-695	317	-25
13750498	-251	-703	-450
13750826	-135	-585	-433
13751154	-145	-215	-307
13751482	-73	232	-149
13751810	-97	708	-38
13752138	-173	1082	-238
13752466	-40	1142	-441
13752794	0	1537	-696
13753122	268	1771	-971
13753450	536	1642	-1262
13753778	709	1814	-1627
13754106	879	2158	-1954
13754434	961	2196	-2166
13754762	1123	2282	-2211
13755090	1186	2696	-2375
13755418	551	2843	-2522
13755746	353	3038	-2931
13756074	620	3305	-3100
13756402	1367	3313	-3092
13756730	2018	3364	-3041
13757058	2305	3614	-2949
13757386	2724	4160	-3186
13757714	3065	4657	-3441
13758042	3237	4819	-3777
13758370	3152	4876	-4232
13758698	3018	4653	-4752
13759026	2480	4004	-4920
13759354	1410	3432	-4890
13759682	-150	3042	-4688
13760010	-2008	2236	-4346
13760338	-3734	1276	-3937
13760666	-5059	478	-3702
13760994	-6183	321	-3454
13761322	-6817	691	-3298
13761650	-7392	867	-3176
13761978	-6704	1038	-2925
13762306	-5994	1518	-2712
13762634	-4858	2278	-2703
13762962	-4346	2166	-2598
13763290	-4081	1407	-2366
13763618	-3908	1062	-2163
13763946	-3542	1280	-1774
13764274	-3100	1893	-1592
13764602	-2894	1917	-1473
13764930	-2575	1617	-1531
13765258	-1907	1861	-1564
13765586	-1302	2507	-1668
13765914	-820	2370	-1757
13766242	-488	1774	-1581
13766570	30	1856	-1589
13766898	595	2220	-1465
13767226	1345	2613	-1444
13767554	2180	3155	-1526
13767882	3021	3510	-1609
13768210	3903	3608	-1633
13768538	4422	4414	-1602
13768866	4412	4698	-1586
13769194	4670	4453	-1784
13769522	4991	4340	-1794
13769850	4802	4418	-1755
13770178	4300	4298	-1878
13770506	3846	3521	-1986
13770834	3187	2365	-2024
13771162	2388	1243	-1932
13771490	1527	335	-1991
13771818	1290	-409	-2077
13772146	1218	-768	-2186
13772474	1168	-602	-2179
13772802	1154	-678	-2183
13773130	1062	-1280	-2300
13773458	1239	-1721	-2305
13773786	2364	-1351	-2438
13774114	3909	-301	-2875
13774442	5314	736	-3424
13774770	6154	1678	-4019
13775098	5897	2410	-4276
13775426	4903	2256	-4294
13775754	3483	1741	-4375
13776082	1928	1612	-4430
13776410	322	1158	-4540
13776738	-1464	425	-4632
13777066	-2569	-490	-4553
13777394	-3260	-1223	-4246
13777722	-3535	-1782	-3592
13778050	-3951	-2233	-2641
13778378	-4192	-3015	-1871
13778706	-3777	-3067	-1284
13779034	-3056	-2183	-953
13779362	-1755	-1287	-779
13779690	110	-256	-746
13780018	2190	1153	-892
13780346	3841	2343	-1094
13780674	5343	2736	-1361
13781002	6659	2388	-1819
13781330	7723	1669	-2054
13781658	7945	1183	-1543
13781986	7896	1200	-1336
13782314	7220	1286	-1284
13782642	6060	1025	-1072
13782970	5034	856	-1040
13783298	4335	820	-1176
13783626	3880	998	-1135
13783954	3400	1196	-1197
13784282	2957	976	-1154
13784610	2557	414	-887
13784938	2212	514	-640
13785266	1773	897	-641
13785594	1459	923	-679
13785922	1276	691	-745
13786250	1197	390	-748
13786578	1027	664	-818
13786906	1172	1012	-831
13787234	1359	1161	-719
13787562	1408	1334	-621
13787890	1371	1229	-606
13788218	1307	1298	-549
13788546	1000	1545	-460
13788874	625	1521	-237
13789202	495	1214	-79
13789530	302	1228	-128
13789858	491	1450	-187
13790186	1020	1492	-181
13790514	1094	1064	-183
13790842	621	583	-68
13791170	195	-228	-12
13791498	-368	-597	67
13791826	-756	-241	-41
13792154	-980	-216	-97
13792482	-1202	-800	-167
13792810	-1622	-423	-307
13793138	-2191	281	-290
13793466	-2926	-164	-269
13793794	-3660	-621	-71
13794122	-4806	-778	282
13794450	-6089	-1236	452
13794778	-7389	-1965	635
13795106	-8607	-2679	931
13795434	-9425	-3026	1009
13795762	-9731	-2965	922
13796090	-9879	-2699	690
13796418	-9947	-3041	450
13796746	-9680	-3448	297
13797074	-9758	-3445	253
13797402	-9928	-3790	278
13797730	-9692	-4385	503
13798058	-9574	-4945	905
13798386	-9318	-5742	1221
13798714	-8425	-5934	1308
13799042	-7192	-5430	1565
13799370	-5231	-4564	1869
13799698	-3510	-2948	2121
13800026	-2194	-1085	2140
13800354	-1115	10	1882
13800682	-400	-171	1951
13801010	-359	-1219	2494
13801338	-160	-3455	3134
13801666	340	-4342	3794
13801994	1225	-3236	4152
13802322	2810	-821	4106
13802650	4640	1955	4305
13802978	6620	3846	4229
13803306	8741	4919	4088
13803634	9874	6465	4166
13803962	7552	10259	3341
13804290	5941	17997	641
13804618	2827	13584	1710
13804946	1270	203	2282
13805274	-4638	-10067	1924
13805602	-6886	-10188	2891
13805930	-5381	-5216	2963
13806258	-2553	-802	2677
13806586	-131	1138	2538
13806914	1858	3599	1716
13807242	1064	1895	1426
13807570	-1042	-979	1391
13807898	-2968	-3598	1861
13808226	-4525	-4598	2049
13808554	-4888	-4352	2354
13808882	-4863	-3701	2524
13809210	-4833	-2980	2485
13809538	-4743	-2534	2380
13809866	-4773	-2264	1966
13810194	-4709	-2353	1596
13810522	-4847	-2940	1339
13810850	-5025	-3206	1083
13811178	-5123	-3073	879
13811506	-5297	-2735	619
13811834	-5354	-2497	228
13812162	-4994	-2455	26
13812490	-4432	-2458	-314
13812818	-3982	-2576	-851
13813146	-3851	-2707	-1337
13813474	-4134	-2977	-1741
13813802	-4739	-3844	-2058
13814130	-5303	-5068	-2172
13814458	-5912	-6356	-2325
13814786	-6957	-7703	-1754
13815114	-8297	-8051	-1071
13815442	-9716	-7878	-710
13815770	-10860	-8601	-672
13816098	-11180	-9334	-1208
13816426	-11482	-9906	-2151
13816754	-11974	-11332	-3213
13817082	-13269	-13540	-4273
13817410	-16188	-15596	-4928
13817738	-19338	-18343	-5150
13818066	-21511	-21240	-4605
13818394	-23269	-23114	-3493
13818722	-24968	-22130	-3133
13819050	-26547	-21480	-3410
13819378	-27269	-21524	-3827
13819706	-26794	-21307	-4398
13820034	-24853	-20368	-4938
13820362	-22350	-18749	-5420
13820690	-19770	-16708	-5689
13821018	-17355	-14860	-5557
13821346	-14784	-12971	-5165
13821674	-12762	-10780	-4619
13822002	-11028	-9031	-4093
13822330	-9544	-7573	-3748
13822658	-8146	-7218	-3543
13822986	-6785	-7451	-3666
13823314	-4783	-6432	-3872
13823642	-2347	-3582	-3926
13823970	84	-942	-3959
13824298	2110	909	-4027
13824626	3174	2251	-4284
13824954	3288	2460	-4784
13825282	2779	955	-4887
13825610	1959	-1227	-4665
13825938	916	-2753	-3985
13826266	-528	-4045	-3122
13826594	-2427	-6018	-2340
13826922	-3491	-7949	-1698
13827250	-4679	-9639	-1241
13827578	-5466	-11241	-558
13827906	-5315	-11400	-367
13828234	-3351	-8403	-374
13828562	-2950	-5178	-72
13828890	-2375	-6346	453
13829218	-1758	-6402	395
13829546	-924	-6590	408
13829874	947	-6327	624
13830202	2944	-5829	895
13830530	4465	-5553	1131
13830858	5306	-5247	1533
13831186	5868	-4912	2001
13831514	5714	-4731	2658
13831842	5577	-4035	3377
13832170	3171	-4576	3984
13832498	1103	-6415	4624
13832826	-1869	-8272	5478
13833154	-6012	-8708	3634
13833482	-9197	-3961	2535
13833810	-14807	-4337	1919
13834138	-18059	-10654	3124
13834466	-16136	-10773	5885
13834794	-13788	-6185	8325
13835122	-12456	-4542	7988
13835450	-10894	-5577	6013
13835778	-9618	-5646	4818
13836106	-8568	-4579	4411
13836434	-7355	-4038	4222
13836762	-6516	-3404	4330
13837090	-5899	-2163	4836
13837418	-5902	-810	5210
13837746	-5579	-194	5089
13838074	-4366	-550	4993
13838402	-3087	-388	5047
13838730	-1261	691	4962
13839058	581	1169	4759
13839386	1857	1307	4194
13839714	2169	1352	3876
13840042	590	1091	3594
13840370	-2157	317	3223
13840698	-4845	-272	2647
13841026	-7508	-1764	2897
13841354	-9486	-4980	3467
13841682	-9520	-5235	3591
13842010	-8549	-2925	3812
13842338	-7215	-1821	3487
13842666	-5606	-1429	2973
13842994	-3740	-847	2507
13843322	-2250	-463	2266
13843650	-1941	-561	1991
13843978	-2570	-1330	2219
13844306	-4023	-2046	2021
13844634	-5561	-2874	2109
13844962	-5721	-2547	1942
13845290	-4877	-1084	1747
13845618	-3973	252	1473
13845946	-3109	587	1239
13846274	-2268	641	912
13846602	-2230	20	763
13846930	-1355	-338	612
13847258	-271	1159	257
13847586	-410	1583	145
13847914	554	2280	-83
13848242	1351	3259	-358
13848570	1546	3443	-519
13848898	1692	2731	-564
13849226	2201	2068	-398
13849554	2093	1265	-157
13849882	1818	874	-99
13850210	1661	669	-149
13850538	1218	409	-93
13850866	1357	411	-63
13851194	1800	799	-154
13851522	2057	939	-524
13851850	2408	740	-713
13852178	2718	827	-709
13852506	2505	713	-698
13852834	2261	595	-758
13853162	1956	633	-871
13853490	1702	682	-1067
13853818	1666	810	-1359
13854146	1883	792	-1625
13854474	2336	893	-1856
13854802	2856	1148	-2265
13855130	3272	1239	-2705
13855458	3332	1198	-2983
13855786	2940	1007	-3127
13856114	2312	790	-3259
13856442	1585	366	-3536
13856770	1208	282	-3776
13857098	1056	164	-4073
13857426	1216	142	-4411
13857754	1521	-88	-4649
13858082	1870	300	-4868
13858410	2176	550	-5218
13858738	2312	570	-5707
13859066	2381	536	-6241
13859394	2541	678	-6866
13859722	2295	592	-6990
13860050	1803	370	-7324
13860378	1291	-1	-7769
13860706	808	-87	-8171
13861034	216	-251	-8481
13861362	-375	-320	-8762
13861690	-1015	-383	-9375
13862018	-1365	-478	-9776
13862346	-1348	-272	-9837
13862674	-564	156	-9610
13863002	-263	221	-9186
13863330	-2543	-1092	-8538
13863658	-7073	-3819	-9573
13863986	-11864	-5919	-11516
13864314	-15662	-6887	-11168
13864642	-17779	-7289	-9579
13864970	-19376	-10019	-7207
13865298	-20038	-13422	-4078
13865626	-16589	-10104	-1632
13865954	-11657	-2608	-547
13866282	-9583	-2333	1169
13866610	-8769	-2095	2798
13866938	-7119	-1516	4589
13867266	-4499	-2067	6136
13867594	-233	-3581	8047
13867922	3486	-3526	10248
13868250	5642	-2676	11642
13868578	6919	-2001	12655
13868906	7446	-1438	13902
13869234	8938	-1338	15183
13869562	10039	-1637	16630
13869890	10020	-1888	18094
13870218	9573	-2542	19393
13870546	8731	-3926	20666
13870874	7298	-5438	22234
13871202	5718	-5907	22940
13871530	4397	-6317	23097
13871858	3100	-7618	23465
13872186	2688	-8973	22838
13872514	1503	-9838	22840
13872842	438	-9223	22321
13873170	11	-9196	20948
13873498	208	-10729	19417
13873826	1141	-10596	17916
13874154	1177	-9249	15622
13874482	570	-6155	12440
13874810	-612	-3422	7672
13875138	-1485	-2595	3045
13875466	-1803	-3382	724
13875794	-2846	-3168	-673
13876122	-5366	-2782	-3397
13876450	-8658	1027	-6724
13876778	-11315	6959	-9084
13877106	-14064	10976	-10765
13877434	-12004	6808	-9366
13877762	-9833	-1363	-6187
13878090	-4501	-1595	-5234
13878418	-2032	2904	-4552
13878746	-1750	4709	-4713
13879074	-2355	3713	-5132
13879402	-2639	1643	-4866
13879730	-2726	2315	-3713
13880058	-2751	2972	-3465
13880386	-2233	2453	-2858
13880714	-1542	1754	-2675
13881042	-452	1774	-2520
13881370	770	3112	-1659
13881698	1119	5910	-936
13882026	1007	6680	-581
13882354	480	2915	-1017
13882682	1	-18	-1267
13883010	-644	-1167	-1115
13883338	-917	-1168	-661
13883666	-1146	-835	-180
13883994	-1457	-943	87
13884322	-1475	-1153	254
13884650	-1270	-782	321
13884978	-1111	61	348
13885306	-863	372	326
13885634	-637	-248	110
13885962	-568	-1095	-53
13886290	-570	-1970	-27
13886618	-687	-2780	32
13886946	-679	-2919	190
13887274	-774	-2694	404
13887602	-982	-2884	567
13887930	-1009	-3107	713
13888258	-889	-3222	773
13888586	-700	-3226	749
13888914	-541	-2841	867
13889242	-384	-2337	1172
13889570	-283	-2017	1423
13889898	-152	-1896	1670
13890226	58	-2114	1887
13890554	360	-2369	2145
13890882	752	-2474	2329
13891210	1011	-2673	2695
13891538	1464	-2744	3073
13891866	1978	-2410	3620
13892194	2464	-2107	4125
13892522	3189	-2135	4413
13892850	3975	-2126	4742
13893178	4593	-2126	5095
13893506	5356	-2197	5429
13893834	6486	-1927	5891
13894162	8017	-1251	6297
13894490	9675	-504	6573
13894818	11607	206	6650
13895146	14048	148	6737
13895474	16330	581	6831
13895802	18087	1858	7196
13896130	19455	1304	7489
13896458	20203	1274	6903
13896786	20697	963	5654
13897114	18582	1612	3229
13897442	14656	2930	328
13897770	11655	2673	-2739
13898098	10531	1542	-4623
13898426	10696	2184	-5020
13898754	9855	1873	-5510
13899082	9198	1155	-6287
13899410	8046	194	-7084
13899738	6857	-487	-7838
13900066	5821	-1053	-8806
13900394	4737	-1837	-9806
13900722	3218	-3234	-9933
13901050	2076	-4625	-9645
13901378	790	-5619	-9253
13901706	-646	-5878	-9087
13902034	-761	-5604	-9109
13902362	-710	-4796	-9058
13902690	-298	-4038	-8864
13903018	671	-3538	-8783
13903346	2116	-3124	-8616
13903674	3922	-2458	-8491
13904002	5766	-2029	-8182
13904330	7161	-1940	-7619
13904658	7949	-2160	-6892
13904986	8993	-1935	-6368
13905314	9741	-1803	-5808
13905642	10356	-1570	-5207
13905970	10974	-1026	-4734
13906298	11594	-687	-4247
13906626	11906	-277	-4027
13906954	12284	80	-3769
13907282	12393	274	-3492
13907610	12446	242	-3105
13907938	12497	445	-2832
13908266	12326	290	-2523
13908594	11911	-87	-2408
13908922	11188	-331	-2204
13909250	10468	-599	-2113
13909578	9264	-1099	-2171
13909906	8247	-1555	-2275
13910234	6952	-1968	-2386
13910562	5677	-1327	-2534
13910890	3235	-304	-3083
13911218	170	-357	-3747
13911546	-772	1621	-4155
13911874	953	6373	-4020
13912202	313	9311	-4747
13912530	4631	7358	-4870
13912858	5936	6899	-3544
13913186	5095	10634	-2890
13913514	3856	12369	-5476
13913842	4664	7768	-5052
13914170	4407	2056	-3092
13914498	3391	782	-1813
13914826	433	962	-991
13915154	-2837	3436	-1567
13915482	-6060	5120	-2021
13915810	-6986	-194	-1683
13916138	-5661	-3429	-511
13916466	-4341	1234	391
13916794	-3925	5528	602
13917122	-2535	5972	-1
13917450	-104	4925	-184
13917778	2531	4559	262
13918106	4175	5058	228
13918434	5862	5415	-213
13918762	6542	5165	-414
13919090	7205	5177	-791
13919418	7796	5534	-1206
13919746	8411	6010	-1828
13920074	9426	6656	-2735
13920402	11189	7430	-3331
13920730	11557	7604	-3263
13921058	11529	7613	-3142
13921386	10986	7708	-3249
13921714	9819	7500	-2944
13922042	8601	7336	-2928
13922370	7300	6974	-2646
13922698	5547	6500	-2250
13923026	3278	6320	-2321
13923354	406	5897	-2605
13923682	-1798	6163	-3254
13924010	-2908	3854	-3227
13924338	-4496	-1321	-2879
13924666	-5166	-1325	-2222
13924994	-5920	1956	-2067
13925322	-6598	2186	-2565
13925650	-6476	2277	-2929
13925978	-5729	3392	-3101
13926306	-4622	3280	-2862
13926634	-3513	2854	-2706
13926962	-2131	3078	-2591
13927290	-1491	2893	-2442
13927618	-1321	2076	-2241
13927946	-1049	1801	-1669
13928274	-1022	2512	-1213
13928602	-1117	3043	-903
13928930	-638	2913	-1148
13929258	-110	2340	-1242
13929586	412	2139	-1347
13929914	812	2291	-1167
13930242	780	2282	-986
13930570	596	2011	-931
13930898	217	1678	-1165
13931226	361	1475	-1345
13931554	559	1242	-1492
13931882	775	964	-1477
13932210	607	882	-1418
13932538	564	897	-1376
13932866	601	957	-1438
13933194	965	1129	-1633
13933522	1406	1298	-1778
13933850	1388	1467	-1774
13934178	1548	1349	-1618
13934506	1977	1566	-1875
13934834	1911	2039	-2108
13935162	1840	2131	-2072
13935490	1589	1849	-2173
13935818	1408	1524	-2027
13936146	1617	2102	-2544
13936474	1485	1797	-2843
13936802	686	957	-2584
13937130	81	228	-3044
13937458	319	677	-2887
13937786	451	1161	-3127
13938114	597	1145	-3381
13938442	842	887	-3937
13938770	1271	919	-4242
13939098	1692	1471	-4438
13939426	1979	2298	-4594
13939754	2330	2736	-4649
13940082	2649	2956	-5008
13940410	2716	2894	-4999
13940738	2408	2309	-5157
13941066	2161	2250	-5292
13941394	2008	2679	-5300
13941722	1427	3135	-5315
13942050	688	2736	-5314
13942378	-69	2030	-5371
13942706	-864	1288	-5338
13943034	-1448	745	-5323
13943362	-1794	504	-5025
13943690	-1986	191	-4807
13944018	-1904	38	-4305
13944346	-1303	-23	-3811
13944674	-296	127	-3569
13945002	912	1192	-3280
13945330	1998	2239	-3030
13945658	2800	2735	-2915
13945986	3358	3298	-2906
13946314	3289	3332	-2855
13946642	2679	2031	-2936
13946970	2189	910	-2925
13947298	1582	201	-2569
13947626	1354	-745	-2388
13947954	1202	-642	-2231
13948282	1305	-721	-2056
13948610	1550	-1609	-1861
13948938	1933	-2386	-1843
13949266	2647	-1904	-1877
13949594	3243	-192	-1832
13949922	2935	695	-1718
13950250	1775	-948	-1783
13950578	436	-3834	-1778
13950906	-527	-5186	-1672
13951234	-950	-4588	-1919
13951562	-872	-2898	-2179
13951890	-1014	-1812	-2472
13952218	-1576	-2933	-3122
13952546	-1843	-4259	-3724
13952874	-1389	-3491	-4312
13953202	-946	-831	-4971
13953530	-709	1820	-5703
13953858	-1214	2851	-6476
13954186	-2600	2397	-7277
13954514	-4481	1175	-8144
13954842	-6771	-1671	-9334
13955170	-8556	-4844	-9607
13955498	-11178	-7389	-9200
13955826	-13732	-8555	-8149
13956154	-13377	-8063	-7176
13956482	-12377	-6295	-5603
13956810	-10233	-1611	-3389
13957138	-7130	807	-1055
13957466	-3651	1221	849
13957794	-721	374	3595
13958122	1773	-705	5177
13958450	3947	-1422	6074
13958778	5242	-1603	6805
13959106	6584	-1843	7735
13959434	7422	-2147	9051
13959762	7958	-2647	9982
13960090	7622	-2670	11185
13960418	6458	-2552	12414
13960746	4804	-3503	13860
13961074	3191	-4769	15064
13961402	1912	-5180	16201
13961730	834	-5488	17109
13962058	-246	-6426	17706
13962386	-1506	-7079	18119
13962714	-2440	-7528	18448
13963042	-2748	-7958	18704
13963370	-2153	-8519	18836
13963698	-283	-8233	18288
13964026	1308	-8616	18772
13964354	4142	-6366	17310
13964682	5139	-3644	16466
13965010	5666	-3373	15328
13965338	6914	-4288	13771
13965666	8034	-3959	12958
13965994	8986	-2153	11813
13966322	10581	-425	10129
13966650	10921	749	8265
13966978	10394	1643	6322
13967306	9072	2662	5271
13967634	7879	3463	4169
13967962	6719	3964	3256
13968290	5576	4414	1697
13968618	4471	4677	-371
13968946	4052	5149	-2485
13969274	3728	5340	-4415
13969602	3153	5048	-5815
13969930	2247	4977	-6713
13970258	1512	4712	-7117
13970586	1015	4187	-6798
13970914	602	3897	-5443
13971242	420	3363	-4182
13971570	365	2924	-3298
13971898	841	3236	-3041
13972226	1833	4372	-2811
13972554	2200	6110	-3085
13972882	1824	6772	-3568
13973210	1847	6107	-4599
13973538	2229	4922	-5472
13973866	3341	3254	-5508
13974194	3167	1978	-4973
13974522	1528	632	-4448
13974850	-679	-1098	-3597
13975178	-2428	-1766	-2718
13975506	-3372	-657	-2243
13975834	-3306	2479	-2569
13976162	-4793	5606	-2699
13976490	-6772	3894	-2548
13976818	-5866	-1296	-1697
13977146	-3443	-3137	-1955
13977474	-1722	-856	-2636
13977802	-584	547	-2756
13978130	937	157	-2120
13978458	1679	1071	-2003
13978786	1577	2660	-1832
13979114	867	3277	-1836
13979442	836	2221	-1906
13979770	1068	1287	-1853
13980098	1171	1521	-1797
13980426	1134	1834	-1706
13980754	1300	1960	-1713
13981082	1567	2155	-1701
13981410	1987	2408	-1816
13981738	2541	2473	-1956
13982066	3241	2506	-2111
13982394	3626	2761	-2298
13982722	3884	2637	-2175
13983050	3979	2643	-2234
13983378	4029	2874	-2332
13983706	4195	3090	-2354
13984034	4465	2990	-2298
13984362	4710	2914	-2332
13984690	5086	3026	-2318
13985018	5399	3360	-2424
13985346	5994	3335	-2661
13985674	6350	3910	-2833
13986002	6688	4197	-2824
13986330	6818	3785	-2790
13986658	7560	3119	-2611
13986986	7789	3498	-2656
13987314	8279	4384	-2623
13987642	9162	4499	-2527
13987970	10376	4997	-2303
13988298	11683	6031	-2364
13988626	12929	6830	-2528
13988954	14248	7422	-2840
13989282	15390	8473	-3210
13989610	15722	9354	-3643
13989938	14925	9124	-3885
13990266	13192	8853	-4234
13990594	11283	8682	-4836
13990922	8862	6462	-5335
13991250	5292	1613	-5669
13991578	788	-3405	-6095
13991906	-2618	-6094	-6083
13992234	-3507	-6052	-5731
13992562	-3056	-3804	-5189
13992890	-2400	-2273	-5121
13993218	-2206	-3903	-5412
13993546	-915	-4257	-5077
13993874	904	-2281	-4415
13994202	2166	-1083	-3642
13994530	2659	-2048	-3106
13994858	3478	-2997	-2384
13995186	5025	-1962	-1584
13995514	6745	534	-831
13995842	8319	2753	-537
13996170	9356	3178	45
13996498	10033	2746	372
13996826	10364	2687	89
13997154	9902	3110	-35
13997482	9355	3156	-282
13997810	7837	2064	-339
13998138	5556	-475	-399
13998466	3308	-3257	-97
13998794	1828	-4339	455
13999122	658	-3655	929
13999450	-214	-2055	1312
13999778	-427	-774	1566
14000106	-599	-241	1625
14000434	-348	-202	1359
14000762	248	-74	1068
14001090	488	-231	914
14001418	345	-577	798
14001746	333	-676	628
14002074	-71	-479	502
14002402	-706	-283	484
14002730	-1159	-410	484
14003058	-1524	-290	500
14003386	-1639	-222	381
14003714	-1122	-166	237
14004042	-392	110	59
14004370	-65	374	-70
14004698	540	441	-132
14005026	1061	710	-237
14005354	922	1158	-256
14005682	780	1003	-277
14006010	485	667	-113
14006338	252	670	31
14006666	118	691	127
14006994	63	588	148
14007322	-78	477	288
14007650	-16	532	382
14007978	177	528	458
14008306	269	745	498
14008634	360	934	496
14008962	141	1087	519
14009290	-44	823	528
14009618	23	393	556
14009946	186	596	467
14010274	295	908	347
14010602	355	758	317
14010930	528	628	339
14011258	977	932	372
14011586	1244	1492	386
14011914	1198	1666	374
14012242	1301	1501	355
14012570	1393	1329	366
14012898	1257	1110	467
14013226	1118	571	476
14013554	1224	-237	517
14013882	1278	-296	555
14014210	1070	186	608
14014538	1534	-356	831
14014866	1346	-1075	1021
14015194	2120	-1149	1185
14015522	3192	-600	1255
14015850	4124	244	1502
14016178	5275	613	1770
14016506	6378	526	2009
14016834	7551	561	2206
14017162	8859	529	2331
14017490	11145	-245	2487
14017818	13157	-88	2303
14018146	14842	1167	1870
14018474	16609	2619	1767
14018802	18703	3992	1823
14019130	21851	6815	1405
14019458	24736	9521	219
14019786	27870	11605	-1866
14020114	31310	12533	-4022
14020442	32767	11558	-5228
14020770	32767	10789	-6353
14021098	30672	9382	-6804
14021426	25426	6201	-6829
14021754	18834	3850	-6657
14022082	13064	2511	-6058
14022410	8964	1949	-5882
14022738	6371	1996	-5558
14023066	4641	2074	-5554
14023394	4038	1909	-5658
14023722	4037	1988	-5782
14024050	4586	2301	-5741
14024378	5311	2483	-5520
14024706	6366	2721	-5311
14025034	7585	3172	-5048
14025362	8967	3429	-4897
14025690	9994	3670	-4839
14026018	10931	3803	-4746
14026346	11706	4039	-4682
14026674	12440	4279	-4408
14027002	12725	4267	-4183
14027330	12878	4153	-3979
14027658	13010	4083	-3573
14027986	12752	4491	-3523
14028314	12012	4702	-3434
14028642	11198	4833	-3300
14028970	10487	4841	-3219
14029298	9876	4940	-3114
14029626	9389	5681	-3252
14029954	9017	6043	-3652
14030282	9263	5849	-3654
14030610	9810	5770	-3055
14030938	11012	6317	-2446
14031266	12214	7395	-2120
14031594	10607	6707	-2006
14031922	11183	3517	-1496
14032250	6184	4242	-1337
14032578	2176	7221	-2390
14032906	-983	7031	-3172
14033234	-3698	742	-2428
14033562	-3712	-2324	-735
14033890	-2651	1557	-134
14034218	-1907	4230	-789
14034546	-82	3946	-1600
14034874	1613	3614	-1928
14035202	3095	2942	-2062
14035530	4130	2458	-2288
14035858	3986	2615	-2580
14036186	2970	3441	-2520
14036514	1863	4544	-2483
14036842	1087	5019	-2202
14037170	457	4498	-1966
14037498	-341	3228	-1563
14037826	-1064	2545	-1230
14038154	-1815	2470	-1125
14038482	-2484	1489	-1209
14038810	-2916	-1228	-807
14039138	-2170	-1674	-589
14039466	-1174	666	16
14039794	-502	3072	156
14040122	662	3253	-11
14040450	1990	2942	-65
14040778	3394	3524	-356
14041106	4740	3736	-551
14041434	5205	3796	-772
14041762	5307	4236	-818
14042090	5884	4632	-640
14042418	6797	5002	-609
14042746	7970	6461	-642
14043074	9295	6964	-1013
14043402	10335	6442	-2045
14043730	11411	6513	-3710
14044058	12067	6671	-5289
14044386	12667	6204	-6086
14044714	12086	5883	-5585
14045042	9751	5954	-5074
14045370	6769	5906	-4461
14045698	4228	5411	-3798
14046026	1194	5509	-3311
14046354	-1672	5874	-3097
14046682	-3266	4546	-2761
14047010	-3954	2157	-2418
14047338	-4088	1543	-2648
14047666	-4045	2292	-2918
14047994	-4629	2339	-3283
14048322	-5240	1233	-3581
14048650	-5612	746	-3609
14048978	-6125	1471	-3205
14049306	-6745	2575	-2998
14049634	-7080	2272	-3143
14049962	-6623	1147	-2951
14050290	-5369	760	-2709
14050618	-4189	1573	-2420
14050946	-2921	2263	-2318
14051274	-1753	2566	-2488
14051602	-931	2787	-2667
14051930	-476	3022	-2715
14052258	-32	3117	-2692
14052586	42	3132	-2492
14052914	-217	3173	-2167
14053242	-439	2662	-2056
14053570	-296	2466	-1841
14053898	99	3041	-1753
14054226	755	3168	-1812
14054554	1314	3294	-1890
14054882	1597	3653	-1961
14055210	1633	3720	-1942
14055538	1770	3750	-1978
14055866	2052	4042	-2007
14056194	2239	4215	-2070
14056522	2385	3925	-2117
14056850	2619	3853	-2098
14057178	2990	4372	-2071
14057506	3353	4601	-2108
14057834	3612	4406	-2159
14058162	3845	4455	-2155
14058490	4221	4251	-2018
14058818	4205	4024	-2153
14059146	4406	3188	-2283
14059474	4748	2179	-2511
14059802	4940	2983	-2687
14060130	5047	3675	-2513
14060458	5260	3572	-2447
14060786	5872	3903	-2584
14061114	6751	4563	-2715
14061442	7832	5016	-2919
14061770	8814	5070	-3074
14062098	9996	5259	-3166
14062426	11704	6296	-2938
14062754	14087	8276	-2439
14063082	16214	10538	-2167
14063410	18200	12380	-2221
14063738	19725	13972	-2346
14064066	20821	14764	-2632
14064394	21031	14468	-2999
14064722	20543	12872	-3263
14065050	19619	11642	-3118
14065378	18861	11408	-2590
14065706	17567	10428	-1830
14066034	15897	8264	-1238
14066362	14432	6190	-671
14066690	13245	5577	-243
14067018	12106	5504	-247
14067346	10933	4776	-503
14067674	8645	2172	-936
14068002	5430	-1623	-984
14068330	2523	-4797	-350
14068658	543	-6812	454
14068986	-107	-6866	804
14069314	217	-5203	1451
14069642	1481	-2274	1531
14069970	2653	-588	1037
14070298	3323	-1199	357
14070626	3636	-2128	-55
14070954	3723	-2066	56
14071282	3674	-824	150
14071610	3271	259	204
14071938	2481	-13	262
14072266	1644	-931	279
14072594	891	-1366	336
14072922	149	-1283	285
14073250	-290	-1519	297
14073578	-592	-1944	492
14073906	-783	-2224	590
14074234	-765	-2242	525
14074562	-640	-2220	599
14074890	-370	-1850	508
14075218	-276	-1371	252
14075546	-286	-1414	84
14075874	-628	-1696	116
14076202	-1122	-1667	147
14076530	-1803	-1524	159
14076858	-2570	-1629	6
14077186	-3541	-2056	-65
14077514	-4644	-2785	-89
14077842	-5328	-3503	-17
14078170	-5772	-3527	31
14078498	-6174	-2873	-4
14078826	-6285	-2505	-158
14079154	-5980	-2450	-387
14079482	-5717	-2232	-566
14079810	-5539	-2118	-754
14080138	-5529	-2268	-950
14080466	-5977	-2176	-962
14080794	-6928	-2271	-858
14081122	-7777	-3354	-691
14081450	-8776	-4548	-403
14081778	-9674	-5230	-45
14082106	-10249	-5941	246
14082434	-10480	-6195	520
14082762	-10655	-5590	857
14083090	-10791	-4993	1175
14083418	-11063	-5137	1555
14083746	-11141	-5951	2043
14084074	-10998	-6399	2556
14084402	-10619	-5826	3088
14084730	-10056	-5343	3556
14085058	-9013	-5427	4117
14085386	-6583	-4703	4809
14085714	-3897	-2232	5232
14086042	-1578	545	5684
14086370	588	1549	5808
14086698	2943	1616	5643
14087026	4841	2736	5677
14087354	6017	5040	5365
14087682	5029	9446	4572
14088010	5963	20405	3167
14088338	3121	14225	4523
14088666	-4035	-6378	2324
14088994	-9352	-16825	-2777
14089322	-10056	-15971	1667
14089650	-6973	-6319	2591
14089978	-3654	547	2508
14090306	-925	971	2702
14090634	977	2097	1736
14090962	1938	4543	751
14091290	2146	4238	500
14091618	1205	2643	243
14091946	-106	414	617
14092274	-1394	-1007	576
14092602	-2617	-2064	649
14092930	-3413	-2182	592
14093258	-3631	-1947	512
14093586	-3463	-1797	436
14093914	-3514	-1380	191
14094242	-3697	-1554	-287
14094570	-3880	-2099	-629
14094898	-4319	-2306	-701
14095226	-4885	-2507	-796
14095554	-5611	-3198	-920
14095882	-6414	-3832	-864
14096210	-6890	-4486	-823
14096538	-6417	-4562	-950
14096866	-5328	-3539	-937
14097194	-4180	-2366	-1521
14097522	-2645	-1719	-2278
14097850	-1472	-2028	-2731
14098178	-681	-2570	-3000
14098506	-121	-2731	-2885
14098834	-20	-2255	-2508
14099162	-651	-1913	-2106
14099490	-1595	-2495	-1804
14099818	-2474	-2550	-1905
14100146	-2857	-3061	-1940
14100474	-2385	-3239	-1868
14100802	-1786	-2263	-1688
14101130	-1737	-1767	-1740
14101458	-1646	-2347	-1935
14101786	-1649	-2571	-2137
14102114	-1713	-2617	-2411
14102442	-1976	-3119	-2412
14102770	-2596	-3671	-2242
14103098	-3221	-3983	-2087
14103426	-3255	-3592	-1926
14103754	-3123	-2589	-1812
14104082	-2889	-2120	-1827
14104410	-1748	-2186	-2092
14104738	-370	-1441	-2505
14105066	805	-1446	-3069
14105394	1931	-2572	-3491
14105722	2404	-2884	-3228
14106050	2082	-2199	-2721
14106378	1439	-1815	-2167
14106706	481	-2122	-1843
14107034	-295	-3314	-1578
14107362	-774	-4412	-1629
14107690	-866	-4728	-1649
14108018	-626	-4369	-1484
14108346	60	-3978	-1434
14108674	1089	-3488	-1423
14109002	2246	-3159	-1395
14109330	3236	-3139	-1488
14109658	3719	-3485	-1427
14109986	3301	-4481	-1367
14110314	2337	-5840	-1395
14110642	1002	-7165	-1554
14110970	-884	-8869	-1903
14111298	-3090	-10963	-2324
14111626	-5025	-12943	-2833
14111954	-6816	-14032	-3404
14112282	-8467	-14590	-3886
14112610	-10134	-15404	-4186
14112938	-11473	-16702	-4722
14113266	-13117	-18700	-4763
14113594	-14753	-18944	-5276
14113922	-15121	-17339	-5443
14114250	-14445	-16273	-5399
14114578	-14363	-15107	-5156
14114906	-13677	-13274	-5390
14115234	-5069	-10353	-5961
14115562	-14959	-10500	-5291
14115890	-17893	-10242	-5766
14116218	-19264	-7221	-5092
14116546	-19378	-4194	-4416
14116874	-17222	-3519	-2807
14117202	-15507	-3539	-243
14117530	-13987	-2883	1642
14117858	-10707	-1846	2465
14118186	-6856	-1229	3839
14118514	-3120	-1833	4555
14118842	498	-2907	5604
14119170	2709	-3098	6656
14119498	4089	-2870	8138
14119826	3942	-3116	9766
14120154	2896	-4294	11735
14120482	1268	-6025	13272
14120810	-728	-8060	14796
14121138	-2574	-9835	16352
14121466	-4047	-11858	17987
14121794	-4474	-13088	19058
14122122	-4168	-12900	19674
14122450	-3365	-12429	20058
14122778	-2320	-12160	20207
14123106	-1158	-12306	20556
14123434	-185	-11934	20844
14123762	1416	-11308	20922
14124090	3145	-10999	21000
14124418	3827	-10701	20935
14124746	2777	-10348	21150
14125074	1010	-10086	21086
14125402	-1	-9895	20208
14125730	-235	-9849	19664
14126058	-2689	-10360	18741
14126386	-1474	-9269	17711
14126714	-1718	-8401	16509
14127042	-793	-6928	13729
14127370	-532	-5233	11057
14127698	-328	-3734	7764
14128026	-6	-3108	4972
14128354	485	-2945	2702
14128682	244	-1716	155
14129010	-1946	584	-2547
14129338	-5247	1465	-5311
14129666	-7307	1685	-7468
14129994	-9781	4691	-8979
14130322	-12043	7774	-9180
14130650	-11959	8913	-9904
14130978	-10691	6846	-9432
14131306	-8928	7725	-7439
14131634	-7597	3488	-6178
14131962	-5032	-4404	-6245
14132290	-3361	-1816	-4746
14132618	-4223	1518	-4420
14132946	-4408	1268	-4532
14133274	-5428	1609	-4657
14133602	-6310	3467	-4650
14133930	-6446	3826	-4356
14134258	-5837	2839	-3855
14134586	-4965	2633	-3564
14134914	-3790	2907	-3161
14135242	-2375	3089	-2344
14135570	-836	3779	-2042
14135898	81	4076	-1761
14136226	285	2830	-1838
14136554	192	1118	-1855
14136882	-134	1292	-1291
14137210	-478	1971	-747
14137538	-684	1862	-732
14137866	-800	1771	-375
14138194	-785	2333	-110
14138522	-982	2430	-23
14138850	-1172	1744	-102
14139178	-1142	1224	-3
14139506	-1015	1596	83
14139834	-1012	1721	114
14140162	-1055	754	36
14140490	-1055	7	-63
14140818	-1074	46	41
14141146	-1043	-23	127
14141474	-856	-473	210
14141802	-469	-816	225
14142130	-125	-938	307
14142458	55	-1117	391
14142786	215	-1216	468
14143114	252	-1166	485
14143442	293	-1515	555
14143770	341	-1645	519
14144098	534	-1417	593
14144426	725	-1585	704
14144754	871	-1669	833
14145082	1108	-1519	1003
14145410	1244	-1695	1151
14145738	1395	-1595	1295
14146066	1590	-1581	1512
14146394	1725	-1898	1734
14146722	1963	-1985	2064
14147050	2203	-1944	2403
14147378	2409	-2159	2710
14147706	2859	-2101	3055
14148034	3387	-1858	3333
14148362	4051	-1943	3617
14148690	4365	-2066	4078
14149018	4741	-1743	4560
14149346	5372	-1712	4887
14149674	6207	-1627	5153
14150002	7200	-1240	5455
14150330	8428	-1029	5384
14150658	9574	-924	5689
14150986	10928	-912	6145
14151314	12081	-646	6227
14151642	13288	-796	6450
14151970	13057	-231	6222
14152298	12586	-417	5824
14152626	12947	-524	5185
14152954	13687	-312	4826
14153282	12808	-462	3721
14153610	9889	-920	1814
14153938	7124	-624	-919
14154266	6228	-240	-3390
14154594	6088	-438	-4483
14154922	6231	-615	-5153
14155250	6143	-1351	-5432
14155578	6508	-1747	-5877
14155906	6713	-1637	-6300
14156234	6222	-2577	-6687
14156562	5021	-4304	-6704
14156890	3514	-5565	-6039
14157218	2384	-5124	-5536
14157546	1379	-4533	-4980
14157874	1070	-3999	-5086
14158202	1189	-4114	-5031
14158530	1928	-3980	-4869
14158858	3703	-3505	-4611
14159186	5268	-3355	-4341
14159514	6266	-3094	-4114
14159842	7188	-2671	-3671
14160170	7660	-2447	-3361
14160498	7741	-2326	-2990
14160826	8052	-1812	-2533
14161154	8378	-1500	-2006
14161482	8517	-1391	-1671
14161810	8465	-1486	-1614
14162138	7848	-1788	-1645
14162466	6954	-1864	-1597
14162794	6340	-2292	-1662
14163122	5489	-2395	-1876
14163450	4646	-2173	-2118
14163778	3999	-1815	-2462
14164106	4370	494	-3156
14164434	3313	2123	-3964
14164762	2725	2731	-4487
14165090	3168	3133	-4448
14165418	4147	5116	-3826
14165746	3644	7024	-3027
14166074	4195	10219	-2967
14166402	3051	11489	-3757
14166730	2815	11043	-4554
14167058	3250	9188	-4588
14167386	2529	7211	-4241
14167714	227	7235	-4125
14168042	-1352	6312	-3958
14168370	-2297	-2885	-5848
14168698	-1201	-9017	-5757
14169026	633	922	-4544
14169354	-1735	6091	-3282
14169682	-2750	4280	-3677
14170010	-3327	4353	-3987
14170338	-3741	5905	-4346
14170666	-3277	7514	-4721
14170994	-2201	7181	-4902
14171322	-1254	5904	-4705
14171650	-1207	5992	-4680
14171978	-1838	6274	-4228
14172306	-1907	5901	-3653
14172634	-3366	4273	-3070
14172962	-4388	2643	-2780
14173290	-5007	1288	-2450
14173618	-5894	2019	-2135
14173946	-6806	4547	-2675
14174274	-7134	5695	-3242
14174602	-5959	3657	-3409
14174930	-5325	2263	-3652
14175258	-5108	2066	-3787
14175586	-4534	1798	-3809
14175914	-3526	1496	-3934
14176242	-2990	1316	-3834
14176570	-2716	1218	-3478
14176898	-2811	1196	-3199
14177226	-3120	689	-2652
14177554	-3657	-116	-2257
14177882	-3488	-470	-1940
14178210	-3081	-283	-1788
14178538	-2449	437	-1899
14178866	-1682	1154	-1885
14179194	-1167	1547	-1857
14179522	-1011	1634	-1934
14179850	-866	1699	-1851
14180178	-808	1788	-1806
14180506	-773	1446	-1630
14180834	-595	1433	-1415
14181162	-7	1665	-1164
14181490	569	2329	-958
14181818	1213	3301	-868
14182146	1552	3707	-760
14182474	1733	3533	-601
14182802	1817	3388	-472
14183130	1964	3511	-282
14183458	2356	3720	-264
14183786	2689	3707	-372
14184114	3610	4266	-315
14184442	6198	5886	-1196
14184770	4102	6216	122
14185098	3182	3644	-394
14185426	4542	4778	-852
14185754	5196	5428	-980
14186082	5133	4868	-1309
14186410	4850	4624	-1308
14186738	4848	4636	-1309
14187066	4947	4424	-1607
14187394	5828	3910	-1600
14187722	6132	4314	-2140
14188050	7098	4191	-2298
14188378	8531	4246	-2439
14188706	10413	6475	-2158
14189034	12334	8917	-1834
14189362	14204	10662	-1807
14189690	15899	12172	-2000
14190018	17310	13726	-2503
14190346	17991	13957	-3015
14190674	18015	13874	-3885
14191002	17539	13269	-4357
14191330	16651	12860	-4298
14191658	15486	12654	-3965
14191986	14035	10822	-3800
14192314	12485	8496	-3868
14192642	10997	6757	-3747
14192970	9571	5363	-3596
14193298	8762	4437	-3335
14193626	8202	4032	-3104
14193954	7698	3242	-2941
14194282	7257	2329	-2757
14194610	6833	1875	-2530
14194938	6118	1889	-2328
14195266	5640	2492	-2234
14195594	5182	2163	-2211
14195922	4771	334	-2620
14196250	3947	-1716	-2623
14196578	3798	-2940	-2690
14196906	3395	-4046	-2722
14197234	2464	-4971	-2578
14197562	1175	-5985	-2444
14197890	-497	-7454	-2386
14198218	-2165	-8896	-2449
14198546	-2991	-9332	-2612
14198874	-3222	-9062	-2749
14199202	-3240	-8554	-3067
14199530	-2986	-7348	-3736
14199858	-2616	-6764	-4249
14200186	-2615	-6624	-4812
14200514	-3365	-6866	-4813
14200842	-4187	-7209	-4969
14201170	-3576	-6722	-5370
14201498	-3587	-5901	-5699
14201826	-4930	-6437	-6133
14202154	-5523	-8029	-6709
14202482	-6453	-8213	-7534
14202810	-7832	-9807	-8606
14203138	-9031	-8402	-7742
14203466	-14333	-9526	-7288
14203794	-18293	-7974	-6988
14204122	-23112	-7926	-5831
14204450	-26000	-5994	-4252
14204778	-24129	-5240	-664
14205106	-21031	-6100	3012
14205434	-17376	-5121	6097
14205762	-12669	-2787	7256
14206090	-6648	-2583	8466
14206418	-390	-4334	8190
14206746	4365	-4790	8954
14207074	7143	-3682	10054
14207402	8428	-2883	12205
14207730	8037	-2797	13977
14208058	6584	-4180	16499
14208386	3280	-6052	18229
14208714	280	-7677	19530
14209042	-1807	-9047	20639
14209370	-2925	-10030	21649
14209698	-3022	-9860	21978
14210026	-2219	-9131	22373
14210354	-1100	-8263	22402
14210682	383	-8123	22493
14211010	1869	-8150	22524
14211338	3707	-6875	21914
14211666	5979	-5714	20798
14211994	8362	-5705	20564
14212322	10581	-4607	20377
14212650	12088	-3307	20162
14212978	12786	-1593	18676
14213306	12230	-2672	17916
14213634	10839	-741	17081
14213962	8322	-221	14043
14214290	6653	1275	10709
14214618	5921	1532	8178
14214946	4972	3605	6198
14215274	4280	3075	2517
14215602	3190	2970	-602
14215930	1976	3678	-3313
14216258	582	4635	-5781
14216586	66	5705	-7690
14216914	-1615	6998	-9785
14217242	-3798	6869	-11016
14217570	-3110	6552	-11837
14217898	-2067	6205	-11028
14218226	-155	5860	-8687
14218554	805	4270	-6826
14218882	1434	2553	-7353
14219210	-280	-303	-9359
14219538	-4734	-3519	-9067
14219866	-6579	-2029	-7796
14220194	-6731	4058	-8282
14220522	-10248	-1735	-7813
14220850	-7653	-4421	-5662
14221178	-5591	1238	-4347
14221506	-3927	2144	-5145
14221834	-1409	2353	-6217
14222162	569	4233	-7060
14222490	2227	5412	-7646
14222818	3220	6032	-7254
14223146	3961	6369	-6439
14223474	2691	5313	-5212
14223802	1300	3430	-4966
14224130	-2	2160	-4426
14224458	-783	1191	-4371
14224786	-760	995	-3865
14225114	-374	1418	-3301
14225442	-103	2091	-3110
14225770	377	2347	-3134
14226098	727	2442	-2940
14226426	1539	2787	-3213
14226754	1889	2556	-3006
14227082	2236	2244	-2709
14227410	2453	2254	-2419
14227738	2399	2457	-1819
14228066	3041	1922	-1870
14228394	3420	2176	-1378
14228722	3703	2794	-1142
14229050	4236	3097	-1270
14229378	4700	3500	-1112
14229706	5213	3911	-989
14230034	5693	3940	-1438
14230362	5947	3996	-1127
14230690	6231	4153	-1157
14231018	6788	4765	-1040
14231346	7470	5615	-874
14231674	7976	6551	-895
14232002	8668	7201	-1045
14232330	9355	7135	-1320
14232658	10381	6668	-1197
14232986	11651	6572	-761
14233314	13904	7288	237
14233642	16447	8830	1390
14233970	20166	11349	1844
14234298	23774	14261	2119
14234626	27581	16443	1887
14234954	30431	18826	1099
14235282	32078	20807	656
14235610	32767	21862	717
14235938	32767	22753	1198
14236266	31853	22474	1962
14236594	29893	20384	2537
14236922	27817	18133	3244
14237250	26893	17714	3843
14237578	26007	18912	4487
14237906	24506	19398	4544
14238234	22743	16908	4366
14238562	19778	12649	3922
14238890	15419	8110	3510
14239218	11484	4430	3548
14239546	8230	2239	4119
14239874	5201	-402	4133
14240202	3272	-2006	4345
14240530	2899	-1532	4202
14240858	3821	1053	3949
14241186	4752	3778	3813
14241514	5215	2363	3581
14241842	5799	-601	2859
14242170	6267	-2074	2306
14242498	6517	-2837	2116
14242826	6657	-2890	1578
14243154	6377	-1459	354
14243482	5400	469	-659
14243810	4206	2194	-772
14244138	2073	1493	-196
14244466	-497	-1603	557
14244794	-2203	-3546	843
14245122	-2342	-3783	673
14245450	-1497	-3329	403
14245778	-455	-3233	-106
14246106	343	-2949	-320
14246434	1017	-2258	-206
14246762	1394	-1804	-26
14247090	1571	-1678	172
14247418	1340	-1854	414
14247746	918	-2109	671
14248074	655	-2097	993
14248402	298	-2051	1240
14248730	181	-1993	1333
14249058	377	-1867	1302
14249386	574	-1660	1143
14249714	485	-1382	1047
14250042	364	-1043	1044
14250370	323	-542	1041
14250698	426	-197	969
14251026	138	-5	950
14251354	-60	58	897
14251682	-141	163	891
14252010	21	555	893
14252338	-57	1005	928
14252666	-266	1055	890
14252994	-196	896	762
14253322	80	656	503
14253650	233	657	253
14253978	185	850	69
14254306	7	914	-108
14254634	-141	1273	-142
14254962	-253	2074	14
14255290	-308	2370	166
14255618	-381	2083	109
14255946	-499	1677	-60
14256274	-492	1493	-272
14256602	-496	1072	-251
14256930	-544	913	-216
14257258	-535	1108	-104
14257586	-693	1450	142
14257914	-873	810	284
14258242	-1135	-190	272
14258570	-1154	-496	164
14258898	-832	-140	176
14259226	-631	110	243
14259554	-462	-115	320
14259882	-209	-64	396
14260210	-85	37	530
14260538	-153	-409	620
14260866	-277	-802	706
14261194	-450	-867	748
14261522	234	-1507	1015
14261850	14	-1120	962
14262178	-8	-992	1104
14262506	38	-978	1118
14262834	257	-874	1222
14263162	135	-591	1306
14263490	36	-898	1461
14263818	-181	-1618	1629
14264146	-177	-1573	1627
14264474	31	-1451	1571
14264802	163	-1693	1520
14265130	343	-2082	1461
14265458	836	-2349	1595
14265786	1168	-2082	1548
14266114	1361	-1958	1460
14266442	1819	-2070	1534
14266770	2027	-1823	1787
14267098	2040	-1396	2135
14267426	1962	-1251	2429
14267754	1919	-1693	2680
14268082	2007	-1949	2806
14268410	2269	-1985	2842
14268738	2483	-2264	2976
14269066	2781	-2501	3299
14269394	3285	-2272	3549
14269722	3974	-1841	3622
14270050	4440	-1876	3588
14270378	4874	-2155	3609
14270706	5740	-2439	3513
14271034	6418	-2457	3878
14271362	6846	-1684	4241
14271690	7290	-415	4476
14272018	7613	923	4694
14272346	9021	1861	4681
14272674	10199	3458	4287
14273002	11372	4918	3764
14273330	12211	5736	2925
14273658	12500	5891	1532
14273986	12363	5480	63
14274314	12420	4749	-1594
14274642	12172	4447	-2868
14274970	11773	3822	-3391
14275298	10710	2519	-3596
14275626	9628	1119	-3979
14275954	8345	-199	-4020
14276282	6891	-1401	-4180
14276610	5150	-2512	-4583
14276938	3415	-4283	-4454
14277266	1843	-6040	-4307
14277594	484	-7429	-4090
14277922	-656	-8343	-3836
14278250	-1770	-8941	-3717
14278578	-2411	-8841	-3509
14278906	-2056	-7612	-3367
14279234	-1672	-5978	-3146
14279562	-1270	-4687	-3229
14279890	-419	-3583	-3366
14280218	1060	-2643	-3401
14280546	2841	-1889	-3180
14280874	4441	-936	-2883
14281202	6177	-103	-2537
14281530	7674	544	-2302
14281858	8961	940	-2185
14282186	9820	1171	-2042
14282514	10306	1406	-1925
14282842	10631	1617	-1941
14283170	10824	1550	-1494
14283498	10392	1591	-1602
14283826	9876	1500	-1485
14284154	9151	1398	-1393
14284482	8188	1106	-1422
14284810	7025	832	-1372
14285138	5756	606	-1411
14285466	4424	462	-1470
14285794	2974	308	-1576
14286122	1810	20	-1599
14286450	1238	333	-1618
14286778	1418	1442	-1680
14287106	1693	3034	-1883
14287434	1283	3995	-2840
14287762	1176	4333	-4025
14288090	1376	5371	-4654
14288418	3028	6971	-4985
14288746	4603	6210	-4994
14289074	5105	5321	-4195
14289402	3753	7463	-3185
14289730	1321	11693	-3178
14290058	1736	15420	-3019
14290386	-75	7514	-840
14290714	-2462	-6497	-2615
14291042	221	-7543	-1107
14291370	1350	-1465	459
14291698	-280	2199	588
14292026	-949	2037	-118
14292354	-2212	3918	-816
14292682	-4116	8674	-1653
14293010	-4716	12079	-2201
14293338	-3646	12009	-2610
14293666	-2359	9162	-2670
14293994	-1516	6709	-2422
14294322	-1065	4729	-1973
14294650	-784	2903	-1643
14294978	-920	1644	-1354
14295306	-1237	1023	-1219
14295634	-1556	994	-1292
14295962	-1464	1374	-1241
14296290	-1308	1594	-1461
14296618	-936	1732	-1763
14296946	-492	1977	-1789
14297274	-144	1657	-1720
14297602	24	1180	-1794
14297930	-72	944	-1745
14298258	-250	805	-1705
14298586	-441	453	-1565
14298914	-577	47	-1419
14299242	-733	-142	-1133
14299570	-811	-135	-663
14299898	-835	17	-334
14300226	-740	504	-71
14300554	-454	516	165
14300882	-48	299	307
14301210	386	384	453
14301538	915	733	455
14301866	1065	596	635
14302194	1324	600	677
14302522	1442	630	812
14302850	1173	634	970
14303178	807	787	1080
14303506	569	803	1161
14303834	568	479	1209
14304162	835	441	1214
14304490	1044	746	1131
14304818	1179	670	970
14305146	1295	500	885
14305474	1457	441	801
14305802	1513	289	668
14306130	1679	218	641
14306458	1842	289	749
14306786	2378	-176	794
14307114	2291	485	771
14307442	2081	774	458
14307770	2363	606	127
14308098	2369	735	-51
14308426	2246	1152	-154
14308754	2185	1411	-370
14309082	2556	1330	-586
14309410	3401	1034	-892
14309738	4453	969	-1402
14310066	5658	1425	-2098
14310394	6811	1971	-2882
14310722	7373	2611	-3181
14311050	7510	3168	-3244
14311378	7261	3283	-3093
14311706	6705	3212	-2787
14312034	5079	3307	-2497
14312362	2850	3588	-2398
14312690	920	3839	-2335
14313018	-804	3292	-1950
14313346	-1965	3058	-1903
14313674	-2764	2660	-1949
14314002	-3742	2378	-2176
14314330	-3946	2206	-2520
14314658	-3642	1437	-2578
14314986	-3026	1225	-2619
14315314	-2668	1734	-2853
14315642	-2960	2470	-3040
14315970	-3299	2978	-3172
14316298	-3501	2928	-3083
14316626	-3516	2804	-3008
14316954	-3266	2809	-2947
14317282	-3062	2920	-2799
14317610	-2684	2939	-2633
14317938	-2338	2662	-2647
14318266	-1698	2839	-2736
14318594	-1123	3046	-2605
14318922	-664	2630	-2321
14319250	-682	2501	-2041
14319578	-848	2486	-1931
14319906	-864	2102	-1663
14320234	-901	1766	-1435
14320562	-966	1730	-1234
14320890	-924	1647	-1004
14321218	-881	1512	-715
14321546	-1114	1689	-471
14321874	-1088	840	-245
14322202	-1369	522	-7
14322530	-1551	688	192
14322858	-1648	641	417
14323186	-1758	610	730
14323514	-1664	476	779
14323842	-1346	490	808
14324170	-889	507	632
14324498	-30	818	306
14324826	888	1434	-76
14325154	1941	1935	-266
14325482	2821	2393	-574
14325810	3359	2889	-640
14326138	3787	3255	-521
14326466	4146	3557	-455
14326794	4474	3841	-262
14327122	5026	4085	-355
14327450	5868	4845	-444
14327778	6659	5731	-449
14328106	7322	5949	-572
14328434	8031	6302	-578
14328762	8477	6855	-538
14329090	8564	6968	-531
14329418	8497	6647	-357
14329746	8815	6395	-375
14330074	9245	6182	-436
14330402	10140	5724	-383
14330730	12285	7117	167
14331058	15276	10240	1056
14331386	18350	12805	2005
14331714	21441	14414	2140
14332042	24334	15489	2015
14332370	26435	17007	1525
14332698	27784	18788	1366
14333026	27964	20173	1519
14333354	27586	20087	1646
14333682	26981	19628	1696
14334010	25754	19384	1811
14334338	24105	18512	1808
14334666	22311	17129	1655
14334994	20318	15159	1171
14335322	17986	12604	546
14335650	15589	10237	-322
14335978	14108	8453	-699
14336306	12315	7427	-746
14336634	11370	6572	-888
14336962	10044	5748	-586
14337290	9314	5583	-747
14337618	8949	5087	-390
14337946	8615	4873	-147
14338274	8856	4568	103
14338602	9540	4846	359
14338930	10378	5477	687
14339258	10834	5760	943
14339586	11054	6024	1336
14339914	10777	5992	1443
14340242	9938	5317	1550
14340570	9089	4204	1443
14340898	7795	2512	1232
14341226	6078	409	1179
14341554	4813	-1150	1227
14341882	3482	-1883	1669
14342210	3195	-1956	2129
14342538	3412	-1809	2688
14342866	4229	-770	2698
14343194	5184	281	2257
14343522	5510	132	1813
14343850	4979	-719	1621
14344178	4100	-1489	1569
14344506	3241	-2187	1660
14344834	2591	-2899	1839
14345162	1816	-3350	2022
14345490	1344	-3457	2039
14345818	1308	-3252	1820
14346146	1348	-2886	1624
14346474	1248	-2689	1418
14346802	1242	-2746	1272
14347130	1355	-2911	1215
14347458	1571	-2965	1179
14347786	1756	-2952	1205
14348114	1769	-2951	1108
14348442	1520	-2981	1081
14348770	1139	-2970	957
14349098	841	-2584	920
14349426	471	-2155	907
14349754	288	-2011	747
14350082	164	-2270	389
14350410	68	-2310	337
14350738	62	-2079	298
14351066	231	-1813	323
14351394	242	-1325	483
14351722	-81	-1240	526
14352050	-446	-1468	504
14352378	-671	-1412	561
14352706	-825	-1150	665
14353034	-896	-1300	752
14353362	-1030	-1657	807
14353690	-1144	-1770	798
14354018	-1134	-1619	742
14354346	-1062	-1195	699
14354674	-1059	-659	778
14355002	-1141	-510	747
14355330	-1330	-815	690
14355658	-1650	-1270	613
14355986	-1657	-1432	545
14356314	-1464	-1246	476
14356642	-1244	-1027	390
14356970	-1170	-1013	257
14357298	-1139	-1066	114
14357626	-1368	-1148	53
14357954	-1866	-1274	-27
14358282	-2287	-1470	-145
14358610	-2618	-1431	-179
14358938	-3315	-1060	-102
14359266	-3894	-845	-180
14359594	-3994	-1157	-234
14359922	-3811	-1183	-268
14360250	-3577	-1118	-414
14360578	-3869	-1613	-442
14360906	-4390	-1896	-433
14361234	-4586	-1467	-549
14361562	-4712	-1205	-523
14361890	-4935	-1236	-405
14362218	-4999	-717	-380
14362546	-4767	-200	-389
14362874	-4547	-23	-350
14363202	-4306	294	-238
14363530	-4435	664	-115
14363858	-4948	203	40
14364186	-5309	482	305
14364514	-5643	1356	688
14364842	-6102	1266	947
14365170	-6515	1007	920
14365498	-6294	1128	810
14365826	-5050	681	788
14366154	-3840	487	772
14366482	-2923	2012	869
14366810	-2126	3812	689
14367138	-1559	4219	648
14367466	-1822	3599	727
14367794	-2308	2380	1001
14368122	-2947	1743	1310
14368450	-3444	1852	1566
14368778	-3724	2025	1574
14369106	-3779	2114	1403
14369434	-3908	1857	1180
14369762	-3982	1492	964
14370090	-4064	1248	664
14370418	-4381	992	315
14370746	-4843	22	80
14371074	-5187	-899	-150
14371402	-5111	-847	-219
14371730	-5077	-849	-240
14372058	-5134	-1499	-349
14372386	-4824	-1506	-307
14372714	-4356	-663	-296
14373042	-3964	-746	-441
14373370	-3627	-1302	-528
14373698	-3571	-1129	-586
14374026	-3591	-1405	-801
14374354	-3807	-1789	-802
14374682	-4121	-2328	-885
14375010	-4914	-3089	-1017
14375338	-6341	-4109	-1069
14375666	-7251	-4987	-1144
14375994	-7779	-4755	-1003
14376322	-7952	-4357	-817
14376650	-8005	-4682	-689
14376978	-7847	-4974	-831
14377306	-7459	-5168	-1295
14377634	-7265	-5416	-1714
14377962	-7496	-6133	-1939
14378290	-7871	-6938	-1969
14378618	-8569	-7605	-1947
14378946	-9570	-8549	-1926
14379274	-10358	-9227	-1832
14379602	-10929	-10278	-1638
14379930	-10986	-9768	-1562
14380258	-10345	-8690	-1492
14380586	-9128	-7473	-1490
14380914	-7608	-5405	-1471
14381242	-5830	-2465	-1115
14381570	-3759	88	-570
14381898	-1624	837	532
14382226	-406	-1560	649
14382554	-288	-3886	-1758
14382882	-218	-4595	-3602
14383210	141	-4238	-3240
14383538	184	-3941	-1962
14383866	0	-1989	-811
14384194	70	921	-455
14384522	217	1636	-622
14384850	158	-26	-915
14385178	457	-426	-1197
14385506	792	-335	-1483
14385834	929	-700	-1510
14386162	1099	-538	-1430
14386490	1134	-213	-1386
14386818	1011	-641	-1347
14387146	572	-1284	-1390
14387474	331	-1463	-1403
14387802	-47	-2070	-1380
14388130	-554	-2803	-1392
14388458	-475	-3017	-1437
14388786	-170	-2535	-1214
14389114	53	-2141	-1114
14389442	244	-2355	-1009
14389770	656	-2412	-931
14390098	1288	-1882	-730
14390426	1840	-1123	-556
14390754	1934	-1285	-308
14391082	1568	-2194	-204
14391410	1404	-2795	-167
14391738	1504	-2571	115
14392066	1512	-2315	438
14392394	1605	-2127	645
14392722	1579	-1985	802
14393050	1463	-2078	880
14393378	1354	-2119	922
14393706	1504	-1812	923
14394034	1759	-1324	876
14394362	2027	-914	818
14394690	2347	-507	770
14395018	2615	-136	740
14395346	2861	36	722
14395674	3447	361	648
14396002	3612	-162	932
14396330	3658	-238	1074
14396658	3974	194	1088
14396986	4026	435	1105
14397314	3809	168	1088
14397642	3723	-170	1064
14397970	3477	-510	1066
14398298	3013	-951	1066
14398626	2497	-1161	1049
14398954	1929	-1234	1009
14399282	1430	-1618	911
14399610	1006	-2236	891
14399938	828	-2542	864
14400266	922	-2321	765
14400594	921	-2140	649
14400922	870	-2569	624
14401250	826	-2997	635
14401578	765	-2731	609
14401906	757	-2678	678
14402234	761	-3059	747
14402562	838	-3197	781
14402890	896	-3450	673
14403218	1039	-4132	719
14403546	1215	-4174	826
14403874	1352	-3683	862
14404202	1420	-3827	893
14404530	1423	-4456	917
14404858	1372	-4549	988
14405186	1404	-4223	1021
14405514	1611	-4060	990
14405842	1724	-4179	1013
14406170	1763	-4333	1062
14406498	2082	-4266	996
14406826	2390	-4030	1002
14407154	2265	-3879	1042
14407482	2094	-3915	647
14407810	1981	-4220	422
14408138	1575	-4617	325
14408466	751	-5098	243
14408794	398	-5521	310
14409122	-701	-6086	140
14409450	-1831	-6806	267
14409778	-2974	-7905	41
14410106	-4422	-9312	125
14410434	-6333	-10885	500
14410762	-2767	-10852	498
14411090	-5110	-11069	1176
14411418	-6451	-10766	2476
14411746	-7195	-10737	3685
14412074	-8971	-10410	4158
14412402	-12792	-9876	3296
14412730	-15114	-8482	1580
14413058	-16356	-5353	-196
14413386	-16939	-3571	-768
14413714	-16480	-1873	153
14414042	-15644	271	1366
14414370	-14858	1513	1606
14414698	-13775	2519	1657
14415026	-12554	2488	2094
14415354	-11564	1914	2757
14415682	-10235	1870	3705
14416010	-9552	1920	4430
14416338	-9684	1798	5190
14416666	-10081	1786	6382
14416994	-11067	1454	7408
14417322	-12578	564	8533
14417650	-14540	-591	9857
14417978	-16429	-2091	11101
14418306	-17477	-3491	12656
14418634	-18332	-4433	13949
14418962	-18801	-5298	14750
14419290	-19163	-6495	15141
14419618	-19082	-7506	15465
14419946	-18753	-8297	16009
14420274	-18905	-9316	16556
14420602	-19108	-10516	16846
14420930	-19077	-11496	17174
14421258	-18863	-12045	17619
14421586	-18932	-12671	17760
14421914	-18911	-12781	17431
14422242	-17906	-12077	16795
14422570	-16083	-10978	15830
14422898	-14201	-10990	15698
14423226	-12429	-10864	15077
14423554	-10899	-10737	13867
14423882	-9522	-11869	13179
14424210	-8287	-13491	12348
14424538	-7622	-14253	11347
14424866	-7867	-14136	9909
14425194	-8380	-13317	8199
14425522	-9233	-12452	6907
14425850	-10084	-12362	6223
14426178	-11089	-12396	5892
14426506	-12274	-12339	5343
14426834	-13497	-11699	4446
14427162	-14792	-10950	3574
14427490	-15900	-10518	2819
14427818	-16567	-10116	2133
14428146	-16799	-9193	1627
14428474	-16482	-8028	1460
14428802	-15608	-6521	1042
14429130	-14216	-4973	701
14429458	-12722	-3422	462
14429786	-10630	-2145	347
14430114	-10447	3322	-446
14430442	-7280	4585	-3939
14430770	-5992	3554	-4357
14431098	-2800	3329	-4904
14431426	-407	4679	-5800
14431754	1413	7909	-6881
14432082	2924	13952	-8312
14432410	4406	19749	-8234
14432738	6250	18628	-5119
14433066	5444	11561	-2093
14433394	3523	4524	-2406
14433722	1857	2383	-2545
14434050	201	4652	-2484
14434378	-1308	4232	-2445
14434706	-2959	1681	-2503
14435034	-4710	525	-2802
14435362	-7401	3299	-3337
14435690	-9090	7531	-3914
14436018	-8649	9782	-3074
14436346	-7246	8925	-1714
14436674	-6365	5506	-996
14437002	-4626	2971	-1621
14437330	-2466	3364	-2268
14437658	-1318	3842	-2730
14437986	-1083	3939	-2851
14438314	-1145	4074	-2434
14438642	-1517	4770	-2017
14438970	-2337	3874	-1725
14439298	-2949	2647	-1746
14439626	-2993	1926	-1884
14439954	-2644	1668	-1971
14440282	-2461	1364	-2031
14440610	-2212	1355	-2003
14440938	-2099	1555	-1950
14441266	-2226	1416	-1917
14441594	-2173	926	-1760
14441922	-2124	881	-1631
14442250	-1659	1388	-1507
14442578	-1197	1817	-1422
14442906	-1031	1770	-1388
14443234	-999	1486	-1283
14443562	-783	1389	-1122
14443890	-560	1621	-1006
14444218	-383	1710	-918
14444546	-297	1532	-823
14444874	-284	1185	-700
14445202	-314	1139	-629
14445530	-158	1423	-603
14445858	-249	1332	-608
14446186	-684	833	-605
14446514	-802	571	-608
14446842	-780	778	-558
14447170	-640	705	-437
14447498	-515	531	-409
14447826	-194	739	-404
14448154	24	895	-418
14448482	-36	593	-429
14448810	-6	620	-401
14449138	144	843	-274
14449466	268	907	-232
14449794	216	910	-237
14450122	137	672	-281
14450450	224	374	-303
14450778	323	644	-298
14451106	343	679	-222
14451434	230	156	-194
14451762	214	58	-193
14452090	247	271	-195
14452418	259	128	-161
14452746	249	101	-113
14453074	367	163	18
14453402	382	-38	88
14453730	437	122	124
14454058	646	85	156
14454386	617	-127	176
14454714	712	-121	201
14455042	914	50	258
14455370	999	27	316
14455698	1016	-390	437
14456026	979	-138	516
14456354	1019	152	603
14456682	1206	228	714
14457010	1300	272	745
14457338	1521	459	779
14457666	1935	373	789
14457994	2075	-224	745
14458322	2175	-465	671
14458650	2436	-10	788
14458978	2547	144	999
14459306	2367	-260	1061
14459634	2261	-409	1026
14459962	2132	-384	1066
14460290	1935	-468	1157
14460618	1726	-802	1283
14460946	1235	-1435	1439
14461274	750	-1799	1567
14461602	492	-2402	1770
14461930	417	-3203	1809
14462258	835	-3164	1714
14462586	961	-3953	1512
14462914	807	-4939	1394
14463242	1053	-5007	1441
14463570	1346	-5136	1836
14463898	1359	-5337	2181
14464226	1459	-5345	2432
14464554	1628	-5923	2672
14464882	1751	-6248	3040
14465210	1688	-7007	3591
14465538	1542	-7809	4060
14465866	1856	-7736	4235
14466194	2425	-7765	4721
14466522	2910	-8197	5059
14466850	3434	-8435	5398
14467178	4296	-8766	5600
14467506	5636	-8721	5538
14467834	7158	-8288	6210
14468162	8610	-6766	7040
14468490	10647	-3818	7609
14468818	12314	-826	8191
14469146	14553	570	8780
14469474	16043	1406	9304
14469802	17436	1812	9389
14470130	19238	3730	7877
14470458	19331	6466	4470
14470786	17785	7891	132
14471114	15159	5085	-2995
14471442	14642	2533	-5597
14471770	14109	3715	-7606
14472098	14238	4874	-9788
14472426	14049	5303	-11102
14472754	13211	4736	-11809
14473082	11633	4015	-12541
14473410	9803	3180	-13432
14473738	8110	2347	-14439
14474066	6713	1457	-14794
14474394	5364	816	-15033
14474722	3873	244	-15163
14475050	2516	-266	-15139
14475378	840	-554	-15066
14475706	-333	-844	-14703
14476034	-827	-675	-14135
14476362	-859	34	-13330
14476690	-657	1010	-12595
14477018	126	1429	-11920
14477346	936	1817	-11362
14477674	1677	2523	-11406
14478002	2926	2692	-11352
14478330	4423	3759	-11241
14478658	5583	4638	-10597
14478986	6508	5159	-9807
14479314	7776	6143	-8880
14479642	8751	7210	-8181
14479970	9186	7970	-7543
14480298	9655	8770	-7227
14480626	10029	9544	-6973
14480954	10110	9969	-6687
14481282	10283	10437	-6427
14481610	10512	10878	-6378
14481938	10348	10952	-6064
14482266	10405	10926	-5976
14482594	10358	10742	-6023
14482922	10021	10358	-5990
14483250	9376	9915	-5875
14483578	8468	9501	-5857
14483906	7703	9092	-5733
14484234	6611	8633	-5496
14484562	5681	8256	-5239
14484890	4570	7961	-5013
14485218	3215	7806	-4686
14485546	1428	7415	-4252
14485874	-115	6638	-3765
14486202	-1218	5687	-3231
14486530	-1878	4459	-2513
14486858	-2840	3404	-1921
14487186	-3751	2648	-1274
14487514	-3476	1736	-774
14487842	-3664	1185	-203
14488170	-3426	1954	-69
14488498	-2401	4504	-37
14488826	-1694	5657	520
14489154	-1136	3711	1589
14489482	-907	474	2563
14489810	294	-1541	3694
14490138	1186	548	4805
14490466	2235	6398	4229
14490794	1642	7315	3721
14491122	60	4221	4159
14491450	-2942	-3618	2815
14491778	-4854	-6909	1992
14492106	-3129	-4497	3135
14492434	-803	-467	4086
14492762	176	2071	3856
14493090	442	785	3003
14493418	56	-1535	2044
14493746	-522	-1973	1868
14494074	-1489	-1966	2307
14494402	-2714	-2119	3075
14494730	-3442	-1110	3474
14495058	-3368	469	3615
14495386	-2641	1065	3558
14495714	-1617	969	3298
14496042	-523	654	2950
14496370	425	483	2677
14496698	885	305	2534
14497026	797	293	2702
14497354	222	406	2714
14497682	-801	469	2695
14498010	-1804	388	2523
14498338	-2514	-18	2315
14498666	-2829	-704	2009
14498994	-2603	-782	1742
14499322	-2137	-321	1572
14499650	-1479	59	1421
14499978	-979	304	1387
14500306	-542	515	1440
14500634	-206	556	1411
14500962	238	551	1291
14501290	591	647	1195
14501618	747	663	1200
14501946	681	565	1134
14502274	583	417	1073
14502602	515	330	1098
14502930	508	295	1073
14503258	515	287	1044
14503586	475	307	947
14503914	496	364	859
14504242	667	374	821
14504570	900	207	887
14504898	930	186	936
14505226	977	314	942
14505554	869	446	968
14505882	839	262	991
14506210	574	427	911
14506538	520	381	902
14506866	441	140	867
14507194	245	5	877
14507522	262	-10	807
14507850	229	-239	968
14508178	235	-220	1013
14508506	205	-153	1120
14508834	311	-118	1116
14509162	589	-208	1115
14509490	823	-62	1169
14509818	990	65	1184
14510146	1144	92	1117
14510474	1067	-8	1134
14510802	1047	-111	1029
14511130	897	-252	967
14511458	514	-250	951
14511786	253	-216	914
14512114	16	-386	938
14512442	-160	-427	1069
14512770	-241	-541	1118
14513098	-245	-426	1216
14513426	-190	-487	1135
14513754	-190	-642	1012
14514082	-345	-691	887
14514410	-948	-776	889
14514738	-1844	-1016	943
14515066	-2880	-1318	1049
14515394	-4003	-1637	1132
14515722	-5103	-1759	1114
14516050	-6455	-2036	810
14516378	-7549	-2394	242
14516706	-8186	-2312	55
14517034	-8644	-2566	-284
14517362	-9034	-3455	-411
14517690	-8987	-3604	-237
14518018	-8580	-3593	20
14518346	-8059	-3284	303
14518674	-7759	-3253	1066
14519002	-7481	-3482	2061
14519330	-8044	-3862	2891
14519658	-9013	-3927	3443
14519986	-9685	-2907	3894
14520314	-9476	-1574	3919
14520642	-8152	-177	3444
14520970	-6300	954	2764
14521298	-4193	2066	2026
14521626	-2365	2416	1197
14521954	-132	2118	438
14522282	1270	989	350
14522610	3440	1777	-411
14522938	3437	2478	-1403
14523266	1628	466	-1301
14523594	925	-503	-505
14523922	525	-423	706
14524250	223	20	1370
14524578	-706	-88	1133
14524906	-644	-405	545
14525234	386	-491	-4
14525562	1682	-848	-136
14525890	2535	-1061	-136
14526218	2625	-1297	96
14526546	2156	-1504	320
14526874	1300	-1475	605
14527202	211	-958	831
14527530	-548	-632	987
14527858	-648	-319	1047
14528186	-593	-57	1026
14528514	-453	-115	794
14528842	-12	-218	612
14529170	401	-189	541
14529498	585	-129	527
14529826	427	-150	509
14530154	67	-167	489
14530482	-438	-94	495
14530810	-894	-68	452
14531138	-1132	30	502
14531466	-1196	48	427
14531794	-1244	118	288
14532122	-1108	234	168
14532450	-919	404	75
14532778	-697	493	-47
14533106	-584	493	-139
14533434	-457	450	-178
14533762	-274	533	-210
14534090	-184	634	-157
14534418	-215	470	-70
14534746	-308	345	-29
14535074	-480	323	27
14535402	-434	269	150
14535730	-362	217	245
14536058	-328	182	273
14536386	-244	77	330
14536714	-98	28	428
14537042	3	13	517
14537370	36	-37	597
14537698	96	-133	663
14538026	153	-120	723
14538354	224	-125	731
14538682	261	-181	811
14539010	306	-144	789
14539338	336	-219	824
14539666	423	-210	834
14539994	465	-193	851
14540322	451	-227	859
14540650	453	-221	852
14540978	488	-156	871
14541306	517	-126	852
14541634	512	-135	841
14541962	553	-82	837
14542290	607	-69	814
14542618	565	-69	794
14542946	510	-91	813
14543274	434	-79	836
14543602	402	-64	866
14543930	370	-87	878
14544258	468	-24	825
14544586	587	72	711
14544914	670	84	551
14545242	830	80	471
14545570	805	51	446
14545898	582	-23	462
14546226	343	44	511
14546554	162	89	542
14546882	22	59	467
14547210	17	124	372
14547538	181	196	254
14547866	318	194	139
14548194	505	251	64
14548522	660	332	16
14548850	857	401	-65
14549178	890	467	-192
14549506	741	412	-340
14549834	770	394	-415
14550162	941	459	-532
14550490	1105	472	-627
14550818	1158	555	-762
14551146	1041	577	-836
14551474	969	519	-792
14551802	938	458	-705
14552130	819	396	-594
14552458	818	520	-488
14552786	701	701	-461
14553114	443	807	-548
14553442	31	656	-533
14553770	-243	372	-423
14554098	-412	277	-232
14554426	-516	570	-124
14554754	-668	902	-190
14555082	-714	1134	-395
14555410	-796	1257	-565
14555738	-723	1070	-753
14556066	-561	733	-853
14556394	-236	626	-948
14556722	-206	816	-1074
14557050	-437	935	-1275
14557378	-911	946	-1320
14557706	-1226	677	-1100
14558034	-1215	795	-1083
14558362	-1268	1128	-1051
14558690	-1291	1266	-1173
14559018	-1057	1145	-1295
14559346	-1057	1180	-1364
14559674	-1046	1156	-1331
14560002	-1021	880	-1292
14560330	-1218	831	-1406
14560658	-1428	1010	-1354
14560986	-1563	945	-1128
14561314	-1527	772	-957
14561642	-1456	368	-918
14561970	-1383	66	-831
14562298	-1290	64	-793
14562626	-1258	40	-666
14562954	-990	129	-568
14563282	-774	334	-529
14563610	-736	376	-565
14563938	-829	171	-610
14564266	-880	-159	-574
14564594	-903	-238	-568
14564922	-828	-270	-568
14565250	-801	-370	-572
14565578	-744	-515	-617
14565906	-632	-589	-677
14566234	-515	-702	-697
14566562	-344	-639	-779
14566890	-296	-476	-801
14567218	-277	-450	-762
14567546	-292	-441	-707
14567874	-246	-531	-721
14568202	-198	-506	-739
14568530	-236	-367	-669
14568858	-254	-245	-643
14569186	-234	-289	-629
14569514	-264	-340	-671
14569842	-232	-393	-623
14570170	-241	-351	-545
14570498	-220	-306	-444
14570826	-119	-342	-350
14571154	52	-130	-290
14571482	344	-23	-230
14571810	402	-63	-143
14572138	415	-220	-63
14572466	568	-280	59
14572794	553	-272	168
14573122	572	-220	276
14573450	574	-150	417
14573778	596	-110	499
14574106	638	-115	624
14574434	671	-88	639
14574762	652	-152	676
14575090	644	-139	742
14575418	571	-229	766
14575746	362	-230	753
14576074	153	-254	709
14576402	-130	-449	714
14576730	-427	-476	725
14577058	-647	-536	651
14577386	-787	-547	536
14577714	-797	-506	341
14578042	-849	-406	161
14578370	-954	-313	-31
14578698	-900	-176	-88
14579026	-613	223	-239
14579354	-402	478	-533
14579682	-239	359	-873
14580010	223	529	-1077
14580338	646	916	-1296
14580666	596	683	-1265
14580994	239	463	-1212
14581322	-460	377	-1218
14581650	-1010	561	-1179
14581978	-1272	661	-1188
14582306	-1307	631	-1145
14582634	-1210	594	-1095
14582962	-988	594	-1053
14583290	-716	676	-990
14583618	-642	683	-956
14583946	-601	561	-922
14584274	-604	503	-833
14584602	-650	491	-722
14584930	-665	416	-509
14585258	-594	370	-456
14585586	-469	376	-396
14585914	-402	293	-338
14586242	-229	264	-318
14586570	-28	229	-249
14586898	102	297	-186
14587226	161	285	-139
14587554	160	270	-150
14587882	235	302	-170
14588210	272	289	-194
14588538	476	352	-223
14588866	680	428	-228
14589194	764	504	-299
14589522	1067	641	-386
14589850	1242	610	-460
14590178	1339	583	-500
14590506	1315	575	-507
14590834	1290	585	-545
14591162	1338	675	-580
14591490	1180	737	-645
14591818	1025	675	-674
14592146	847	680	-721
14592474	670	743	-764
14592802	507	779	-856
14593130	367	815	-959
14593458	246	847	-1053
14593786	117	821	-1175
14594114	-40	787	-1225
14594442	-219	791	-1244
14594770	-419	814	-1339
14595098	-665	821	-1402
14595426	-1014	854	-1469
14595754	-1371	874	-1584
14596082	-1865	789	-1663
14596410	-2291	775	-1814
14596738	-2543	829	-1948
14597066	-2934	828	-2106
14597394	-3435	803	-2307
14597722	-3666	924	-2463
14598050	-3841	1351	-2560
14598378	-3554	2111	-2821
14598706	-3598	3005	-3282
14599034	-3492	3751	-3514
14599362	-3523	3855	-3782
14599690	-3602	3363	-4154
14600018	-3990	3122	-4109
14600346	-4377	2204	-3844
14600674	-4986	717	-3800
14601002	-5401	-562	-3749
14601330	-5051	-1608	-3530
14601658	-4176	-1121	-3082
14601986	-3117	776	-2837
14602314	-2391	2887	-2607
14602642	-2294	4428	-2441
14602970	-1720	5528	-2818
14603298	-559	6603	-3392
14603626	-5	8112	-3806
14603954	-347	6324	-3467
14604282	-1377	2648	-3318
14604610	-2277	-167	-3216
14604938	-2566	-1496	-1998
14605266	-2028	350	-447
14605594	-539	2490	1448
14605922	771	1363	2755
14606250	1614	-1322	3134
14606578	2465	-2827	2819
14606906	2868	-4575	2859
14607234	3752	-6742	3341
14607562	5248	-7731	4751
14607890	6496	-6754	6176
14608218	7149	-6278	6993
14608546	8575	-5275	7507
14608874	9236	-4479	8586
14609202	9798	-5016	9033
14609530	11224	-6847	9315
14609858	11532	-9987	10782
14610186	10237	-14256	11794
14610514	8095	-17128	12704
14610842	7833	-12417	12838
14611170	8859	-4038	9955
14611498	5920	6028	5725
14611826	3719	8391	253
14612154	3558	8126	-3101
14612482	4322	4964	-3891
14612810	5428	1200	-2635
14613138	4998	-1747	-1308
14613466	3350	-2286	-742
14613794	540	-1109	-1182
14614122	-2683	157	-1792
14614450	-4724	642	-2141
14614778	-4766	727	-1837
14615106	-4049	819	-1410
14615434	-2644	185	-771
14615762	-1778	-541	-54
14616090	-888	-715	-152
14616418	-4	-366	-278
14616746	545	447	-754
14617074	864	1148	-1109
14617402	1221	1387	-1390
14617730	1595	1375	-1752
14618058	2225	2030	-2323
14618386	3095	3121	-3046
14618714	4141	3795	-3706
14619042	5645	4384	-4282
14619370	1684	392	-5695
14619698	-317	1589	-8344
14620026	-2764	7218	-11400
14620354	-5174	18541	-16682
14620682	-2706	27988	-14232
14621010	222	14237	-2454
14621338	-8386	-160	7213
14621666	-12597	-14883	-380
14621994	-8923	-4327	-3924
14622322	-4200	2714	-2740
14622650	1987	1229	-2874
14622978	4188	4509	-1964
14623306	2840	4900	-1187
14623634	1276	1296	-802
14623962	-831	-1041	801
14624290	-3670	-2300	2063
14624618	-4730	-6421	2528
14624946	-3746	-7024	2994
14625274	-1506	-4317	3592
14625602	948	-1433	3609
14625930	1373	5956	2305
14626258	2512	-156	3627
14626586	2712	-543	3327
14626914	2880	-4266	3344
14627242	3053	-5129	3070
14627570	2443	-2108	2867
14627898	1668	-1281	2448
14628226	893	-2483	2172
14628554	359	-2200	2037
14628882	-56	-1034	1954
14629210	-460	-475	1968
14629538	-834	-121	1871
14629866	-1233	59	1413
14630194	-1291	187	1108
14630522	-1058	234	814
14630850	-957	-30	564
14631178	-823	-156	373
14631506	-730	-172	203
14631834	-665	-146	172
14632162	-443	165	104
14632490	-175	454	12
14632818	8	46	36
14633146	420	-307	56
14633474	1128	-108	59
14633802	1677	0	64
14634130	1907	-161	146
14634458	1942	-273	295
14634786	1775	-341	490
14635114	1411	-422	692
14635442	954	-390	901
14635770	526	-431	1073
14636098	236	-532	1156
14636426	272	-520	1312
14636754	303	-472	1337
14637082	371	-402	1247
14637410	382	-215	1076
14637738	344	-251	931
14638066	525	-330	850
14638394	858	-147	920
14638722	1052	-29	838
14639050	1038	-107	738
14639378	1661	7	454
14639706	1264	-178	724
14640034	1309	-81	921
14640362	1548	-36	846
14640690	1744	-114	795
14641018	1830	-142	769
14641346	1688	-292	837
14641674	1778	-342	879
14642002	1647	-391	913
14642330	1498	-460	909
14642658	1141	-494	907
14642986	619	-614	895
14643314	203	-775	850
14643642	-272	-997	942
14643970	-681	-1101	1075
14644298	-1065	-1118	1118
14644626	-1272	-1069	1158
14644954	-1410	-1066	1200
14645282	-1407	-1145	1182
14645610	-1472	-1165	1093
14645938	-1647	-1176	754
14646266	-1706	-1208	280
14646594	-1601	-1039	-182
14646922	-1434	-705	-444
14647250	-1256	-609	-662
14647578	-912	-256	-732
14647906	-831	194	-911
14648234	-909	398	-1218
14648562	-1045	573	-1529
14648890	-924	953	-1918
14649218	-846	1309	-2415
14649546	-867	1527	-2946
14649874	-969	1748	-3578
14650202	-1181	2110	-4106
14650530	-1688	2429	-4497
14650858	-2415	2429	-4686
14651186	-3383	2066	-4715
14651514	-3644	1595	-4648
14651842	-3700	1770	-3999
14652170	-3450	2238	-3766
14652498	-3220	2690	-3717
14652826	-2925	2576	-3535
14653154	-1951	1872	-3247
14653482	-1274	1241	-2665
14653810	-964	714	-2003
14654138	-693	27	-1451
14654466	-500	-859	-614
14654794	-727	-1520	172
14655122	-864	-2117	829
14655450	-977	-2376	1456
14655778	-1301	-2740	2187
14656106	-1095	-2792	2584
14656434	-1042	-2820	3033
14656762	-860	-3179	3581
14657090	-503	-3617	3899
14657418	-581	-4115	4213
14657746	-568	-4414	4274
14658074	-788	-4516	4405
14658402	-1625	-5011	5196
14658730	-2523	-4904	5371
14659058	-3432	-4717	5404
14659386	-4443	-4769	5461
14659714	-5744	-4792	5528
14660042	-6930	-4731	5461
14660370	-7663	-4679	5068
14660698	-8072	-4585	4877
14661026	-8645	-4482	4451
14661354	-8709	-4320	3964
14661682	-8036	-4011	3441
14662010	-7466	-3679	2939
14662338	-6705	-3254	2445
14662666	-5584	-2630	2178
14662994	-4695	-1822	1392
14663322	-3376	-1285	713
14663650	-2008	-190	207
14663978	-714	561	80
14664306	411	1259	-309
14664634	1760	1886	-331
14664962	3752	3643	-572
14665290	4973	5688	-644
14665618	3461	4920	-316
14665946	1905	3559	121
14666274	1483	7361	-305
14666602	-869	8543	-631
14666930	-3826	-1747	-1201
14667258	-3954	-9165	-533
14667586	-2202	-3845	-335
14667914	-2127	1228	-334
14668242	-1406	1543	-791
14668570	-795	1235	-924
14668898	-409	1284	-901
14669226	-323	989	-827
14669554	-118	475	-547
14669882	-3	901	-449
14670210	-214	1310	-541
14670538	-168	1228	-492
14670866	-317	1216	-659
14671194	-561	1096	-605
14671522	-807	895	-551
14671850	-1040	594	-446
14672178	-1233	586	-376
14672506	-1383	366	-503
14672834	-1349	343	-530
14673162	-1103	635	-563
14673490	-828	865	-472
14673818	-513	1027	-536
14674146	-302	895	-533
14674474	-249	814	-553
14674802	-302	766	-498
14675130	-365	693	-380
14675458	-369	727	-296
14675786	-348	701	-293
14676114	-177	707	-331
14676442	-19	660	-319
14676770	37	637	-347
14677098	19	558	-282
14677426	-155	442	-182
14677754	-337	398	-134
14678082	-496	356	-56
14678410	-638	272	2
14678738	-748	186	4
14679066	-867	114	24
14679394	-982	59	70
14679722	-1018	12	114
