Time Stamp	Gyroscope X	Gyroscope Y	Gyroscope Z
RAW	RAW	RAW	RAW
no units	no units	no units	no units
4587612	-2935	-17259	-3234
4587940	4341	947	-2260
4588268	3941	32767	338
4588596	-1464	4130	2960
4588924	4557	-13891	8346
4589252	-5854	-17313	4152
4589580	9799	-7244	-1494
4589908	9837	-110	-2097
4590236	1966	733	-4651
4590564	-5918	-287	-5610
4590892	-9028	2708	2793
4591220	-4700	3088	-1234
4591548	-1543	-1546	-4296
4591876	-337	-4602	-3978
4592204	3665	-2378	-3782
4592532	3436	-473	-3231
4592860	3248	-2199	-2823
4593188	2654	-4537	-2527
4593516	630	-4038	-2006
4593844	-35	-1332	-1467
4594172	-268	243	-1572
4594500	2	-375	-1722
4594828	487	-1144	-1857
4595156	1441	-838	-1640
4595484	1081	-148	-1323
4595812	1674	-90	-1152
4596140	1353	-468	-869
4596468	607	-673	-980
4596796	371	-683	-964
4597124	213	-676	-928
4597452	124	-669	-850
4597780	27	-512	-745
4598108	-36	-316	-743
4598436	-168	-389	-681
4598764	-287	-626	-689
4599092	-464	-783	-673
4599420	-780	-699	-634
4599748	-1109	-470	-586
4600076	-1310	-352	-623
4600404	-1415	-471	-477
4600732	-1058	-521	-493
4601060	-569	-333	-481
4601388	-830	5	-491
4601716	-348	-60	-526
4602044	401	-330	-548
4602372	392	-2	-624
4602700	782	618	-600
4603028	1080	481	-464
4603356	1120	61	-389
4603684	922	162	-360
4604012	996	339	-330
4604340	833	269	-279
4604668	692	155	-259
4604996	690	125	-269
4605324	355	230	-263
4605652	300	386	-239
4605980	255	287	-203
4606308	137	169	-219
4606636	-71	259	-189
4606964	-139	282	-132
4607292	-356	212	-91
4607620	-443	164	-71
4607948	-496	142	-50
4608276	-598	103	-45
4608604	-515	256	-20
4608932	-432	315	-16
4609260	-271	156	-9
4609588	-214	29	-32
4609916	-89	45	-46
4610244	143	138	-49
4610572	235	242	-78
4610900	232	190	-63
4611228	238	124	-90
4611556	301	-19	-157
4611884	266	-137	-182
4612212	321	-26	-169
4612540	341	254	-167
4612868	282	305	-199
4613196	167	120	-212
4613524	85	51	-176
4613852	95	194	-144
4614180	77	253	-158
4614508	47	212	-170
4614836	-78	177	-162
4615164	-59	197	-140
4615492	-49	166	-124
4615820	-64	216	-103
4616148	-5	417	-106
4616476	49	423	-119
4616804	6	309	-102
4617132	7	330	-136
4617460	160	433	-169
4617788	208	362	-186
4618116	231	259	-191
4618444	295	349	-182
4618772	324	465	-174
4619100	291	435	-160
4619428	326	417	-160
4619756	220	380	-197
4620084	166	351	-216
4620412	155	344	-203
4620740	141	397	-195
4621068	110	487	-200
4621396	142	482	-207
4621724	157	364	-218
4622052	116	345	-232
4622380	213	468	-226
4622708	214	518	-212
4623036	177	498	-198
4623364	154	470	-189
4623692	140	478	-186
4624020	145	503	-185
4624348	80	501	-207
4624676	-101	372	-315
4625004	-171	301	-335
4625332	-251	432	-310
4625660	-26	402	-317
4625988	-114	191	-336
4626316	-140	195	-394
4626644	0	321	-396
4626972	79	366	-396
4627300	49	288	-435
4627628	-61	235	-478
4627956	-246	252	-506
4628284	-201	273	-520
4628612	-174	301	-470
4628940	-142	326	-436
4629268	-160	273	-425
4629596	-127	270	-413
4629924	-68	309	-356
4630252	-41	339	-358
4630580	7	291	-320
4630908	39	310	-277
4631236	30	353	-236
4631564	46	370	-203
4631892	3	385	-166
4632220	36	404	-117
4632548	40	412	-105
4632876	25	391	-100
4633204	25	371	-68
4633532	30	396	-51
4633860	-18	367	-45
4634188	-25	311	-38
4634516	1	342	-39
4634844	74	387	-36
4635172	84	332	-41
4635500	90	300	-37
4635828	87	352	-30
4636156	141	370	-40
4636484	145	345	-50
4636812	141	297	-62
4637140	213	186	-48
4637468	214	216	-31
4637796	230	306	-51
4638124	269	261	-48
4638452	217	228	-33
4638780	229	261	-28
4639108	166	260	-27
4639436	169	205	-39
4639764	107	215	-39
4640092	88	251	-47
4640420	41	200	-30
4640748	35	183	-28
4641076	50	219	-21
4641404	71	179	-30
4641732	103	157	-20
4642060	98	187	-15
4642388	108	196	-8
4642716	55	179	-18
4643044	79	156	-19
4643372	103	189	-16
4643700	121	220	-19
4644028	88	199	-27
4644356	72	224	-40
4644684	45	233	-28
4645012	-34	173	-31
4645340	-6	134	-49
4645668	-19	146	-54
4645996	43	171	-79
4646324	21	182	-96
4646652	5	155	-106
4646980	-58	151	-108
4647308	-74	178	-120
4647636	-69	137	-141
4647964	-98	124	-147
4648292	-85	182	-155
4648620	-106	224	-136
4648948	-200	214	-148
4649276	-263	156	-136
4649604	-257	178	-121
4649932	-254	201	-140
4650260	-204	180	-127
4650588	-189	198	-120
4650916	-186	187	-125
4651244	-184	135	-124
4651572	-232	132	-136
4651900	-211	124	-127
4652228	-203	146	-101
4652556	-217	149	-106
4652884	-198	81	-101
4653212	-217	106	-76
4653540	-128	105	-101
4653868	-166	63	-84
4654196	-145	97	-73
4654524	-119	106	-59
4654852	-111	56	-63
4655180	-77	44	-66
4655508	-39	44	-51
4655836	-13	31	-46
4656164	-14	26	-49
4656492	-3	35	-36
4656820	20	66	-54
4657148	16	36	-30
4657476	-8	40	-11
4657804	-14	16	-2
4658132	-15	-10	6
4658460	21	37	7
4658788	15	73	14
4659116	3	37	32
4659444	-33	49	19
4659772	-47	33	27
4660100	-48	55	46
4660428	-39	72	54
4660756	-20	61	51
4661084	-16	64	53
4661412	-23	62	51
4661740	-29	63	53
4662068	-66	61	56
4662396	-46	41	62
4662724	-60	44	70
4663052	-50	35	50
4663380	-50	14	61
4663708	-33	-14	63
4664036	-32	17	57
4664364	-42	10	57
4664692	-37	-20	60
4665020	-55	30	58
4665348	-66	28	63
4665676	-61	17	58
4666004	-69	23	72
4666332	-88	39	61
4666660	-97	11	79
4666988	-114	5	79
4667316	-112	24	69
4667644	-82	26	60
4667972	-84	14	72
4668300	-84	10	76
4668628	-111	20	69
4668956	-121	32	68
4669284	-143	7	68
4669612	-186	18	71
4669940	-202	44	65
4670268	-197	21	51
4670596	-172	-19	59
4670924	-141	20	47
4671252	-139	29	33
4671580	-137	0	44
4671908	-135	20	42
4672236	-161	8	23
4672564	-138	0	23
4672892	-159	32	19
4673220	-189	0	32
4673548	-216	1	17
4673876	-225	14	16
4674204	-234	-29	2
4674532	-234	-20	15
4674860	-190	24	9
4675188	-176	9	13
4675516	-171	-22	6
4675844	-159	-12	24
4676172	-174	44	12
4676500	-170	-10	7
4676828	-180	-18	12
4677156	-179	54	25
4677484	-184	36	11
4677812	-197	-41	2
4678140	-199	-29	12
4678468	-161	41	7
4678796	-173	-7	20
4679124	-161	-41	0
4679452	-139	20	20
4679780	-123	39	9
4680108	-150	-20	16
4680436	-168	6	25
4680764	-158	77	29
4681092	-160	35	36
4681420	-111	19	37
4681748	-107	20	22
4682076	-54	23	32
4682404	-33	54	37
4682732	-27	42	43
4683060	-25	16	45
4683388	-28	20	47
4683716	-22	48	44
4684044	-5	33	53
4684372	-21	22	63
4684700	-13	35	50
4685028	-23	35	44
4685356	-35	28	51
4685684	-27	29	47
4686012	-53	19	50
4686340	-42	37	48
4686668	-65	31	33
4686996	-69	1	32
4687324	-60	30	37
4687652	-80	55	48
4687980	-83	49	50
4688308	-98	49	46
4688636	-94	55	47
4688964	-91	45	55
4689292	-113	47	66
4689620	-107	50	48
4689948	-117	42	48
4690276	-153	35	36
4690604	-126	60	47
4690932	-154	73	36
4691260	-179	55	38
4691588	-177	50	34
4691916	-168	40	21
4692244	-145	32	15
4692572	-125	43	23
4692900	-129	35	22
4693228	-141	35	32
4693556	-133	67	27
4693884	-151	71	32
4694212	-140	6	34
4694540	-160	6	32
4694868	-132	72	26
4695196	-137	51	25
4695524	-128	7	34
4695852	-110	30	23
4696180	-114	66	24
4696508	-101	55	36
4696836	-100	24	38
4697164	-115	44	31
4697492	-108	44	32
4697820	-81	33	28
4698148	-65	38	27
4698476	-58	33	33
4698804	-53	37	37
4699132	-31	49	43
4699460	-38	60	51
4699788	-38	59	57
4700116	-22	64	46
4700444	-19	42	66
4700772	-9	96	56
4701100	-22	57	37
4701428	-35	17	44
4701756	-62	85	65
4702084	-44	112	59
4702412	-82	39	46
4702740	-85	43	41
4703068	-59	92	39
4703396	-33	96	38
4703724	-71	60	32
4704052	-38	57	38
4704380	-14	92	39
4704708	-23	115	42
4705036	-25	87	45
4705364	-47	84	41
4705692	-31	68	30
4706020	-70	105	42
4706348	-44	83	46
4706676	-59	63	25
4707004	-72	46	25
4707332	-61	86	31
4707660	-64	87	19
4707988	-94	75	21
4708316	-102	82	16
4708644	-82	93	10
4708972	-69	74	8
4709300	-68	101	6
4709628	-60	90	10
4709956	-67	76	15
4710284	-22	101	14
4710612	-56	111	3
4710940	-48	95	3
4711268	-43	109	8
4711596	-40	107	5
4711924	-68	114	8
4712252	-54	96	10
4712580	-87	109	1
4712908	-69	123	10
4713236	-91	68	-3
4713564	-95	90	8
4713892	-102	142	4
4714220	-114	121	-1
4714548	-126	84	11
4714876	-105	141	0
4715204	-76	136	-1
4715532	-92	125	0
4715860	-69	132	-1
4716188	-85	142	2
4716516	-91	117	-6
4716844	-87	101	-1
4717172	-79	104	-12
4717500	-109	112	-17
4717828	-108	125	-7
4718156	-107	119	-25
4718484	-134	90	-22
4718812	-130	124	-25
4719140	-120	137	-7
4719468	-111	106	-9
4719796	-122	114	-16
4720124	-127	163	-15
4720452	-119	133	-11
4720780	-104	114	2
4721108	-121	133	-1
4721436	-111	137	1
4721764	-85	132	8
4722092	-68	145	4
4722420	-69	138	-1
4722748	-45	123	5
4723076	-69	153	8
4723404	-48	147	5
4723732	-98	131	8
4724060	-70	140	4
4724388	-81	157	5
4724716	-77	128	-3
4725044	-85	134	-3
4725372	-62	166	7
4725700	-68	141	-11
4726028	-61	159	-9
4726356	-43	166	-7
4726684	-24	128	-14
4727012	-37	141	-17
4727340	-6	169	-11
4727668	-14	162	-16
4727996	3	165	-23
4728324	-24	158	-28
4728652	-24	140	-26
4728980	-28	146	-24
4729308	-10	135	-17
4729636	-22	145	-18
4729964	-41	134	-28
4730292	-34	146	-47
4730620	-41	136	-37
4730948	-65	117	-34
4731276	-90	132	-29
4731604	-93	137	-36
4731932	-77	133	-30
4732260	-81	140	-42
4732588	-49	162	-30
4732916	-38	169	-30
4733244	-37	145	-30
4733572	-38	159	-38
4733900	-29	179	-34
4734228	-53	169	-31
4734556	-32	149	-35
4734884	-44	178	-37
4735212	-28	158	-31
4735540	-63	153	-30
4735868	-49	148	-43
4736196	-67	165	-30
4736524	-58	178	-37
4736852	-62	134	-35
4737180	-24	202	-33
4737508	-34	162	-32
4737836	-33	165	-44
4738164	-23	185	-44
4738492	-4	197	-36
4738820	-19	167	-51
4739148	-64	138	-56
4739476	-29	184	-35
4739804	-29	190	-28
4740132	-29	151	-41
4740460	-50	147	-49
4740788	-40	158	-43
4741116	-31	165	-42
4741444	-53	166	-41
4741772	-64	142	-43
4742100	-74	168	-34
4742428	-84	184	-45
4742756	-77	142	-19
4743084	-62	135	-28
4743412	-43	179	-29
4743740	-33	169	-36
4744068	-49	156	-38
4744396	-34	167	-28
4744724	-55	165	-27
4745052	-30	162	-24
4745380	-60	176	-28
4745708	-60	147	-21
4746036	-73	161	-25
4746364	-52	195	-34
4746692	-71	153	-22
4747020	-64	164	-27
4747348	-60	173	-40
4747676	-51	162	-19
4748004	-44	166	-13
4748332	-41	187	-13
4748660	-39	144	-4
4748988	-45	163	2
4749316	-28	194	2
4749644	-61	167	-1
4749972	-57	162	-13
4750300	-74	177	-8
4750628	-70	180	-11
4750956	-74	164	-16
4751284	-76	161	-17
4751612	-84	141	-7
4751940	-89	165	-4
4752268	-68	166	-9
4752596	-57	161	-1
4752924	-69	186	-11
4753252	-90	155	-5
4753580	-68	160	-17
4753908	-82	148	9
4754236	-81	186	-20
4754564	-72	172	-19
4754892	-63	143	-28
4755220	-71	185	-39
4755548	-89	177	-34
4755876	-76	127	-28
4756204	-62	173	-27
4756532	-63	187	-20
4756860	-78	137	-21
4757188	-90	171	-7
4757516	-99	195	-13
4757844	-122	151	2
4758172	-106	187	2
4758500	-89	187	-16
4758828	-58	170	-17
4759156	-78	179	-14
4759484	-99	169	-27
4759812	-118	145	-30
4760140	-101	168	-24
4760468	-78	183	-33
4760796	-57	170	-35
4761124	-60	149	-35
4761452	-59	190	-40
4761780	-69	179	-45
4762108	-45	157	-34
4762436	-14	187	-26
4762764	-24	189	-34
4763092	-28	157	-39
4763420	-18	170	-44
4763748	-5	167	-46
4764076	-20	149	-47
4764404	-20	172	-49
4764732	-21	141	-51
4765060	-18	154	-59
4765388	-36	166	-51
4765716	-26	142	-45
4766044	-27	145	-41
4766372	-44	163	-30
4766700	-25	168	-40
4767028	-22	173	-44
4767356	-35	182	-36
4767684	-27	150	-37
4768012	-19	163	-25
4768340	-24	161	-43
4768668	-26	141	-40
4768996	-5	131	-34
4769324	5	163	-40
4769652	15	157	-36
4769980	7	159	-36
4770308	-5	156	-45
4770636	1	172	-35
4770964	-17	184	-26
4771292	19	145	-35
4771620	10	174	-43
4771948	16	173	-29
4772276	13	155	-50
4772604	10	149	-32
4772932	15	181	-43
4773260	10	169	-41
4773588	16	137	-53
4773916	1	158	-45
4774244	-16	184	-45
4774572	-39	153	-51
4774900	-24	180	-49
4775228	-28	185	-42
4775556	-24	168	-42
4775884	-29	163	-45
4776212	-30	164	-44
4776540	-39	162	-46
4776868	-65	160	-44
4777196	-51	140	-39
4777524	-45	157	-45
4777852	-41	167	-42
4778180	-47	167	-42
4778508	-48	165	-40
4778836	-50	170	-35
4779164	-34	174	-38
4779492	-62	160	-41
4779820	-67	151	-41
4780148	-68	150	-46
4780476	-95	170	-52
4780804	-91	168	-32
4781132	-80	144	-34
4781460	-71	177	-38
4781788	-64	175	-35
4782116	-69	170	-39
4782444	-71	185	-36
4782772	-65	174	-33
4783100	-83	177	-24
4783428	-83	175	-34
4783756	-70	177	-34
4784084	-82	158	-34
4784412	-72	169	-31
4784740	-46	185	-42
4785068	-68	153	-36
4785396	-57	166	-41
4785724	-78	156	-42
4786052	-62	154	-43
4786380	-32	162	-40
4786708	-59	153	-35
4787036	-52	165	-29
4787364	-71	160	-43
4787692	-48	170	-46
4788020	-43	167	-50
4788348	-54	144	-50
4788676	-37	171	-33
4789004	-40	170	-35
4789332	-51	136	-36
4789660	-54	158	-38
4789988	-79	168	-33
4790316	-70	156	-24
4790644	-72	156	-42
4790972	-75	158	-42
4791300	-76	146	-41
4791628	-80	153	-40
4791956	-48	158	-35
4792284	-57	159	-35
4792612	-70	159	-27
4792940	-64	159	-36
4793268	-38	144	-28
4793596	-40	163	-24
4793924	-20	164	-26
4794252	-42	161	-41
4794580	-18	154	-26
4794908	-31	153	-24
4795236	-51	162	-34
4795564	-55	164	-30
4795892	-48	175	-23
4796220	-50	164	-29
4796548	-55	167	-26
4796876	-56	183	-20
4797204	-43	157	-28
4797532	-36	161	-22
4797860	-24	188	-24
4798188	-37	155	-29
4798516	-50	157	-22
4798844	-42	170	-20
4799172	-39	175	-28
4799500	-45	166	-19
4799828	-25	161	-22
4800156	-22	167	-18
4800484	-45	150	-19
4800812	-38	160	-23
4801140	-48	155	-15
4801468	-39	159	-22
4801796	-46	169	-25
4802124	-49	169	-16
4802452	-56	163	-20
4802780	-55	161	-9
4803108	-50	178	-17
4803436	-56	144	-16
4803764	-41	165	-8
4804092	-42	146	-6
4804420	-37	161	-20
4804748	-38	157	-12
4805076	-39	154	-21
4805404	-48	155	-10
4805732	-58	152	-2
4806060	-57	170	1
4806388	-48	161	-13
4806716	-47	164	-4
4807044	-62	163	-16
4807372	-83	155	-17
4807700	-60	164	-8
4808028	-58	152	-6
4808356	-68	145	-7
4808684	-46	152	-14
4809012	-50	158	-16
4809340	-48	162	-14
4809668	-38	150	-3
4809996	-64	142	-25
4810324	-58	174	-5
4810652	-61	164	-23
4810980	-75	141	-14
4811308	-70	167	-18
4811636	-40	146	-17
4811964	-38	133	-22
4812292	-47	147	-9
4812620	-51	153	-15
4812948	-62	134	-38
4813276	-64	149	-31
4813604	-73	157	-18
4813932	-89	139	-20
4814260	-95	137	-13
4814588	-71	148	-17
4814916	-55	143	-34
4815244	-54	121	-35
4815572	-53	142	-39
4815900	-46	150	-33
4816228	-49	132	-28
4816556	-70	121	-30
4816884	-75	129	-26
4817212	-77	149	-28
4817540	-73	147	-29
4817868	-79	141	-36
4818196	-70	157	-26
4818524	-70	129	-29
4818852	-69	146	-41
4819180	-84	145	-39
4819508	-70	145	-13
4819836	-75	144	-35
4820164	-85	118	-43
4820492	-67	113	-31
4820820	-58	148	-39
4821148	-64	135	-38
4821476	-65	123	-38
4821804	-50	138	-47
4822132	-40	136	-42
4822460	-51	146	-45
4822788	-56	130	-50
4823116	-56	131	-54
4823444	-49	149	-44
4823772	-51	154	-40
4824100	-46	134	-45
4824428	-51	130	-50
4824756	-55	129	-52
4825084	-61	140	-52
4825412	-25	111	-46
4825740	-21	86	-46
4826068	-45	111	-64
4826396	-24	111	-52
4826724	-39	119	-51
4827052	-32	114	-54
4827380	-31	123	-52
4827708	-29	127	-53
4828036	-30	134	-55
4828364	-29	129	-55
4828692	-28	138	-44
4829020	-31	140	-53
4829348	-27	131	-67
4829676	-41	130	-51
4830004	-52	120	-62
4830332	-62	146	-51
4830660	-54	123	-45
4830988	-58	135	-63
4831316	-69	134	-55
4831644	-68	114	-61
4831972	-55	131	-58
4832300	-49	135	-53
4832628	-57	117	-73
4832956	-34	126	-75
4833284	-33	137	-61
4833612	-32	114	-63
4833940	-27	123	-66
4834268	-14	108	-61
4834596	-11	134	-56
4834924	-24	114	-64
4835252	-13	96	-70
4835580	-21	125	-63
4835908	-19	126	-58
4836236	-18	87	-59
4836564	-1	109	-58
4836892	20	117	-65
4837220	22	86	-59
4837548	18	96	-61
4837876	10	120	-62
4838204	-10	97	-58
4838532	10	113	-56
4838860	-3	124	-53
4839188	3	96	-63
4839516	5	120	-52
4839844	22	127	-69
4840172	4	109	-69
4840500	-14	102	-67
4840828	-6	117	-64
4841156	-28	132	-51
4841484	-38	103	-54
4841812	-60	120	-50
4842140	-64	143	-65
4842468	-88	132	-56
4842796	-80	129	-53
4843124	-106	135	-58
4843452	-118	137	-56
4843780	-115	160	-45
4844108	-104	155	-58
4844436	-88	132	-53
4844764	-81	132	-59
4845092	-93	155	-48
4845420	-87	146	-54
4845748	-67	161	-63
4846076	-65	135	-63
4846404	-69	139	-65
4846732	-58	160	-61
4847060	-66	118	-64
4847388	-66	114	-66
4847716	-51	137	-64
4848044	-22	144	-61
4848372	-21	146	-58
4848700	-14	131	-62
4849028	-7	124	-65
4849356	-49	151	-57
4849684	-17	136	-57
4850012	-43	131	-74
4850340	-7	141	-59
4850668	-22	128	-53
4850996	-21	121	-55
4851324	-30	117	-56
4851652	-28	122	-62
4851980	-13	150	-56
4852308	-3	143	-59
4852636	-29	130	-53
4852964	-41	114	-58
4853292	-48	152	-56
4853620	-54	166	-60
4853948	-28	129	-65
4854276	-21	156	-61
4854604	-6	177	-52
4854932	-32	139	-45
4855260	-31	157	-49
4855588	-18	178	-51
4855916	-15	155	-55
4856244	-25	155	-56
4856572	-13	150	-38
4856900	-25	154	-45
4857228	-19	157	-41
4857556	-23	150	-36
4857884	-17	160	-41
4858212	-21	173	-38
4858540	-21	152	-45
4858868	-31	153	-54
4859196	-20	165	-46
4859524	-22	171	-53
4859852	-36	165	-47
4860180	-17	149	-57
4860508	-12	155	-55
4860836	-8	169	-55
4861164	-3	173	-63
4861492	-17	159	-48
4861820	-14	156	-52
4862148	-18	153	-48
4862476	-26	154	-43
4862804	-9	158	-51
4863132	-28	160	-47
4863460	-20	152	-47
4863788	-36	151	-46
4864116	-25	137	-45
4864444	-48	147	-38
4864772	-39	153	-47
4865100	-5	148	-37
4865428	-65	188	-43
4865756	-66	143	-37
4866084	-86	142	-35
4866412	-98	213	-32
4866740	-71	170	-32
4867068	-83	160	-39
4867396	-66	207	-29
4867724	-59	184	-18
4868052	-54	170	-19
4868380	-60	208	-26
4868708	-27	199	-18
4869036	-41	165	-15
4869364	-6	185	-8
4869692	-19	207	-1
4870020	5	210	5
4870348	33	202	-3
4870676	0	206	2
4871004	21	208	3
4871332	-6	198	11
4871660	-14	251	31
4871988	-15	227	27
4872316	-11	168	20
4872644	32	180	14
4872972	32	212	33
4873300	32	170	27
4873628	24	156	12
4873956	-1	184	31
4874284	-26	190	17
4874612	6	184	31
4874940	-3	191	31
4875268	19	217	25
4875596	3	230	33
4875924	2	190	47
4876252	15	184	30
4876580	18	171	42
4876908	38	182	43
4877236	-1	195	50
4877564	0	178	46
4877892	-15	172	40
4878220	9	204	27
4878548	4	224	35
4878876	10	202	30
4879204	-4	220	21
4879532	-3	225	18
4879860	-12	196	8
4880188	-30	192	12
4880516	6	194	-10
4880844	-10	152	-16
4881172	-44	160	-23
4881500	-27	168	-19
4881828	-7	163	-21
4882156	8	147	-26
4882484	46	167	-35
4882812	63	174	-53
4883140	43	158	-43
4883468	61	161	-48
4883796	59	174	-49
4884124	69	160	-33
4884452	68	166	-48
4884780	32	160	-45
4885108	24	178	-45
4885436	2	167	-45
4885764	-64	175	-57
4886092	-79	172	-60
4886420	-114	181	-56
4886748	-144	182	-68
4887076	-113	171	-60
4887404	-154	159	-51
4887732	-121	190	-57
4888060	-163	162	-65
4888388	-185	132	-57
4888716	-166	194	-55
4889044	-203	145	-69
4889372	-172	128	-71
4889700	-170	161	-56
4890028	-162	137	-76
4890356	-177	122	-76
4890684	-140	131	-78
4891012	-125	141	-83
4891340	-90	135	-73
4891668	-90	129	-73
4891996	-53	136	-66
4892324	-33	105	-64
4892652	-33	100	-51
4892980	-2	137	-59
4893308	-28	114	-51
4893636	-21	133	-63
4893964	-20	125	-69
4894292	-22	103	-58
4894620	-33	108	-59
4894948	-15	125	-62
4895276	-25	97	-62
4895604	-27	102	-56
4895932	1	120	-51
4896260	-10	105	-49
4896588	-19	113	-46
4896916	-16	141	-43
4897244	-6	133	-42
4897572	-37	80	-39
4897900	-55	135	-43
4898228	-56	156	-35
4898556	-78	105	-34
4898884	-56	133	-29
4899212	-45	147	-32
4899540	-59	131	-20
4899868	-36	102	-33
4900196	-34	113	-39
4900524	-26	149	-27
4900852	-43	93	-30
4901180	-33	105	-23
4901508	-33	154	-11
4901836	-45	124	-12
4902164	-21	115	-14
4902492	-7	145	-10
4902820	-20	134	-3
4903148	-26	132	3
4903476	-10	144	2
4903804	-15	140	1
4904132	-24	119	-2
4904460	-49	130	-4
4904788	-57	165	3
4905116	-72	139	7
4905444	-87	136	1
4905772	-74	129	14
4906100	-52	125	6
4906428	-49	154	3
4906756	-44	154	10
4907084	-37	123	8
4907412	-42	151	6
4907740	-51	164	1
4908068	-37	147	9
4908396	-74	144	10
4908724	-73	141	6
4909052	-81	151	10
4909380	-84	143	14
4909708	-122	126	14
4910036	-108	151	16
4910364	-124	144	18
4910692	-100	123	9
4911020	-94	149	10
4911348	-88	142	23
4911676	-98	136	32
4912004	-85	160	9
4912332	-85	173	25
4912660	-76	186	24
4912988	-63	181	26
4913316	-60	196	31
4913644	-33	175	40
4913972	-55	164	49
4914300	-35	173	43
4914628	-47	163	42
4914956	-37	147	35
4915284	-28	159	54
4915612	-34	162	53
4915940	-35	112	41
4916268	-68	152	31
4916596	-81	154	49
4916924	-68	135	43
4917252	-67	171	53
4917580	-90	160	41
4917908	-51	162	39
4918236	-67	180	42
4918564	-49	158	55
4918892	-52	145	56
4919220	-30	185	51
4919548	-27	178	60
4919876	-32	168	50
4920204	-46	205	60
4920532	-57	190	71
4920860	-59	176	61
4921188	-64	181	74
4921516	-34	187	68
4921844	-45	171	52
4922172	-36	201	66
4922500	-26	199	47
4922828	-11	193	55
4923156	-7	172	64
4923484	27	207	45
4923812	69	220	46
4924140	69	182	27
4924468	71	204	6
4924796	105	288	-9
4925124	157	278	-32
4925452	168	208	-23
4925780	201	167	38
4926108	233	280	121
4926436	285	435	187
4926764	301	464	293
4927092	385	407	376
4927420	501	322	389
4927748	513	424	434
4928076	461	691	492
4928404	502	683	532
4928732	286	704	613
4929060	37	777	699
4929388	-130	796	772
4929716	88	953	767
4930044	-264	1212	778
4930372	-275	1416	895
4930700	-464	1382	1052
4931028	-600	1202	1205
4931356	-1080	1290	1288
4931684	-1086	1676	1457
4932012	-1201	2146	1764
4932340	-1253	2234	2021
4932668	-1340	2212	2314
4932996	-1248	2221	2519
4933324	-990	2370	2722
4933652	-565	2519	2980
4933980	-276	2668	3209
4934308	39	2614	3313
4934636	197	2669	3590
4934964	306	2973	3945
4935292	3	3321	4183
4935620	-222	3428	4414
4935948	-441	3461	4645
4936276	294	3407	4630
4936604	1226	2766	4712
4936932	2679	1871	4959
4937260	3791	573	5358
4937588	3960	-87	5295
4937916	4351	298	4876
4938244	3550	950	3925
4938572	2608	1232	3008
4938900	1659	1075	2220
4939228	-765	1829	818
4939556	-1168	4566	-628
4939884	-1895	6140	-1902
4940212	-1614	4655	-3222
4940540	-1057	1854	-4630
4940868	-832	-208	-4335
4941196	865	-1567	-3427
4941524	1762	-3583	-1947
4941852	1823	-3470	-1077
4942180	1277	-1353	-1170
4942508	-813	-1189	-1497
4942836	-2619	-3321	-2551
4943164	-3957	-4849	-3472
4943492	-4264	-4593	-3950
4943820	-5345	-4887	-4164
4944148	-5800	-6983	-3714
4944476	-7225	-8816	-3873
4944804	-6843	-8648	-4133
4945132	-11323	-4241	-4454
4945460	-4290	-2504	-6424
4945788	-4715	-9181	-2825
4946116	-1794	-9158	-782
4946444	4796	-769	-426
4946772	7344	5423	1692
4947100	5747	996	3604
4947428	5380	-2305	4515
4947756	3899	-1105	4570
4948084	1811	1498	4945
4948412	250	2889	4216
4948740	-283	2628	3136
4949068	143	1367	2327
4949396	500	1093	1639
4949724	701	920	1026
4950052	-41	190	220
4950380	-927	-510	-589
4950708	-2196	-459	-1392
4951036	-3386	42	-2339
4951364	-4507	459	-3106
4951692	-4776	822	-3369
4952020	-4082	1255	-2502
4952348	-2848	1001	-1707
4952676	-2554	1424	-425
4953004	-1731	1371	374
4953332	-599	121	722
4953660	-2395	1836	413
4953988	2781	500	-369
4954316	12008	2823	1842
4954644	7105	17195	-2211
4954972	11522	22758	-4559
4955300	5461	-2162	-99
4955628	1248	-17910	-1257
4955956	-12260	6961	-65
4956284	21149	18470	2929
4956612	-2312	-1708	11707
4956940	-816	-9399	10227
4957268	9469	-5766	2988
4957596	9289	-5079	-1803
4957924	707	-8743	-7690
4958252	-9664	-11599	-6255
4958580	-10476	-2191	3706
4958908	-1897	10351	-3621
4959236	3739	-1131	-4519
4959564	3842	-6138	-4180
4959892	10038	-3350	-3733
4960220	9147	-1529	-2590
4960548	4392	-1999	-1953
4960876	1129	-4951	-2116
4961204	-3059	-3987	-1283
4961532	-3816	-708	-1536
4961860	-2444	100	-1178
4962188	-1538	-1227	-1251
4962516	163	-2246	-1363
4962844	615	-1543	-1444
4963172	2111	-463	-1793
4963500	2214	380	-1776
4963828	1489	1316	-1636
4964156	2236	1383	-1623
4964484	2012	-611	-1222
4964812	872	-3829	-1014
4965140	662	-3607	-1029
4965468	665	-542	-909
4965796	700	1523	-710
4966124	272	1045	-631
4966452	-572	-742	-594
4966780	-1194	-1746	-461
4967108	-1535	-990	-402
4967436	-1865	186	-418
4967764	-1888	206	-382
4968092	-1832	-324	-434
4968420	-1482	-536	-322
4968748	-824	-431	-223
4969076	-233	-172	-204
4969404	277	-17	-279
4969732	715	-139	-264
4970060	931	-56	-231
4970388	1077	52	-225
4970716	1100	102	-191
4971044	991	99	-172
4971372	918	-107	-194
4971700	568	-95	-169
4972028	421	-27	-148
4972356	170	-55	-113
4972684	45	-15	-103
4973012	-69	-68	-119
4973340	-237	-153	-135
4973668	-347	-102	-141
4973996	-479	-15	-119
4974324	-581	-16	-96
4974652	-672	-61	-129
4974980	-644	-109	-147
4975308	-620	-69	-158
4975636	-487	-49	-133
4975964	-332	1	-106
4976292	-173	83	-120
4976620	32	75	-120
4976948	216	-4	-118
4977276	409	43	-124
4977604	503	194	-129
4977932	457	137	-151
4978260	354	20	-132
4978588	195	59	-124
4978916	133	132	-121
4979244	-34	87	-130
4979572	-19	78	-130
4979900	-28	104	-137
4980228	-20	113	-127
4980556	-82	66	-132
4980884	-200	107	-116
4981212	-239	122	-119
4981540	-262	76	-120
4981868	-301	12	-135
4982196	-271	63	-119
4982524	-261	77	-105
4982852	-289	67	-101
4983180	-293	128	-84
4983508	-286	147	-85
4983836	-285	106	-71
4984164	-232	131	-89
4984492	-155	158	-92
4984820	-14	125	-88
4985148	42	105	-100
4985476	101	119	-105
4985804	106	109	-104
4986132	83	135	-95
4986460	46	115	-102
4986788	31	113	-102
4987116	-16	119	-91
4987444	-26	152	-75
4987772	-42	168	-66
4988100	-47	131	-72
4988428	-75	132	-86
4988756	-69	159	-81
4989084	-54	146	-76
4989412	-90	129	-67
4989740	-82	154	-46
4990068	-85	146	-45
4990396	-38	91	-64
4990724	-25	124	-64
4991052	25	156	-63
4991380	-7	146	-66
4991708	-18	122	-60
4992036	-19	134	-56
4992364	22	165	-61
4992692	57	150	-68
4993020	92	131	-65
4993348	101	158	-59
4993676	124	151	-66
4994004	116	103	-64
4994332	110	110	-68
4994660	107	118	-71
4994988	87	102	-65
4995316	70	131	-56
4995644	72	91	-69
4995972	33	88	-68
4996300	59	129	-71
4996628	18	99	-70
4996956	-10	121	-62
4997284	43	120	-56
4997612	65	93	-62
4997940	90	112	-68
4998268	91	130	-71
4998596	106	108	-61
4998924	68	124	-49
4999252	26	158	-38
4999580	39	134	-46
4999908	25	128	-38
5000236	49	132	-41
5000564	47	122	-44
5000892	29	130	-43
5001220	14	152	-49
5001548	-9	133	-42
5001876	-30	138	-39
5002204	-29	151	-40
5002532	-22	141	-37
5002860	-19	141	-35
5003188	-14	158	-31
5003516	-12	171	-33
5003844	-19	148	-41
5004172	-50	136	-47
5004500	-66	136	-44
5004828	-67	147	-46
5005156	-67	162	-45
5005484	-105	148	-41
5005812	-103	137	-35
5006140	-86	154	-37
5006468	-81	147	-29
5006796	-68	181	-37
5007124	-67	153	-38
5007452	-69	140	-30
5007780	-62	178	-17
5008108	-101	182	-2
5008436	-111	150	-11
5008764	-98	149	-14
5009092	-69	200	-20
5009420	-102	160	-10
5009748	-98	142	-27
5010076	-104	160	-31
5010404	-112	140	-28
5010732	-99	144	-23
5011060	-83	169	-16
5011388	-50	148	-19
5011716	-42	134	-26
5012044	-18	159	-22
5012372	-19	163	-17
5012700	-32	163	-12
5013028	-42	162	-17
5013356	-38	140	-30
5013684	-19	154	-19
5014012	-30	155	-13
5014340	-22	153	-23
5014668	-38	144	-30
5014996	-50	129	-29
5015324	-64	143	-33
5015652	-40	159	-33
5015980	-45	146	-28
5016308	-54	156	-33
5016636	-47	161	-29
5016964	-28	122	-26
5017292	-28	138	-21
5017620	-1	138	-34
5017948	-11	146	-30
5018276	-16	146	-24
5018604	-30	142	-31
5018932	-30	134	-35
5019260	-22	140	-25
5019588	-47	140	-28
5019916	-29	132	-25
5020244	-30	123	-16
5020572	-37	129	-23
5020900	-36	131	-28
5021228	-24	132	-17
5021556	-48	137	-23
5021884	-27	152	-14
5022212	-16	145	-16
5022540	3	146	-4
5022868	7	133	-14
5023196	3	152	-11
5023524	-2	161	-17
5023852	-58	136	-15
5024180	-73	144	-15
5024508	-110	126	-26
5024836	-79	109	-21
5025164	-102	133	-13
5025492	-112	155	-22
5025820	-68	104	-24
5026148	-57	115	-20
5026476	-68	169	-16
5026804	-113	150	-3
5027132	-106	118	-26
5027460	-71	163	-9
5027788	-36	184	8
5028116	-60	149	5
5028444	-58	156	-4
5028772	-81	153	2
5029100	-64	155	-2
5029428	-81	147	-10
5029756	-78	158	5
5030084	-79	169	3
5030412	-78	157	-8
5030740	-82	152	0
5031068	-84	145	8
5031396	-91	160	8
5031724	-92	169	9
5032052	-91	164	7
5032380	-67	155	1
5032708	-41	162	5
5033036	-60	180	11
5033364	-53	153	10
5033692	-48	140	3
5034020	-36	141	4
5034348	-29	169	1
5034676	-65	155	5
5035004	-78	145	1
5035332	-78	173	-1
5035660	-97	172	-3
5035988	-88	159	-2
5036316	-57	162	-5
5036644	-56	146	-9
5036972	-82	160	10
5037300	-74	166	-7
5037628	-96	156	-9
5037956	-67	142	-14
5038284	-35	133	-1
5038612	-46	147	-7
5038940	-28	162	-2
5039268	-77	135	-7
5039596	-81	138	-6
5039924	-88	157	-10
5040252	-53	131	-5
5040580	-66	155	-3
5040908	-72	165	-13
5041236	-81	164	8
5041564	-88	158	4
5041892	-76	162	12
5042220	-83	173	7
5042548	-80	160	1
5042876	-46	129	-3
5043204	-80	157	5
5043532	-39	181	0
5043860	-42	150	-17
5044188	-31	138	-5
5044516	-19	160	-7
5044844	-34	155	-7
5045172	-61	158	-14
5045500	-62	156	-7
5045828	-102	156	-2
5046156	-77	176	-1
5046484	-72	130	-3
5046812	-76	143	-1
5047140	-66	168	-7
5047468	-49	172	-4
5047796	-60	123	-5
5048124	-49	163	-12
5048452	-20	165	-1
5048780	-37	151	-17
5049108	-58	162	-11
5049436	-58	168	-15
5049764	-86	163	-10
5050092	-76	177	-21
5050420	-108	174	-5
5050748	-92	183	-6
5051076	-114	179	-4
5051404	-110	176	4
5051732	-134	174	0
5052060	-91	180	0
5052388	-93	184	6
5052716	-92	195	7
5053044	-142	185	2
5053372	-106	179	1
5053700	-69	186	-6
5054028	-95	161	8
5054356	-140	203	11
5054684	-150	198	10
5055012	-126	171	19
5055340	-134	220	17
5055668	-138	190	6
5055996	-134	171	15
5056324	-139	208	13
5056652	-134	201	11
5056980	-90	178	0
5057308	-106	195	13
5057636	-102	212	8
5057964	-77	184	11
5058292	-92	151	4
5058620	-97	162	-4
5058948	-91	146	1
5059276	-112	138	-1
5059604	-120	162	9
5059932	-109	153	-4
5060260	-97	126	-8
5060588	-68	138	-13
5060916	-52	146	-4
5061244	-54	163	-2
5061572	-48	148	-22
5061900	-57	145	-4
5062228	-44	152	-6
5062556	-84	157	-7
5062884	-105	139	-8
5063212	-123	149	-6
5063540	-94	154	-8
5063868	-84	131	-12
5064196	-57	128	-13
5064524	-32	150	-11
5064852	-39	135	-9
5065180	-42	127	-21
5065508	-19	131	-17
5065836	-18	113	-21
5066164	-13	121	-24
5066492	-21	139	-29
5066820	-23	94	-27
5067148	-39	118	-30
5067476	-14	115	-34
5067804	-6	95	-35
5068132	-23	111	-40
5068460	-14	106	-48
5068788	-13	106	-55
5069116	20	89	-50
5069444	5	95	-56
5069772	2	129	-58
5070100	-16	110	-50
5070428	-52	105	-51
5070756	-53	119	-50
5071084	-65	120	-57
5071412	-71	118	-55
5071740	-46	136	-63
5072068	-24	102	-78
5072396	-49	86	-79
5072724	-47	128	-66
5073052	-54	124	-71
5073380	-36	108	-75
5073708	-26	136	-59
5074036	6	126	-73
5074364	-2	111	-66
5074692	-15	137	-74
5075020	-32	93	-57
5075348	-19	76	-69
5075676	-19	138	-69
5076004	-7	126	-70
5076332	-17	84	-75
5076660	-17	90	-82
5076988	-20	114	-67
5077316	-42	91	-67
5077644	-21	112	-64
5077972	-22	117	-60
5078300	6	115	-65
5078628	-2	125	-66
5078956	9	115	-67
5079284	-3	124	-72
5079612	8	123	-80
5079940	0	71	-75
5080268	16	75	-75
5080596	4	114	-80
5080924	-9	90	-83
5081252	0	80	-84
5081580	-27	132	-77
5081908	-13	131	-87
5082236	-13	101	-84
5082564	-16	122	-80
5082892	-34	138	-80
5083220	-29	102	-77
5083548	-19	105	-85
5083876	-21	113	-75
5084204	-53	106	-83
5084532	-49	119	-84
5084860	-44	115	-82
5085188	-24	130	-78
5085516	-19	118	-82
5085844	-39	121	-90
5086172	-41	126	-81
5086500	-56	143	-76
5086828	-44	130	-69
5087156	-38	148	-77
5087484	-16	166	-69
5087812	-11	141	-64
5088140	-1	132	-72
5088468	15	141	-66
5088796	5	129	-59
5089124	-25	159	-70
5089452	-4	120	-75
5089780	-51	119	-65
5090108	-67	173	-68
5090436	-41	149	-60
5090764	-75	110	-68
5091092	-57	143	-81
5091420	-71	141	-69
5091748	-45	118	-69
5092076	-27	146	-64
5092404	-48	130	-64
5092732	-53	138	-66
5093060	-57	146	-60
5093388	-65	132	-67
5093716	-68	132	-76
5094044	-35	158	-57
5094372	-51	177	-71
5094700	-40	150	-82
5095028	-30	90	-82
5095356	-57	154	-77
5095684	-58	183	-80
5096012	-79	104	-71
5096340	-43	147	-70
5096668	-47	186	-73
5096996	-35	156	-73
5097324	-73	117	-73
5097652	-63	166	-74
5097980	-76	174	-79
5098308	-52	114	-79
5098636	-64	118	-87
5098964	-74	177	-78
5099292	-52	132	-83
5099620	-50	126	-75
5099948	-19	165	-87
5100276	-10	139	-88
5100604	12	144	-97
5100932	13	147	-112
5101260	10	146	-101
5101588	10	170	-98
5101916	3	130	-107
5102244	-2	138	-101
5102572	18	158	-99
5102900	13	155	-113
5103228	13	154	-95
5103556	12	147	-84
5103884	-33	144	-107
5104212	-7	127	-110
5104540	8	131	-102
5104868	27	150	-112
5105196	67	127	-111
5105524	95	113	-108
5105852	78	144	-99
5106180	60	161	-100
5106508	41	137	-114
5106836	3	139	-98
5107164	29	194	-107
5107492	41	159	-106
5107820	12	148	-113
5108148	54	226	-93
5108476	59	190	-91
5108804	97	206	-90
5109132	176	237	-89
5109460	204	257	-76
5109788	198	318	-55
5110116	176	344	-18
5110444	134	395	23
5110772	141	410	20
5111100	135	410	41
5111428	132	464	45
5111756	172	507	44
5112084	158	517	52
5112412	152	592	48
5112740	165	690	73
5113068	208	725	85
5113396	205	716	55
5113724	153	723	54
5114052	115	775	26
5114380	120	820	12
5114708	77	800	-21
5115036	105	693	-149
5115364	188	650	-263
5115692	337	658	-359
5116020	413	594	-435
5116348	344	613	-525
5116676	370	584	-595
5117004	377	500	-688
5117332	366	413	-797
5117660	319	452	-860
5117988	350	436	-909
5118316	658	395	-989
5118644	-157	708	-1051
5118972	392	926	-1094
5119300	-430	686	-1172
5119628	-432	1075	-1233
5119956	10	1416	-1273
5120284	237	1434	-1224
5120612	628	1175	-1124
5120940	377	978	-1008
5121268	104	986	-870
5121596	-4	876	-796
5121924	-76	674	-742
5122252	-14	805	-695
5122580	191	887	-627
5122908	60	883	-536
5123236	-137	883	-425
5123564	-186	802	-381
5123892	-441	681	-351
5124220	-491	603	-300
5124548	-464	534	-290
5124876	-462	408	-262
5125204	-380	466	-246
5125532	-555	583	-211
5125860	-469	640	-104
5126188	-637	571	-23
5126516	-782	519	28
5126844	-813	615	25
5127172	-613	603	27
5127500	-612	657	81
5127828	-421	660	128
5128156	-386	652	192
5128484	-345	601	226
5128812	-279	471	231
5129140	-314	546	255
5129468	-286	618	304
5129796	-233	615	317
5130124	-144	412	311
5130452	-133	334	319
5130780	-53	453	357
5131108	-52	322	359
5131436	-160	241	405
5131764	-264	374	446
5132092	-189	255	431
5132420	9	56	407
5132748	-60	64	470
5133076	50	257	533
5133404	-248	248	546
5133732	-228	236	538
5134060	-176	165	492
5134388	-113	-102	464
5134716	-110	-19	521
5135044	-288	195	531
5135372	-197	21	534
5135700	-232	-82	579
5136028	-84	25	625
5136356	-111	93	645
5136684	101	-75	674
5137012	76	-126	722
5137340	-56	72	812
5137668	-113	98	889
5137996	31	-57	898
5138324	139	-195	900
5138652	267	-217	922
5138980	185	-172	960
5139308	54	-241	1016
5139636	-144	-336	1103
5139964	-61	-457	1102
5140292	-126	-425	1109
5140620	-93	-446	1174
5140948	-347	-491	1264
5141276	-363	-409	1376
5141604	-398	-371	1505
5141932	-403	-444	1575
5142260	-255	-638	1580
5142588	-416	-775	1615
5142916	-394	-789	1718
5143244	-380	-806	1802
5143572	-465	-780	1873
5143900	-350	-691	1915
5144228	-283	-525	1967
5144556	-492	-310	2047
5144884	-613	-150	2089
5145212	-807	31	2190
5145540	-879	132	2299
5145868	-1035	122	2440
5146196	-971	170	2577
5146524	-703	283	2678
5146852	-75	212	2776
5147180	292	39	2995
5147508	743	192	3099
5147836	1067	263	3139
5148164	1292	8	3098
5148492	1383	-148	3035
5148820	1144	-195	3144
5149148	1498	42	3215
5149476	918	504	3353
5149804	-272	1239	3563
5150132	-9	1371	3573
5150460	-1134	761	3644
5150788	539	-496	3619
5151116	1124	-1383	3531
5151444	2315	-1376	3564
5151772	2728	-1595	3647
5152100	3271	-2120	3552
5152428	3510	-3103	3216
5152756	3824	-3797	2853
5153084	4232	-3880	2618
5153412	4454	-3887	2341
5153740	4655	-4206	2206
5154068	4193	-4450	2049
5154396	2971	-4283	1979
5154724	1024	-4002	2007
5155052	-807	-4381	2042
5155380	-1888	-4737	1910
5155708	-1475	-5167	1577
5156036	-900	-5457	1316
5156364	4	-5161	936
5156692	789	-4631	582
5157020	2516	-4274	350
5157348	1626	-3771	169
5157676	4557	-4534	151
5158004	5631	-6093	26
5158332	2399	-4598	25
5158660	3801	-2993	245
5158988	3994	-3179	104
5159316	3920	-3196	-24
5159644	4223	-1990	-188
5159972	2883	-944	-219
5160300	876	-759	-603
5160628	-1115	124	-945
5160956	-2460	893	-1165
5161284	-2412	700	-1417
5161612	-2710	1176	-1409
5161940	-1698	1820	-1352
5162268	-1084	1868	-1467
5162596	-1553	1811	-1420
5162924	-1577	1883	-1344
5163252	-1349	1893	-1128
5163580	-1237	1679	-879
5163908	-915	1443	-745
5164236	-493	1507	-695
5164564	13	1599	-603
5164892	99	1738	-452
5165220	-55	1785	-241
5165548	-254	1675	-85
5165876	-370	1463	-12
5166204	-221	1324	64
5166532	152	1367	80
5166860	586	1336	104
5167188	885	1306	32
5167516	1084	1209	69
5167844	780	1289	13
5168172	497	1279	-56
5168500	228	1197	-44
5168828	-211	1003	89
5169156	-342	990	157
5169484	-344	972	188
5169812	-354	894	106
5170140	-280	784	6
5170468	-172	912	-90
5170796	-38	954	-214
5171124	-227	876	-207
5171452	-331	865	-203
5171780	-564	907	-256
5172108	-559	769	-195
5172436	-174	556	-132
5172764	-19	583	-66
5173092	399	706	-16
5173420	428	627	-20
5173748	440	578	-101
5174076	567	635	-161
5174404	497	735	-154
5174732	400	686	-141
5175060	149	586	-140
5175388	38	489	-137
5175716	-220	129	-158
5176044	-122	35	-166
5176372	-96	103	-185
5176700	-59	290	-193
5177028	-17	212	-206
5177356	-205	109	-221
5177684	-192	174	-243
5178012	-303	225	-239
5178340	-327	170	-240
5178668	-407	67	-241
5178996	-385	36	-244
5179324	-389	22	-238
5179652	-524	38	-224
5179980	-464	19	-225
5180308	-518	32	-229
5180636	-543	40	-214
5180964	-622	2	-194
5181292	-713	24	-170
5181620	-772	76	-132
5181948	-729	67	-86
5182276	-424	-62	-43
5182604	-257	-165	-14
5182932	-225	-88	50
5183260	-469	183	130
5183588	-359	181	224
5183916	-228	-74	291
5184244	-33	-58	343
5184572	221	95	434
5184900	334	131	533
5185228	441	78	654
5185556	417	19	814
5185884	413	183	930
5186212	633	420	1010
5186540	643	515	1176
5186868	600	666	1424
5187196	669	967	1635
5187524	683	1303	1851
5187852	963	1267	2200
5188180	1047	921	2600
5188508	1425	484	2975
5188836	1979	223	3320
5189164	2670	201	3539
5189492	3660	194	3643
5189820	3885	19	3640
5190148	4752	-35	3503
5190476	4567	338	3486
5190804	2976	1250	3557
5191132	3009	1111	3775
5191460	2392	-154	4001
5191788	3558	-1492	4111
5192116	3871	-3152	4135
5192444	4670	-4080	3514
5192772	4705	-4200	3208
5193100	4322	-4124	2667
5193428	3948	-3452	2512
5193756	2596	-2767	2614
5194084	1932	-2987	2896
5194412	408	-4321	3046
5194740	-407	-5305	3036
5195068	-1234	-5579	2859
5195396	-2143	-5616	2668
5195724	-1826	-5652	2212
5196052	-1486	-5100	1821
5196380	-346	-4201	1208
5196708	1573	-3822	914
5197036	2872	-4142	871
5197364	3173	-3473	744
5197692	4122	-2942	749
5198020	4244	-2859	575
5198348	4087	-2982	199
5198676	5785	-3149	-406
5199004	6418	-2915	-1030
5199332	5627	-1583	-1562
5199660	1528	2745	-2060
5199988	4726	5056	-2767
5200316	3517	2407	-3493
5200644	-357	1294	-4026
5200972	-662	2871	-4210
5201300	-3229	4808	-4504
5201628	-4356	6565	-4976
5201956	-3246	6520	-4941
5202284	-3659	5851	-5067
5202612	-1227	5246	-4470
5202940	-573	4366	-3589
5203268	1757	3512	-2489
5203596	3678	3093	-1447
5203924	5738	2792	-587
5204252	7003	2794	-112
5204580	7452	1166	396
5204908	7969	13	-2
5205236	8291	1256	-945
5205564	7112	2856	-1371
5205892	4625	3913	-1520
5206220	2530	2905	-1321
5206548	763	1061	-934
5206876	315	661	-723
5207204	579	1002	-697
5207532	1676	818	-729
5207860	2402	1055	-564
5208188	2509	576	-652
5208516	2445	738	-652
5208844	2137	696	-684
5209172	1586	582	-686
5209500	864	639	-677
5209828	478	415	-623
5210156	364	256	-362
5210484	765	-94	-246
5210812	1205	42	-330
5211140	1405	283	-259
5211468	903	51	-328
5211796	438	-275	-214
5212124	-145	-218	-159
5212452	-436	136	-276
5212780	-444	165	-322
5213108	-469	25	-332
5213436	-406	-33	-270
5213764	-565	-389	-248
5214092	-589	-695	-256
5214420	-636	-515	-230
5214748	-593	-369	-217
5215076	-681	-726	-200
5215404	-764	-1143	-128
5215732	-1089	-1724	9
5216060	-1286	-2218	108
5216388	-963	-1924	36
5216716	-903	-1395	75
5217044	-953	-1402	124
5217372	-771	-1799	144
5217700	-654	-2022	110
5218028	-412	-2153	190
5218356	-449	-2573	329
5218684	-669	-3032	406
5219012	-944	-3198	501
5219340	-1146	-3152	707
5219668	-1114	-3101	868
5219996	-800	-3244	1100
5220324	-473	-3419	1422
5220652	-194	-3567	1721
5220980	-76	-3360	1945
5221308	331	-2750	2149
5221636	863	-2263	2427
5221964	1157	-2257	2994
5222292	1003	-2252	3636
5222620	547	-2173	4380
5222948	-247	-1917	5221
5223276	-865	-1294	6002
5223604	-780	-607	6690
5223932	-188	-716	7358
5224260	1913	-1335	8245
5224588	5411	-2159	9199
5224916	8175	-3468	9205
5225244	9674	-3737	8855
5225572	11373	-3657	7937
5225900	12593	-3475	6792
5226228	10456	-4333	5771
5226556	6384	-3915	4816
5226884	11297	-860	3440
5227212	14935	-491	2654
5227540	15595	-2772	878
5227868	12824	-539	-455
5228196	10828	3845	-1880
5228524	10163	911	-2327
5228852	11260	-4462	-4406
5229180	9795	-4728	-6913
5229508	6455	-2231	-8613
5229836	5082	-751	-10168
5230164	3485	-1963	-10820
5230492	2656	-6060	-11029
5230820	2066	-9850	-11698
5231148	3116	-10499	-12347
5231476	4452	-10287	-12862
5231804	4435	-10116	-12587
5232132	5470	-11553	-12294
5232460	6221	-13807	-11795
5232788	7405	-15311	-11473
5233116	8464	-17200	-11081
5233444	9345	-19191	-10873
5233772	9442	-20522	-11011
5234100	10049	-20766	-11578
5234428	10385	-19401	-12072
5234756	10476	-16856	-12241
5235084	9537	-14205	-12068
5235412	8316	-12545	-11251
5235740	6886	-12560	-9054
5236068	5190	-14097	-6718
5236396	3262	-15377	-6056
5236724	2478	-16971	-5660
5237052	1990	-16521	-4945
5237380	3150	-13081	-4737
5237708	4267	-9562	-4078
5238036	5318	-5607	-2109
5238364	6567	-2017	-110
5238692	8396	51	1651
5239020	7718	1370	3082
5239348	7311	1972	3726
5239676	8285	3692	4740
5240004	8094	4982	5835
5240332	9138	6710	6023
5240660	7835	9908	5799
5240988	10640	10229	5587
5241316	8205	7665	4443
5241644	5129	5649	3480
5241972	6482	4350	2616
5242300	3385	5263	1763
5242628	3793	5094	1714
5242956	3388	3734	2195
5243284	4791	1798	2686
5243612	7377	680	3399
5243940	8007	1255	2891
5244268	7932	1922	1811
5244596	6492	2369	1347
5244924	5487	2566	1095
5245252	5019	1367	1384
5245580	4704	411	1838
5245908	5023	537	1912
5246236	5585	920	1806
5246564	5899	1346	1505
5246892	5994	1238	1393
5247220	4179	999	701
5247548	2462	1214	266
5247876	513	1744	-111
5248204	-1743	4209	-637
5248532	-2489	6970	-1129
5248860	-1745	7435	-1481
5249188	-119	3496	-392
5249516	1756	-1619	2456
5249844	3438	-576	2943
5250172	2894	2477	2473
5250500	2143	2766	1994
5250828	1623	1288	1793
5251156	1129	-122	1730
5251484	840	-438	1738
5251812	715	-587	1853
5252140	381	-766	1467
5252468	-1	217	421
5252796	-297	1284	-152
5253124	-582	1060	-268
5253452	-482	-62	62
5253780	-311	-1544	601
5254108	129	-2673	1076
5254436	625	-2392	1199
5254764	1045	-1183	1119
5255092	891	-401	839
5255420	423	-309	553
5255748	-19	-530	411
5256076	-253	-852	298
5256404	-241	-846	135
5256732	-517	-707	55
5257060	-867	-713	30
5257388	-1388	-1006	-61
5257716	-1956	-1337	-191
5258044	-2641	-1320	-354
5258372	-2545	-1514	-525
5258700	-2428	-1972	-615
5259028	-2216	-2103	-583
5259356	-1865	-2179	-503
5259684	-2128	-2439	-468
5260012	-2180	-2477	-592
5260340	-1904	-2560	-641
5260668	-2024	-2944	-714
5260996	-2242	-3162	-831
5261324	-2384	-3577	-944
5261652	-2874	-4028	-1096
5261980	-2837	-4035	-1317
5262308	-2887	-4373	-1548
5262636	-2958	-4637	-1751
5262964	-2907	-4693	-2010
5263292	-3399	-4706	-2449
5263620	-3720	-4967	-2777
5263948	-4268	-5279	-3261
5264276	-4971	-5585	-3482
5264604	-5567	-6041	-3633
5264932	-6238	-6351	-3854
5265260	-7189	-6810	-3935
5265588	-8134	-7477	-4202
5265916	-8749	-5658	-3844
5266244	-11617	-2489	-4262
5266572	-10902	-2918	-3395
5266900	-12646	-4561	-2385
5267228	-10954	-5486	-179
5267556	-9941	-3324	2709
5267884	-9128	615	3098
5268212	-7034	6413	4146
5268540	-5730	10018	6091
5268868	-3272	10807	7457
5269196	-2830	10298	8250
5269524	-3147	11959	9277
5269852	-4345	14386	9700
5270180	-6253	16704	9877
5270508	-7894	18720	9796
5270836	-9870	19683	9436
5271164	-11911	19388	9079
5271492	-15049	17513	7828
5271820	-15035	14614	10270
5272148	-13624	14157	11025
5272476	-13220	15871	11351
5272804	-11933	17749	10724
5273132	-10304	18112	9317
5273460	-9081	17307	8682
5273788	-8827	16596	7994
5274116	-8538	16730	7142
5274444	-8777	17072	6168
5274772	-9238	17468	4956
5275100	-11026	17568	4076
5275428	-13560	17133	3238
5275756	-16112	16508	2555
5276084	-18575	16397	1722
5276412	-19259	15831	1083
5276740	-18491	13168	666
5277068	-19843	10627	628
5277396	-21953	10326	-82
5277724	-23053	12503	-644
5278052	-22624	12966	-377
5278380	-19056	10777	-748
5278708	-20763	9735	-1107
5279036	-20274	9642	-1896
5279364	-19413	10188	-2620
5279692	-20044	10048	-3481
5280020	-19536	8971	-4441
5280348	-20668	7589	-5253
5280676	-21999	5655	-5838
5281004	-20780	3778	-6439
5281332	-20997	3823	-7045
5281660	-24680	7654	-7208
5281988	-19797	12131	-7119
5282316	-14951	10003	-5940
5282644	-10910	8282	-4103
5282972	-8007	4130	-3193
5283300	-8778	4515	-2515
5283628	-3610	5135	-2035
5283956	-1497	4504	-1760
5284284	-997	3674	-1085
5284612	-805	2621	-820
5284940	-810	1648	-917
5285268	52	1431	-999
5285596	252	2370	-822
5285924	1351	3253	-876
5286252	1341	3741	-1114
5286580	-448	3968	-1350
5286908	-1744	2813	-1186
5287236	-3396	458	-942
5287564	-3084	-374	-612
5287892	-1884	432	-363
5288220	-693	1204	-281
5288548	473	750	-295
5288876	1297	471	1
5289204	1385	506	358
5289532	1035	20	565
5289860	537	-694	455
5290188	158	-957	433
5290516	177	-891	586
5290844	228	-1033	897
5291172	591	-1030	963
5291500	909	-747	765
5291828	1527	-281	525
5292156	2025	-395	458
5292484	1671	-1558	566
5292812	774	-2419	807
5293140	-815	-2490	881
5293468	-1263	-2090	677
5293796	-989	-1726	369
5294124	-787	-1438	-53
5294452	238	-1006	-133
5294780	427	-524	57
5295108	474	-999	360
5295436	-75	-1490	635
5295764	-663	-1292	831
5296092	-1384	-1211	915
5296420	-1864	-1643	939
5296748	-1737	-2180	898
5297076	-1502	-2450	815
5297404	-1055	-2375	802
5297732	-591	-2816	804
5298060	-902	-3332	739
5298388	-915	-3149	602
5298716	-1345	-2965	475
5299044	-1861	-3501	305
5299372	-1973	-4075	9
5299700	-1938	-4153	-287
5300028	-2117	-4243	-445
5300356	-2290	-4721	-603
5300684	-2566	-5347	-783
5301012	-3312	-5511	-1395
5301340	-3857	-5667	-1585
5301668	-4237	-5525	-1870
5301996	-4960	-5353	-2156
5302324	-5434	-5769	-2183
5302652	-5880	-5912	-2198
5302980	-5787	-5600	-2191
5303308	-7110	-3696	-2057
5303636	-7699	-916	-1942
5303964	-9505	1383	-2293
5304292	-8266	1707	-2354
5304620	-8499	1287	-2149
5304948	-7415	2705	-1172
5305276	-6690	5225	667
5305604	-4581	7616	2762
5305932	-3954	9699	4362
5306260	-1244	11351	5706
5306588	156	12699	6907
5306916	1350	13629	7115
5307244	2065	14915	7032
5307572	1167	15243	6089
5307900	58	15569	5489
5308228	-1999	17172	4396
5308556	-3871	18696	3133
5308884	-6543	20599	1707
5309212	-10633	21923	1860
5309540	-10240	21618	2958
5309868	-11176	20341	3459
5310196	-11631	18541	4441
5310524	-10342	17039	4861
5310852	-10530	16480	5220
5311180	-9942	16624	5218
5311508	-9025	16961	4832
5311836	-7972	16166	4307
5312164	-7228	14809	3906
5312492	-6198	13444	3333
5312820	-5287	12468	2600
5313148	-4233	11450	1965
5313476	-3847	10003	1101
5313804	-3616	9487	319
5314132	-3262	8384	-489
5314460	-4253	7226	-1406
5314788	-4398	6105	-2070
5315116	-5284	4979	-2108
5315444	-6072	4172	-2852
5315772	-6717	3652	-3432
5316100	-6973	2586	-4526
5316428	-6807	1076	-5725
5316756	-5638	235	-6552
5317084	-3860	344	-6756
5317412	-4590	1495	-5741
5317740	-5413	2134	-4480
5318068	-6653	1336	-3262
5318396	-6285	-843	-2912
5318724	-6789	-330	-2291
5319052	-2762	3710	-1441
5319380	-2269	1644	-136
5319708	492	-5423	867
5320036	3650	-4319	317
5320364	7583	-718	-688
5320692	9606	805	-1404
5321020	9834	1732	-1620
5321348	9300	1691	-1917
5321676	5979	217	-1120
5322004	137	-1314	370
5322332	-3943	-1133	672
5322660	-4826	-33	617
5322988	-3321	492	227
5323316	-612	289	144
5323644	2337	-484	383
5323972	3610	-162	587
5324300	3449	717	961
5324628	1953	1041	1150
5324956	-313	420	1150
5325284	-1990	-236	1184
5325612	-2079	45	1043
5325940	-1619	208	928
5326268	-988	704	882
5326596	-971	1163	931
5326924	-1195	952	1082
5327252	-1949	507	1136
5327580	-2523	245	1127
5327908	-3087	387	1239
5328236	-3549	287	1305
5328564	-3837	281	1417
5328892	-3753	483	1412
5329220	-3902	959	1543
5329548	-4309	1173	2020
5329876	-5110	1162	2436
5330204	-6374	1684	2808
5330532	-7251	2545	2879
5330860	-7744	2957	2799
5331188	-7943	3150	3488
5331516	-8828	3517	4039
5331844	-10258	4305	4410
5332172	-11708	4866	5343
5332500	-11372	6207	6208
5332828	-11032	9450	6678
5333156	-9601	10629	7504
5333484	-7104	9383	8334
5333812	-4188	5729	9073
5334140	-543	1817	9259
5334468	1115	-2417	9023
5334796	939	-6641	9018
5335124	-284	-9909	8241
5335452	-3544	-11835	6460
5335780	-2755	-11717	1206
5336108	-6839	-13691	-3997
5336436	-8258	-10200	-10244
5336764	-6642	-1584	-12934
5337092	-8280	925	-12467
5337420	-9955	-2426	-11309
5337748	-10604	-8751	-8364
5338076	-11982	-13334	-6483
5338404	-12443	-11184	-6090
5338732	-14810	1746	-4189
5339060	12715	9565	1331
5339388	15330	7771	9958
5339716	11732	-6075	9656
5340044	11690	-15234	7761
5340372	13889	-14490	3632
5340700	8354	-2357	-534
5341028	4724	9914	-422
5341356	-595	11014	1507
5341684	-4201	1923	-258
5342012	-6269	-2150	-1033
5342340	-7606	191	-1371
5342668	-6735	3029	-925
5342996	-6283	2432	-432
5343324	-5483	16	-591
5343652	-3258	172	416
5343980	-164	558	835
5344308	2409	-1383	691
5344636	4273	-3134	251
5344964	4740	-1385	-110
5345292	3176	874	342
5345620	264	546	718
5345948	-2311	-682	308
5346276	-3304	-54	-129
5346604	-2953	1066	-348
5346932	-1635	847	-437
5347260	292	-303	-525
5347588	1591	-972	-593
5347916	2636	-748	-554
5348244	2859	-294	-560
5348572	2689	-172	-460
5348900	2480	-371	-394
5349228	2585	-614	-295
5349556	2662	-583	-53
5349884	2939	-483	147
5350212	3482	-725	298
5350540	3860	-1139	341
5350868	4299	-1208	268
5351196	4489	-1186	141
5351524	4552	-977	43
5351852	4581	-876	-143
5352180	4373	-932	-281
5352508	3891	-768	-433
5352836	3541	-618	-698
5353164	3052	-646	-977
5353492	3257	-657	-1125
5353820	3401	-664	-1301
5354148	3324	-640	-1426
5354476	3150	-495	-1588
5354804	2975	-216	-1773
5355132	2894	-219	-1905
5355460	2783	-418	-2251
5355788	2511	-606	-2706
5356116	1990	-546	-3230
5356444	1235	60	-3656
5356772	161	765	-3850
5357100	-863	1404	-3904
5357428	-2012	1994	-3967
5357756	-2904	3279	-3788
5358084	-2221	4036	-3255
5358412	-2455	2682	-2202
5358740	-649	-1314	-2256
5359068	1696	-2934	-2923
5359396	2937	-610	-3617
5359724	3813	1389	-3366
5360052	2605	1758	-3305
5360380	1222	1729	-2927
5360708	-672	1351	-2746
5361036	-480	514	-2756
5361364	558	310	-2744
5361692	2083	499	-2236
5362020	3060	43	-1961
5362348	3068	-1007	-1320
5362676	2375	-1751	-991
5363004	1510	-1441	-938
5363332	745	-781	-1043
5363660	472	-485	-1131
5363988	708	-241	-1269
5364316	1376	-167	-1337
5364644	1928	-440	-1274
5364972	1764	-643	-1047
5365300	1753	-572	-870
5365628	1042	-469	-708
5365956	756	-543	-544
5366284	507	-581	-470
5366612	719	-739	-357
5366940	971	-846	-237
5367268	1119	-798	-77
5367596	1188	-827	10
5367924	1431	-1074	160
5368252	1531	-1377	359
5368580	2262	-1719	614
5368908	3110	-2162	733
5369236	4105	-2572	776
5369564	4812	-2862	824
5369892	4984	-3112	948
5370220	5061	-3500	1250
5370548	4603	-4433	1635
5370876	5107	-5673	2144
5371204	5623	-5946	2231
5371532	7020	-5762	2167
5371860	8722	-5717	2467
5372188	9671	-6265	2963
5372516	9627	-6680	3327
5372844	9609	-6577	3539
5373172	9886	-6461	3727
5373500	9685	-6454	3852
5373828	9472	-6481	4063
5374156	8905	-6584	4307
5374484	8149	-6764	4787
5374812	7644	-6805	5059
5375140	7648	-6508	5361
5375468	7535	-6179	5704
5375796	8030	-5964	6422
5376124	8520	-5883	7124
5376452	9143	-5521	7633
5376780	8748	-4416	7838
5377108	9116	-2985	7743
5377436	7658	-1426	7247
5377764	5463	666	7349
5378092	5793	2620	7739
5378420	5659	829	8818
5378748	9725	-3319	8245
5379076	12874	-6522	6831
5379404	13398	-6903	5264
5379732	13025	-3495	3449
5380060	16012	707	2142
5380388	13541	858	1353
5380716	12992	-3730	112
5381044	13080	-6325	-1027
5381372	11415	-5040	-2433
5381700	10738	-4048	-3540
5382028	8669	-5084	-4677
5382356	6869	-7514	-5490
5382684	5281	-9615	-6592
5383012	4143	-10734	-7199
5383340	3634	-11043	-7656
5383668	3241	-12306	-7789
5383996	4324	-14347	-8220
5384324	5094	-16163	-8909
5384652	6294	-17333	-9406
5384980	7319	-17692	-9729
5385308	8198	-16342	-9938
5385636	9543	-15096	-9936
5385964	10991	-15632	-9599
5386292	10718	-18123	-9313
5386620	10308	-20267	-9012
5386948	9042	-20978	-8717
5387276	8084	-20775	-8106
5387604	7162	-20709	-7912
5387932	5677	-20053	-7567
5388260	4078	-18006	-6848
5388588	4458	-17495	-6801
5388916	4518	-16651	-6486
5389244	5012	-15169	-6476
5389572	5326	-14947	-5383
5389900	5503	-14666	-3976
5390228	5458	-12936	-3245
5390556	5649	-10034	-3447
5390884	6563	-7975	-2754
5391212	6881	-6659	-1613
5391540	7532	-4969	-475
5391868	8127	-3107	698
5392196	9333	-1368	1739
5392524	9850	-540	2971
5392852	9603	842	3765
5393180	8906	3134	4374
5393508	9456	5615	4470
5393836	8735	7285	4134
5394164	6416	7383	3103
5394492	3538	7280	2269
5394820	1071	7260	1815
5395148	466	7558	1556
5395476	32	7061	1591
5395804	-924	6330	1528
5396132	-1214	5748	1863
5396460	-617	4614	1708
5396788	18	2498	1463
5397116	882	1649	1728
5397444	2073	2514	1567
5397772	5102	4855	665
5398100	7046	5260	211
5398428	6434	3447	71
5398756	5990	3322	302
5399084	4638	3487	279
5399412	2275	2598	479
5399740	528	2451	427
5400068	101	3267	722
5400396	51	3274	875
5400724	-407	2687	770
5401052	-242	2425	345
5401380	308	2710	262
5401708	178	3058	246
5402036	1216	3347	368
5402364	206	3148	414
5402692	-51	2583	505
5403020	-474	2260	380
5403348	-1340	3051	289
5403676	-1498	3822	179
5404004	-2231	3485	158
5404332	-2044	2690	151
5404660	-2106	2452	134
5404988	-1956	2352	165
5405316	-1679	1891	227
5405644	-1289	1188	262
5405972	-1033	478	346
5406300	-784	302	294
5406628	-842	352	274
5406956	-1416	673	244
5407284	-1800	952	169
5407612	-2673	1314	93
5407940	-3182	1749	-110
5408268	-4915	2515	-691
5408596	-5097	3608	-1474
5408924	-6260	4568	-2061
5409252	-6853	4662	-2387
5409580	-8100	3979	-2390
5409908	-8817	3909	-2470
5410236	-9738	4427	-2551
5410564	-10426	4939	-2588
5410892	-10617	5163	-2655
5411220	-10316	5146	-2694
5411548	-9658	5146	-2581
5411876	-8440	4962	-2579
5412204	-7096	4832	-2381
5412532	-5606	4748	-2053
5412860	-3977	4552	-1613
5413188	-2422	4182	-1106
5413516	-1232	3699	-493
5413844	-4	3210	86
5414172	1041	2821	691
5414500	2314	2248	1241
5414828	3154	1379	1684
5415156	4035	756	1838
5415484	4529	884	1648
5415812	5003	2023	1274
5416140	5261	2557	957
5416468	5241	1791	787
5416796	5083	762	556
5417124	4486	1057	467
5417452	3783	1733	429
5417780	3033	1751	565
5418108	2173	1257	713
5418436	1829	1057	668
5418764	1634	1571	387
5419092	1580	2030	7
5419420	1649	2147	-150
5419748	1684	2189	-157
5420076	1355	2134	-260
5420404	813	1986	-225
5420732	418	1990	-238
5421060	-108	2323	-279
5421388	-605	2689	-342
5421716	-1088	2839	-405
5422044	-1686	2876	-431
5422372	-2013	2721	-393
5422700	-1854	2595	-345
5423028	-1858	2711	-301
5423356	-1895	2757	-233
5423684	-1690	2568	-262
5424012	-1721	2366	-256
5424340	-1785	2339	-171
5424668	-1908	2375	-45
5424996	-1999	2219	65
5425324	-2048	1900	205
5425652	-2016	1806	360
5425980	-1798	1886	515
5426308	-1698	1940	628
5426636	-1611	2101	724
5426964	-1573	2113	921
5427292	-1403	2047	987
5427620	-1307	2091	1014
5427948	-1135	2119	1076
5428276	-1186	2001	1219
5428604	-1314	1734	1256
5428932	-1356	1783	1268
5429260	-1195	1861	1318
5429588	-1380	1745	1440
5429916	-1263	1669	1528
5430244	-1042	1589	1611
5430572	-963	1504	1691
5430900	-864	1585	1723
5431228	-902	1711	1894
5431556	-766	1537	2025
5431884	-872	1319	2114
5432212	-921	1304	2224
5432540	-866	1376	2253
5432868	-777	1436	2187
5433196	-915	1631	2066
5433524	-1080	2176	1990
5433852	-1595	2600	2079
5434180	-2469	2510	2117
5434508	-3366	2081	2114
5434836	-3727	1952	2029
5435164	-4270	2195	1999
5435492	-4031	2595	1864
5435820	-4327	2592	2160
5436148	-4344	2230	2387
5436476	-4682	1985	2602
5436804	-4623	1885	2902
5437132	-4279	1833	3131
5437460	-4039	1619	3351
5437788	-3754	1411	3655
5438116	-3848	1427	4104
5438444	-3328	1395	4211
5438772	-3278	1180	4437
5439100	-2983	925	4638
5439428	-2602	1127	5058
5439756	-2299	1029	5619
5440084	-1817	455	5885
5440412	-1723	490	6241
5440740	-948	1409	6611
5441068	401	2303	6932
5441396	1659	2558	7402
5441724	2593	2442	7784
5442052	3542	2757	7844
5442380	3874	3070	7753
5442708	3002	3546	7480
5443036	2594	3776	7022
5443364	2320	3487	5666
5443692	1315	173	4257
5444020	8664	-2401	3170
5444348	3996	34	3130
5444676	2066	5491	2425
5445004	43	9164	1639
5445332	-1183	5230	482
5445660	-1023	-191	-553
5445988	1520	-3090	-1591
5446316	2240	-2415	-4041
5446644	2376	-639	-6476
5446972	2562	-418	-8412
5447300	1043	-1964	-9408
5447628	216	-4106	-9833
5447956	-472	-5705	-10158
5448284	-360	-6914	-10422
5448612	-378	-8044	-10700
5448940	-403	-9210	-10770
5449268	229	-9820	-10678
5449596	1021	-10572	-10667
5449924	1950	-11464	-10395
5450252	2913	-12332	-10010
5450580	3466	-12755	-9693
5450908	3702	-13490	-9266
5451236	4449	-14684	-9005
5451564	5270	-16259	-8713
5451892	5857	-17198	-8438
5452220	6290	-17642	-8157
5452548	6673	-18335	-7973
5452876	6597	-18985	-7880
5453204	6276	-19076	-7566
5453532	5955	-18621	-7470
5453860	6276	-17834	-7066
5454188	6246	-17089	-6490
5454516	6581	-16531	-6177
5454844	6345	-16252	-5418
5455172	6264	-15709	-5250
5455500	6137	-16165	-5665
5455828	6220	-17357	-4923
5456156	7189	-16477	-4864
5456484	7508	-14231	-4681
5456812	8313	-10448	-3226
5457140	8450	-8631	-2784
5457468	7744	-7060	-1983
5457796	7303	-5931	-1718
5458124	6193	-4163	-1165
5458452	5569	-2099	-668
5458780	5734	-1033	-208
5459108	5335	-504	244
5459436	5275	1279	544
5459764	5042	2391	897
5460092	4171	3563	1164
5460420	4337	4342	1340
5460748	3094	5255	1515
5461076	2399	7267	1532
5461404	1863	8634	1690
5461732	1444	7857	2372
5462060	-511	6099	2941
5462388	-822	5853	2980
5462716	-2087	6603	2570
5463044	-1888	6820	2064
5463372	-1476	6357	1725
5463700	-1300	6277	1406
5464028	245	6361	1059
5464356	842	5125	1030
5464684	1005	4015	1102
5465012	1337	3974	1014
5465340	730	4346	554
5465668	425	4583	253
5465996	279	4414	199
5466324	197	4202	138
5466652	204	3644	246
5466980	126	3699	351
5467308	343	3913	190
5467636	417	3352	422
5467964	869	2207	673
5468292	766	2434	675
5468620	968	3016	563
5468948	938	3019	302
5469276	949	2767	248
5469604	958	2695	132
5469932	976	2496	120
5470260	1270	2070	285
5470588	1824	1854	356
5470916	2155	2096	244
5471244	2437	2548	114
5471572	2323	2701	-40
5471900	1746	2668	-173
5472228	1378	2755	-227
5472556	1360	2553	-296
5472884	1198	2517	-327
5473212	1198	2796	-365
5473540	999	3146	-413
5473868	1257	3493	-380
5474196	518	3449	-382
5474524	800	3415	-357
5474852	1136	3110	-315
5475180	1333	2942	-132
5475508	1380	2885	-84
5475836	1780	2881	-102
5476164	2264	2382	0
5476492	2875	2262	-10
5476820	3295	2540	-138
5477148	3233	2621	-273
5477476	3321	2532	-366
5477804	3423	2328	-445
5478132	3358	2094	-497
5478460	3232	1948	-495
5478788	3285	1911	-487
5479116	3352	1754	-512
5479444	3391	1668	-470
5479772	3623	1477	-413
5480100	3838	978	-190
5480428	4019	681	29
5480756	4279	706	361
5481084	4447	482	621
5481412	3897	449	846
5481740	3873	345	1159
5482068	3368	-228	1338
5482396	3071	-613	1540
5482724	3391	-759	1705
5483052	3903	-832	1860
5483380	4514	-878	1967
5483708	5138	-1103	2106
5484036	5580	-1450	2132
5484364	5729	-1717	2279
5484692	6337	-1893	2373
5485020	6359	-2019	2472
5485348	7104	-2373	2600
5485676	7238	-2552	2587
5486004	7383	-2613	2722
5486332	7791	-2878	3051
5486660	7897	-3823	3657
5486988	9059	-4681	4209
5487316	9625	-5137	4715
5487644	10911	-6380	5112
5487972	12392	-7532	5346
5488300	13695	-7588	5409
5488628	14766	-7069	5465
5488956	14617	-7003	5764
5489284	14614	-7663	6056
5489612	13945	-8412	6351
5489940	13839	-9024	6564
5490268	13771	-9437	6847
5490596	13810	-9808	7014
5490924	14079	-10279	6915
5491252	15140	-10842	6941
5491580	16387	-11531	6968
5491908	17313	-12212	6903
5492236	18725	-12684	7256
5492564	18662	-13002	7310
5492892	18716	-12690	7269
5493220	18411	-11992	7276
5493548	17923	-11581	7271
5493876	17612	-11583	7344
5494204	17253	-11728	7450
5494532	16713	-11868	7612
5494860	16116	-11638	7688
5495188	15576	-10869	7578
5495516	15047	-9856	7520
5495844	14304	-9184	7527
5496172	13437	-8412	7507
5496500	12637	-7629	7629
5496828	11768	-6886	7853
5497156	10943	-6135	8116
5497484	9662	-5296	8756
5497812	9056	-5196	9568
5498140	8990	-5182	10447
5498468	9715	-4584	11134
5498796	11963	-4138	11272
5499124	11889	-2719	10743
5499452	5270	630	9908
5499780	10158	-599	8800
5500108	14236	-5334	7501
5500436	9547	-7392	5883
5500764	12738	-4911	4121
5501092	10970	-2749	2773
5501420	8244	-2636	2161
5501748	9071	-6107	1185
5502076	8234	-9368	-149
5502404	7453	-9947	-1682
5502732	7394	-8874	-3156
5503060	6427	-8598	-4338
5503388	5633	-9833	-5257
5503716	5346	-11675	-5971
5504044	4857	-13123	-6462
5504372	4499	-14064	-6895
5504700	4707	-14536	-7197
5505028	5062	-14865	-7488
5505356	5662	-15593	-7702
5505684	5783	-16020	-7707
5506012	6131	-15502	-7688
5506340	7179	-14962	-7407
5506668	8354	-15677	-7236
5506996	9192	-16996	-7071
5507324	9614	-18092	-7044
5507652	9455	-18532	-7009
5507980	9763	-18361	-7319
5508308	9705	-18338	-7556
5508636	9358	-18400	-7623
5508964	8146	-18093	-7442
5509292	6804	-17677	-7051
5509620	6155	-16621	-6411
5509948	5317	-15564	-5796
5510276	4607	-15245	-5031
5510604	4084	-15304	-3562
5510932	3400	-14675	-2952
5511260	2069	-13611	-2622
5511588	2004	-11766	-2294
5511916	3348	-9713	-2588
5512244	3775	-8086	-2228
5512572	5020	-6586	-1428
5512900	5944	-5154	-1028
5513228	6702	-3692	-477
5513556	7011	-2490	95
5513884	6733	-1175	897
5514212	6038	329	1516
5514540	5462	1528	1950
5514868	5287	2821	2205
5515196	5013	4630	2462
5515524	4666	6591	2472
5515852	4527	7505	2320
5516180	3087	6664	2176
5516508	1651	5822	1781
5516836	1527	6220	1529
5517164	798	6940	1534
5517492	56	7064	1735
5517820	-409	6322	1288
5518148	402	6135	655
5518476	1911	5094	1200
5518804	3268	2351	2392
5519132	3195	1892	1832
5519460	4639	4416	1687
5519788	5148	5846	1279
5520116	3687	5126	1002
5520444	986	3284	939
5520772	1238	2265	719
5521100	224	2376	907
5521428	535	2891	917
5521756	1281	3422	536
5522084	1622	4352	97
5522412	2073	4556	69
5522740	2255	2638	573
5523068	2061	396	994
5523396	1710	950	1005
5523724	1344	2368	915
5524052	521	2587	718
5524380	768	1590	592
5524708	1095	824	637
5525036	1235	523	551
5525364	1919	483	430
5525692	2299	512	340
5526020	2068	210	333
5526348	1830	-136	349
5526676	1309	-336	351
5527004	1069	-397	293
5527332	1287	-519	247
5527660	1505	-687	230
5527988	1278	-938	153
5528316	1381	-1349	208
5528644	1219	-1920	204
5528972	1379	-1983	45
5529300	1377	-1666	-34
5529628	1268	-1636	-165
5529956	957	-1585	-360
5530284	1011	-1532	-351
5530612	33	-1889	-246
5530940	-588	-2216	-285
5531268	-1000	-2203	-297
5531596	-1346	-2246	-373
5531924	-1419	-2300	-594
5532252	-1282	-2108	-861
5532580	-1007	-2088	-1105
5532908	-1010	-2361	-1263
5533236	-1184	-2740	-1340
5533564	-1367	-3021	-1403
5533892	-1834	-3259	-1501
5534220	-2168	-3251	-1698
5534548	-2468	-3303	-1981
5534876	-2836	-3463	-2187
5535204	-3162	-3748	-2510
5535532	-3853	-3835	-2825
5535860	-4455	-3780	-3229
5536188	-5208	-3678	-3562
5536516	-6261	-3583	-3950
5536844	-6194	-3523	-4447
5537172	-7566	-2530	-4266
5537500	-7923	-2242	-4516
5537828	-9624	-2849	-4595
5538156	-10622	-3303	-4463
5538484	-11433	-3102	-4035
5538812	-11344	-2541	-3455
5539140	-12120	-598	-3856
5539468	-11539	1765	-2803
5539796	-13384	4139	-377
5540124	-14949	4882	1128
5540452	-17129	5637	2553
5540780	-18049	8981	3967
5541108	-17415	12542	4790
5541436	-16360	14205	5727
5541764	-14771	13897	6958
5542092	-12952	12916	8177
5542420	-11661	12613	8995
5542748	-11204	12910	9137
5543076	-11196	13616	9547
5543404	-10923	14258	9344
5543732	-10450	14231	8725
5544060	-10938	13275	7990
5544388	-11103	12363	7687
5544716	-10734	10235	7967
5545044	-10509	9940	7795
5545372	-10059	10245	7018
5545700	-10332	9463	5909
5546028	-11066	8879	5084
5546356	-11400	9069	3412
5546684	-12878	9729	1922
5547012	-14012	9910	553
5547340	-16007	10411	-886
5547668	-18964	10353	-1870
5547996	-20067	9933	-2470
5548324	-20351	9503	-2709
5548652	-20120	8945	-1289
5548980	-19831	8814	-594
5549308	-17609	7876	-54
5549636	-15105	7437	-143
5549964	-12401	7580	-391
5550292	-9276	7553	-964
5550620	-5828	7362	-1695
5550948	-3550	7041	-2367
5551276	-2045	5675	-2592
5551604	-771	3864	-2221
5551932	684	2142	-1734
5552260	151	762	-867
5552588	-113	983	116
5552916	-357	2424	614
5553244	561	3715	292
5553572	1932	3115	-267
5553900	3554	1729	-989
5554228	4367	847	-912
5554556	3827	1681	-350
5554884	2281	2203	431
5555212	199	1888	441
5555540	-1179	1068	135
5555868	-1210	475	-13
5556196	-601	770	60
5556524	-138	1455	316
5556852	99	1586	455
5557180	63	963	535
5557508	150	495	540
5557836	-17	622	561
5558164	-224	994	606
5558492	-733	1268	779
5558820	-1056	1062	914
5559148	-1691	844	1008
5559476	-1762	895	1083
5559804	-1760	1253	1163
5560132	-1680	1648	1190
5560460	-1509	1846	1152
5560788	-1577	1789	1177
5561116	-1691	1715	1229
5561444	-1860	1815	1262
5561772	-2298	1940	1342
5562100	-2868	2001	1390
5562428	-3254	2006	1467
5562756	-3676	1901	1396
5563084	-3808	2028	1289
5563412	-4374	2652	1128
5563740	-4637	2906	1151
5564068	-4880	3357	1035
5564396	-5513	3872	911
5564724	-6217	3739	1087
5565052	-6619	3721	1137
5565380	-7140	4073	1142
5565708	-7342	4074	1391
5566036	-7236	3738	1697
5566364	-7162	3833	1994
5566692	-7728	4372	2314
5567020	-8576	4589	2505
5567348	-9943	4503	2325
5567676	-11674	5218	1704
5568004	-13580	5996	1005
5568332	-15474	5563	566
5568660	-17275	4324	408
5568988	-19088	3469	434
5569316	-20536	3276	604
5569644	-21080	2162	936
5569972	-20672	1054	1600
5570300	-19676	500	1568
5570628	-18040	98	1590
5570956	-15435	-409	1357
5571284	-11225	-2124	1018
5571612	-6306	-3807	1076
5571940	-1420	-3817	1268
5572268	4093	-3150	1521
5572596	7372	-3195	1570
5572924	9145	-2893	1665
5573252	8301	-2147	1434
5573580	5296	-2128	1579
5573908	625	-2690	1234
5574236	-1890	-2758	1018
5574564	-1973	-2414	1208
5574892	-420	-3097	803
5575220	1206	-3429	695
5575548	2157	-3187	558
5575876	1882	-2967	462
5576204	868	-2484	485
5576532	-185	-1798	493
5576860	-534	-1033	524
5577188	-229	-1038	398
5577516	224	-1274	325
5577844	819	-1437	345
5578172	767	-1120	365
5578500	161	-478	315
5578828	646	-391	149
5579156	399	-472	129
5579484	413	-350	128
5579812	411	-189	105
5580140	574	-246	65
5580468	587	-313	-4
5580796	524	-159	-18
5581124	658	65	36
5581452	738	76	38
5581780	878	-168	55
5582108	1447	-226	48
5582436	1831	-212	55
5582764	2424	-348	70
5583092	2778	-557	90
5583420	3291	-636	47
5583748	3503	-616	100
5584076	3737	-744	39
5584404	3805	-809	-55
5584732	3786	-838	-119
5585060	3897	-699	-118
5585388	3995	-517	-191
5585716	4252	-713	-260
5586044	4351	-777	-299
5586372	4399	-721	-402
5586700	4097	-643	-569
5587028	3904	-656	-739
5587356	3837	-561	-870
5587684	3774	-442	-987
5588012	3797	-266	-1167
5588340	3853	-116	-1319
5588668	3734	31	-1513
5588996	3346	-43	-1800
5589324	2589	332	-2054
5589652	1447	1440	-2194
5589980	572	2577	-2171
5590308	650	2829	-1976
5590636	583	1753	-1502
5590964	991	80	-1723
5591292	1845	-409	-2212
5591620	3022	796	-2407
5591948	3280	2009	-2292
5592276	2844	2278	-2309
5592604	1576	2375	-2400
5592932	790	2146	-2275
5593260	0	1252	-1871
5593588	235	201	-1449
5593916	867	-96	-1326
5594244	2109	398	-1306
5594572	3260	734	-1020
5594900	3359	706	-852
5595228	2908	549	-594
5595556	1960	204	-418
5595884	1242	-207	-377
5596212	514	-480	-263
5596540	171	-476	-139
5596868	311	-317	-121
5597196	897	-275	-117
5597524	1402	-489	-121
5597852	1248	-561	-78
5598180	1230	-805	89
5598508	1363	-962	235
5598836	1574	-1176	333
5599164	2152	-1540	380
5599492	2398	-1523	433
5599820	2348	-1275	530
5600148	2091	-1293	607
5600476	1743	-1315	653
5600804	1519	-1296	666
5601132	1113	-1204	755
5601460	847	-1209	977
5601788	719	-1658	1228
5602116	1052	-2072	1315
5602444	1582	-2060	1431
5602772	1643	-1969	1616
5603100	1659	-2202	1855
5603428	1618	-2616	2085
5603756	1760	-2904	2309
5604084	2046	-3111	2569
5604412	2547	-3300	2868
5604740	2948	-3341	3236
5605068	3038	-3571	3718
5605396	3225	-3786	4206
5605724	3716	-3508	4780
5606052	4005	-2837	5281
5606380	4026	-2480	5755
5606708	3994	-2388	6281
5607036	3597	-2015	6577
5607364	3102	-1056	6546
5607692	3499	-359	6754
5608020	4226	-114	7097
5608348	5119	-392	7690
5608676	8957	-468	7837
5609004	6495	1850	6866
5609332	8537	3082	5024
5609660	13757	-1594	3768
5609988	14413	-6164	2714
5610316	12104	-3521	501
5610644	16504	3645	326
5610972	11164	6769	731
5611300	11349	1489	-13
5611628	13497	-4849	-2194
5611956	11552	-5227	-5274
5612284	11692	-2045	-7747
5612612	10255	1083	-9929
5612940	7811	-504	-10974
5613268	5547	-5404	-11669
5613596	2162	-9236	-12358
5613924	2224	-11031	-13005
5614252	1837	-10994	-13231
5614580	1792	-11133	-13046
5614908	2095	-12711	-12592
5615236	3073	-15912	-12011
5615564	4562	-18074	-11584
5615892	6708	-18500	-11413
5616220	7978	-18643	-11503
5616548	8522	-19773	-11743
5616876	9784	-21365	-12046
5617204	9616	-22902	-12527
5617532	11166	-23465	-12396
5617860	10885	-22355	-11630
5618188	8741	-20268	-10342
5618516	7421	-16980	-8398
5618844	5121	-14905	-6376
5619172	3655	-15692	-4916
5619500	2117	-16270	-4781
5619828	2710	-14321	-3101
5620156	2418	-11989	-2561
5620484	3778	-8690	-1514
5620812	3560	-6131	-342
5621140	5214	-3018	949
5621468	6513	-2116	1861
5621796	7977	-286	2941
5622124	8060	2619	4309
5622452	7352	4828	5239
5622780	6711	5535	5465
5623108	7080	5215	5071
5623436	5610	5690	4809
5623764	5251	5195	4109
5624092	4210	3891	3473
5624420	3335	2972	2929
5624748	3482	3449	2413
5625076	3556	4625	1899
5625404	3396	5995	1257
5625732	4146	8882	504
5626060	4158	8973	720
5626388	2865	12	3201
5626716	2732	-3583	3425
5627044	5744	-269	2684
5627372	1974	3371	1900
5627700	-555	5502	1426
5628028	589	5794	615
5628356	619	4202	135
5628684	1118	1977	-20
5629012	1601	1288	-157
5629340	1649	2210	202
5629668	1789	2372	366
5629996	1365	1440	314
5630324	836	802	471
5630652	-173	1814	261
5630980	-268	3145	-76
5631308	-996	3276	-216
5631636	-664	2502	-282
5631964	-1294	2457	-262
5632292	-1134	2871	-296
5632620	-1698	3161	-239
5632948	-2469	2489	-67
5633276	-2879	2619	-165
5633604	-2769	2763	-165
5633932	-3315	2735	-277
5634260	-3659	2945	-365
5634588	-3745	2950	-386
5634916	-4278	2923	-244
5635244	-4312	2931	-130
5635572	-4662	2846	24
5635900	-5159	2893	82
5636228	-5629	2816	80
5636556	-6494	3141	-115
5636884	-7213	4056	-789
5637212	-6799	4936	-1525
5637540	-7182	5661	-2036
5637868	-7291	6225	-1909
5638196	-7228	5854	-1564
5638524	-7002	5456	-1171
5638852	-6910	5499	-818
5639180	-6153	5794	-501
5639508	-5111	5716	-323
5639836	-3655	5341	-137
5640164	-2216	4680	257
5640492	-977	4163	692
5640820	134	3356	1159
5641148	1325	2240	1596
5641476	2411	1368	1974
5641804	3636	634	2476
5642132	4655	-129	2926
5642460	5305	-250	2755
5642788	5952	1412	2087
5643116	6626	3367	1582
5643444	6794	3327	1118
5643772	6210	2464	691
5644100	5518	1294	417
5644428	3742	857	326
5644756	1995	1736	449
5645084	198	2509	765
5645412	-427	1855	852
5645740	-278	993	514
5646068	411	1099	74
5646396	950	1699	-341
5646724	1559	2527	-511
5647052	1383	2905	-552
5647380	1003	2632	-637
5647708	128	2536	-581
5648036	-580	2738	-478
5648364	-1474	2635	-295
5648692	-1751	2312	-25
5649020	-2191	2337	104
5649348	-2276	2700	230
5649676	-2254	2608	343
5650004	-2340	2776	305
5650332	-2568	2956	404
5650660	-2729	2741	512
5650988	-2850	2552	594
5651316	-2977	2625	677
5651644	-3088	2862	784
5651972	-3273	2896	930
5652300	-3568	2698	1026
5652628	-3986	2935	1151
5652956	-4297	3257	1194
5653284	-4540	3250	1234
5653612	-4502	3102	1258
5653940	-4599	3038	1351
5654268	-4597	2997	1504
5654596	-4681	3007	1485
5654924	-4852	2628	1649
5655252	-4894	2495	1792
5655580	-4809	2370	1975
5655908	-4708	2120	2151
5656236	-4539	1678	2298
5656564	-4345	840	2413
5656892	-4067	285	2428
5657220	-3861	451	2505
5657548	-3807	515	2536
5657876	-3844	376	2762
5658204	-3801	362	2772
5658532	-3736	860	2794
5658860	-4104	1544	2858
5659188	-5176	2084	3224
5659516	-6296	2690	3696
5659844	-6987	2838	4466
5660172	-7384	2088	5274
5660500	-6582	1242	5841
5660828	-5395	1113	6350
5661156	-4376	1341	6985
5661484	-3406	1552	7666
5661812	-2458	1526	8287
5662140	-883	898	8899
5662468	954	509	9256
5662796	1678	1063	9451
5663124	2609	2220	9563
5663452	3649	3440	9395
5663780	3963	4859	9290
5664108	2945	4328	9086
5664436	1021	2604	8067
5664764	2322	4468	6019
5665092	7694	6169	4360
5665420	9814	4991	4246
5665748	4060	3189	4034
5666076	4363	3141	2112
5666404	1753	2784	-30
5666732	-58	3123	-2001
5667060	2805	-3747	-6848
5667388	3667	-3780	-9322
5667716	3577	-1546	-11214
5668044	3482	-944	-12386
5668372	2564	-3550	-13237
5668700	1940	-7643	-13819
5669028	2392	-11186	-14924
5669356	2840	-13268	-15814
5669684	3320	-13638	-15883
5670012	4021	-13630	-15971
5670340	4915	-14183	-15737
5670668	5369	-15229	-15432
5670996	6199	-16705	-15142
5671324	7520	-18264	-14793
5671652	7657	-18970	-14620
5671980	8127	-18824	-14411
5672308	8223	-19723	-13981
5672636	8407	-21333	-13939
5672964	8030	-21285	-13634
5673292	7627	-19636	-13047
5673620	7303	-17751	-12590
5673948	8374	-16644	-11190
5674276	8296	-16913	-9144
5674604	8271	-17155	-7380
5674932	8706	-16433	-6133
5675260	7999	-14833	-5853
5675588	8791	-13070	-4400
5675916	9464	-10428	-3154
5676244	8948	-7150	-2297
5676572	9530	-5104	-389
5676900	9291	-4540	1373
5677228	8108	-2142	2585
5677556	8664	818	4195
5677884	8950	4244	6236
5678212	9384	8775	7846
5678540	11191	10786	9010
5678868	8214	8496	8884
5679196	5775	7775	5305
5679524	5412	8544	2729
5679852	1729	6484	2863
5680180	1069	1120	4216
5680508	1875	-3764	3980
5680836	6992	6808	1914
5681164	3249	17295	2887
5681492	6457	14700	4585
5681820	6270	4990	3704
5682148	2118	-1239	3765
5682476	5988	1051	3033
5682804	3060	4942	2204
5683132	4213	6299	2247
5683460	3399	5361	1941
5683788	2371	4274	1847
5684116	4402	2787	1855
5684444	4676	3304	1867
5684772	4196	3286	1840
5685100	4518	2803	2424
5685428	4341	2183	2968
5685756	4106	1985	3179
5686084	4023	1200	3319
5686412	3512	338	3326
5686740	3449	1164	2840
5687068	3043	2385	2431
5687396	2870	2897	1834
5687724	2521	2421	1084
5688052	2150	3163	714
5688380	1183	3822	327
5688708	595	3590	437
5689036	285	2266	757
5689364	408	1607	897
5689692	429	1310	716
5690020	462	1955	298
5690348	628	2308	243
5690676	801	2231	355
5691004	1107	1101	431
5691332	1524	673	531
5691660	1417	485	599
5691988	1020	497	536
5692316	678	1162	332
5692644	151	1050	409
5692972	-164	460	451
5693300	-308	231	367
5693628	-277	382	261
5693956	-25	-262	182
5694284	73	-470	-98
5694612	116	472	-189
5694940	-5	562	-211
5695268	-31	-230	-254
5695596	-328	-144	-265
5695924	-599	389	-327
5696252	-924	61	-293
5696580	-1043	-437	-238
5696908	-1080	-272	-304
5697236	-1021	155	-374
5697564	-918	273	-458
5697892	-746	149	-528
5698220	-596	339	-641
5698548	-489	647	-648
5698876	-465	610	-689
5699204	-610	273	-829
5699532	-839	358	-774
5699860	-829	-383	-464
5700188	-831	-183	-453
5700516	-796	216	-470
5700844	-745	-62	-474
5701172	-647	-302	-520
5701500	-592	53	-546
5701828	-545	120	-464
5702156	-518	-207	-401
5702484	-490	-214	-393
5702812	-449	-9	-449
5703140	-420	-104	-446
5703468	-358	-272	-454
5703796	-173	-172	-332
5704124	105	-268	-289
5704452	279	-547	-262
5704780	304	-472	-274
5705108	346	-272	-175
5705436	287	-343	-106
5705764	359	-369	-76
5706092	391	-371	-111
5706420	396	-287	-115
5706748	323	-254	-302
5707076	50	-609	-174
5707404	212	-470	-59
5707732	389	-483	-107
5708060	407	-511	-201
5708388	698	-406	-201
5708716	1032	-243	-130
5709044	1390	-443	-18
5709372	1890	-795	123
5709700	1851	-511	156
5710028	2006	-470	197
5710356	2232	-497	251
5710684	2197	-372	332
5711012	2301	-356	463
5711340	2406	-288	630
5711668	2488	-504	814
5711996	2662	-614	958
5712324	2699	-499	1061
5712652	3123	-611	1129
5712980	3236	-564	1215
5713308	3456	-356	1282
5713636	3765	-555	1340
5713964	3820	-811	1436
5714292	3992	-722	1537
5714620	4056	-704	1634
5714948	4264	-835	1769
5715276	4360	-962	1871
5715604	4473	-1024	1930
5715932	4901	-1090	1916
5716260	5097	-1197	2065
5716588	5255	-1378	2110
5716916	5554	-1483	2148
5717244	5763	-1503	2236
5717572	6118	-1732	2247
5717900	6358	-1906	2183
5718228	6515	-1839	2095
5718556	6768	-1866	2128
5718884	6979	-2091	2075
5719212	7330	-2207	2076
5719540	7488	-2274	2065
5719868	7724	-2369	2152
5720196	7887	-2616	2166
5720524	8074	-2950	2140
5720852	8316	-3201	2135
5721180	8279	-3264	2068
5721508	8293	-3434	1991
5721836	8191	-3774	2027
5722164	8114	-3900	2033
5722492	7747	-3784	1949
5722820	7514	-3673	1869
5723148	7005	-3507	1667
5723476	6618	-3129	1468
5723804	6080	-2879	1204
5724132	5436	-2550	1048
5724460	4993	-2388	873
5724788	4316	-2285	579
5725116	3738	-2013	353
5725444	3274	-1554	104
5725772	2697	-1491	31
5726100	2508	-1692	-8
5726428	2186	-1588	156
5726756	2128	-1587	381
5727084	2253	-2225	627
5727412	2595	-2700	788
5727740	2884	-2571	873
5728068	3144	-2439	1007
5728396	4206	-2883	1182
5728724	4096	-3142	1143
5729052	4081	-2899	1277
5729380	4454	-2496	1320
5729708	3474	-2345	1324
5730036	3238	-2018	1347
5730364	2507	-2042	1414
5730692	1790	-2298	1544
5731020	1327	-3026	1741
5731348	1230	-3473	1821
5731676	909	-3162	1912
5732004	1126	-2793	1990
5732332	1368	-3019	2095
5732660	2116	-3356	2289
5732988	2756	-3866	2678
5733316	4823	-5127	3288
5733644	5209	-5000	3400
5733972	5335	-4936	3460
5734300	5019	-5214	3439
5734628	4733	-5212	3326
5734956	4153	-4623	3109
5735284	3419	-4024	2893
5735612	2886	-3988	2699
5735940	2369	-3682	2424
5736268	1772	-2989	2131
5736596	1103	-2380	1944
5736924	597	-2208	1778
5737252	169	-2207	1499
5737580	-363	-1948	1286
5737908	-689	-2041	1043
5738236	-1338	-2277	546
5738564	-1820	-1794	228
5738892	-2444	-812	8
5739220	-2988	-14	-204
5739548	-3419	357	-391
5739876	-3551	408	-504
5740204	-3530	657	-623
5740532	-3600	1022	-683
5740860	-3676	1163	-756
5741188	-3851	1218	-900
5741516	-3816	1073	-985
5741844	-3753	870	-1067
5742172	-3544	934	-1210
5742500	-3394	999	-1220
5742828	-3237	1020	-1203
5743156	-3093	1174	-1134
5743484	-2745	1167	-1000
5743812	-2307	837	-835
5744140	-1775	416	-673
5744468	-1243	175	-541
5744796	-755	164	-356
5745124	-401	140	-114
5745452	-95	-147	174
5745780	140	-523	411
5746108	208	-546	539
5746436	197	-741	687
5746764	-5	-814	785
5747092	-130	-357	853
5747420	-116	-71	906
5747748	-195	-583	986
5748076	-73	-1113	946
5748404	-43	-921	894
5748732	-48	-1000	889
5749060	-54	-1328	764
5749388	-68	-1260	633
5749716	-99	-894	434
5750044	-59	-670	248
5750372	-22	-779	189
5750700	88	-1228	257
5751028	28	-1851	321
5751356	170	-2306	409
5751684	437	-2678	409
5752012	726	-2887	369
5752340	1307	-2987	395
5752668	1644	-3065	291
5752996	1911	-2956	448
5753324	1607	-2697	623
5753652	1005	-3144	681
5753980	717	-4085	764
5754308	997	-4942	903
5754636	1648	-5547	964
5754964	2223	-5719	1100
5755292	2678	-5571	1305
5755620	3123	-6022	1461
5755948	3768	-6449	1632
5756276	4477	-6312	2161
5756604	5281	-6061	3010
5756932	6368	-6406	3848
5757260	7464	-7333	4492
5757588	8407	-7981	5448
5757916	9440	-8705	6364
5758244	10041	-10127	7626
5758572	10614	-10899	8241
5758900	10524	-10846	9151
5759228	11337	-10843	9309
5759556	11786	-11063	9352
5759884	12835	-11659	7974
5760212	12752	-10914	6692
5760540	14273	-10528	5305
5760868	18988	-9951	3539
5761196	18878	-5405	1912
5761524	19631	1024	1695
5761852	15488	4628	2232
5762180	16354	492	2048
5762508	16076	-5666	88
5762836	16680	-5609	-2341
5763164	15351	-905	-4111
5763492	14065	1232	-4431
5763820	13441	-42	-5032
5764148	12454	-2941	-5906
5764476	12052	-5811	-6632
5764804	12728	-7883	-7638
5765132	12783	-8681	-9001
5765460	12949	-8914	-9840
5765788	13846	-10382	-10547
5766116	14436	-12781	-11130
5766444	15314	-15103	-11579
5766772	15544	-16353	-11405
5767100	15224	-17113	-10733
5767428	14832	-18295	-10379
5767756	13931	-20260	-10222
5768084	12962	-22088	-10593
5768412	11432	-22941	-10542
5768740	10142	-23711	-10405
5769068	8979	-23615	-9779
5769396	8655	-22205	-9037
5769724	9348	-17627	-8970
5770052	10188	-14106	-8149
5770380	9355	-12777	-7415
5770708	10890	-13486	-6412
5771036	11908	-14449	-5180
5771364	10014	-14426	-3865
5771692	8506	-13399	-2977
5772020	8393	-12012	-1978
5772348	7669	-11094	-1227
5772676	7036	-10077	-670
5773004	5884	-7804	-187
5773332	6577	-4758	288
5773660	6606	-2497	1157
5773988	6320	-764	1471
5774316	5788	655	1089
5774644	4678	1561	1538
5774972	3194	2229	1979
5775300	2470	3998	2040
5775628	1818	6297	2594
5775956	1977	6695	3183
5776284	1611	5488	2815
5776612	-235	4843	2445
5776940	-143	4805	2097
5777268	-7	5379	1818
5777596	-241	6391	2055
5777924	380	7904	2995
5778252	909	6664	3608
5778580	1159	4115	4309
5778908	2568	2931	4420
5779236	3628	3358	4173
5779564	4630	4088	3681
5779892	4710	4274	3092
5780220	4395	4169	2745
5780548	4094	3938	2806
5780876	2751	2465	2673
5781204	2235	1588	2848
5781532	1830	2032	2817
5781860	1599	2756	2616
5782188	2630	2529	2145
5782516	2455	1985	1953
5782844	2135	1902	1722
5783172	1763	1717	1773
5783500	1946	1705	1521
5783828	1576	1615	1243
5784156	1795	1563	1072
5784484	1554	1144	1032
5784812	1396	1270	844
5785140	1900	1628	674
5785468	1073	1483	859
5785796	1377	1410	695
5786124	1006	1169	597
5786452	510	1463	458
5786780	482	1580	484
5787108	399	871	423
5787436	200	912	280
5787764	219	1263	179
5788092	79	1480	233
5788420	-91	1235	242
5788748	-238	1222	135
5789076	-565	1017	158
5789404	-616	855	57
5789732	-708	980	101
5790060	-732	918	45
5790388	-809	908	27
5790716	-629	1004	-9
5791044	-772	823	-89
5791372	-581	852	-26
5791700	-615	519	-46
5792028	-424	589	22
5792356	-302	578	115
5792684	-153	521	113
5793012	-239	500	108
5793340	-109	374	82
5793668	45	361	79
5793996	-187	425	187
5794324	-171	213	229
5794652	-157	-29	321
5794980	-147	90	362
5795308	-88	292	332
5795636	-12	206	291
5795964	-69	155	307
5796292	-64	103	337
5796620	-56	-37	369
5796948	-71	90	395
5797276	-105	-65	378
5797604	-119	-151	368
5797932	-87	-33	354
5798260	-65	-269	342
5798588	-45	-252	333
5798916	19	-97	269
5799244	44	-13	205
5799572	-35	40	177
5799900	-49	45	195
5800228	-121	-232	183
5800556	-137	-169	121
5800884	-124	138	67
5801212	-103	93	11
5801540	-117	147	-6
5801868	-177	220	24
5802196	-165	69	14
5802524	-157	298	-58
5802852	-87	241	-94
5803180	-93	207	-108
5803508	-186	249	-133
5803836	-248	237	-135
5804164	-266	203	-115
5804492	-322	265	-102
5804820	-347	377	-98
5805148	-411	336	-147
5805476	-409	554	-93
5805804	-533	706	-100
5806132	-691	807	-85
5806460	-769	1010	-128
5806788	-725	989	-14
5807116	-841	729	-83
5807444	-774	271	66
5807772	-670	-83	-5
5808100	-430	105	-62
5808428	-289	-201	-59
5808756	86	-465	-85
5809084	345	-305	-69
5809412	376	-476	-87
5809740	449	-618	-96
5810068	334	-403	-206
5810396	352	-350	-246
5810724	397	-840	-270
5811052	451	-1124	-309
5811380	471	-1261	-375
5811708	560	-1376	-382
5812036	686	-1531	-434
5812364	734	-1484	-551
5812692	748	-1322	-599
5813020	761	-1407	-585
5813348	544	-1700	-680
5813676	413	-1891	-738
5814004	394	-1990	-918
5814332	291	-2094	-1085
5814660	327	-2030	-1315
5814988	93	-1868	-1636
5815316	-206	-1799	-1887
5815644	-560	-2014	-1896
5815972	-954	-2358	-1964
5816300	-1078	-2542	-2141
5816628	-970	-2631	-2546
5816956	-834	-2751	-2781
5817284	-892	-2783	-3201
5817612	-1007	-2903	-3417
5817940	-1642	-3042	-3633
5818268	-2008	-3107	-4109
5818596	-2399	-2993	-4449
5818924	-2681	-3179	-4911
5819252	-2818	-3300	-5386
5819580	-2956	-3582	-6000
5819908	-3567	-3611	-6192
5820236	-4098	-3656	-6571
5820564	-4854	-3866	-7021
5820892	-5875	-3999	-7522
5821220	-6540	-4388	-7930
5821548	-7694	-4992	-8476
5821876	-8708	-4812	-8483
5822204	-10783	-3119	-9408
5822532	-12552	-2400	-10400
5822860	-14132	-3688	-10732
5823188	-16155	-4977	-9968
5823516	-16831	-4123	-8340
5823844	-17665	-1154	-5782
5824172	-17070	648	-2335
5824500	-15226	1692	52
5824828	-12890	3357	2785
5825156	-10316	4722	5382
5825484	-10220	8012	7825
5825812	-9443	10323	9045
5826140	-9956	10875	8813
5826468	-9202	11483	9125
5826796	-9724	12133	9255
5827124	-9835	10698	9673
5827452	-10184	9625	10669
5827780	-10105	9982	11413
5828108	-10546	10432	11471
5828436	-11262	9509	10949
5828764	-11525	7902	10518
5829092	-11475	6758	10118
5829420	-12399	7008	9374
5829748	-12588	8088	8311
5830076	-12485	8212	6715
5830404	-13229	7911	4853
5830732	-13702	7848	3390
5831060	-13535	8133	1508
5831388	-15437	8630	-453
5831716	-15045	8578	-1089
5832044	-15525	7970	-2174
5832372	-16335	7851	-2944
5832700	-16841	8212	-3562
5833028	-16592	8334	-4617
5833356	-17269	8350	-5999
5833684	-17317	9401	-7076
5834012	-17472	10565	-8668
5834340	-17297	10850	-9326
5834668	-17482	11254	-8893
5834996	-17227	11501	-8762
5835324	-16658	10485	-8423
5835652	-15640	7922	-7077
5835980	-13625	4518	-6243
5836308	-12318	2476	-4846
5836636	-9906	2834	-3434
5836964	-7260	2123	-2590
5837292	-4542	-164	-1606
5837620	124	7541	1458
5837948	3621	6752	3569
5838276	3624	3058	4498
5838604	6172	108	2463
5838932	6686	-262	2377
5839260	5781	1025	1621
5839588	4450	1777	549
5839916	-1014	3457	1029
5840244	-6276	5764	1013
5840572	-9030	5679	856
5840900	-8512	2878	941
5841228	-6651	-267	532
5841556	-3947	-161	368
5841884	-1926	3203	317
5842212	-934	5390	396
5842540	-878	4411	325
5842868	-1818	2805	243
5843196	-3367	2542	99
5843524	-4535	3034	131
5843852	-5169	3035	115
5844180	-5587	3087	-32
5844508	-5577	3520	-115
5844836	-5526	3784	-230
5845164	-5135	3356	-175
5845492	-5087	2760	-64
5845820	-4818	2446	142
5846148	-4871	2576	270
5846476	-5026	2840	164
5846804	-5058	3064	-22
5847132	-5304	3253	-219
5847460	-5448	3422	-237
5847788	-5931	3709	-80
5848116	-6465	3757	90
5848444	-6931	3677	229
5848772	-7467	3618	237
5849100	-7852	3549	314
5849428	-7988	3778	316
5849756	-8022	4059	297
5850084	-7884	4185	201
5850412	-7790	4240	200
5850740	-7775	4274	163
5851068	-7881	4343	74
5851396	-8117	4807	-138
5851724	-8578	5042	-262
5852052	-9066	4813	-444
5852380	-9366	4734	-666
5852708	-9960	5067	-849
5853036	-10537	5704	-1074
5853364	-11103	6173	-1339
5853692	-11620	6120	-1447
5854020	-12000	5853	-1554
5854348	-12087	5735	-1630
5854676	-12424	5764	-1889
5855004	-12793	6185	-2034
5855332	-13271	6468	-2318
5855660	-13506	6418	-2549
5855988	-13800	6133	-2736
5856316	-13899	5851	-3045
5856644	-13977	5897	-3314
5856972	-13984	5998	-3725
5857300	-13964	5948	-4102
5857628	-13780	5694	-4413
5857956	-13635	5399	-4667
5858284	-13316	4991	-4802
5858612	-13034	4436	-4997
5858940	-12544	4072	-5198
5859268	-12373	3729	-5320
5859596	-12277	3288	-5527
5859924	-12281	3305	-5608
5860252	-12130	3963	-5672
5860580	-12237	4265	-5295
5860908	-12197	3682	-4557
5861236	-11869	2393	-3913
5861564	-11653	1350	-3429
5861892	-11283	583	-3333
5862220	-9972	768	-3470
5862548	-8389	1445	-3611
5862876	-7665	1869	-3465
5863204	-6965	1725	-3335
5863532	-6562	1309	-3137
5863860	-6031	522	-2840
5864188	-5542	-107	-2533
5864516	-4756	-365	-2181
5864844	-4375	-1137	-1857
5865172	-3619	-1289	-1429
5865500	-3205	-1095	-1120
5865828	-2588	-1597	-853
5866156	-1751	-2194	-556
5866484	-1610	-2190	-330
5866812	-755	-1953	-43
5867140	-525	-2145	106
5867468	-339	-1811	211
5867796	-202	-1642	260
5868124	-111	-1593	256
5868452	43	-1434	253
5868780	249	-1544	302
5869108	460	-1517	300
5869436	724	-1415	238
5869764	783	-1350	264
5870092	1027	-1341	258
5870420	1096	-1315	286
5870748	1053	-1171	238
5871076	1185	-823	124
5871404	911	-305	-50
5871732	375	69	21
5872060	117	153	-65
5872388	-448	244	-84
5872716	-717	447	-69
5873044	-740	-33	-9
5873372	-461	176	-12
5873700	-118	276	-18
5874028	-32	348	-29
5874356	-151	328	136
5874684	-148	121	231
5875012	-117	84	231
5875340	-41	43	168
5875668	184	-195	120
5875996	210	-45	89
5876324	270	174	106
5876652	272	-268	132
5876980	456	-388	116
5877308	546	-146	68
5877636	678	-134	69
5877964	656	-220	84
5878292	557	-130	74
5878620	404	-107	43
5878948	358	-237	-7
5879276	254	-167	-6
5879604	177	-102	-9
5879932	147	-160	-46
5880260	164	109	-71
5880588	253	313	-69
5880916	335	-4	-68
5881244	378	-158	-94
5881572	441	-55	-84
5881900	547	-25	-36
5882228	648	-99	43
5882556	752	-100	114
5882884	920	-47	182
5883212	1117	-160	240
5883540	1308	-247	275
5883868	1558	-281	329
5884196	1740	-265	396
5884524	1914	-100	460
5884852	2017	-45	533
5885180	2164	-135	600
5885508	2226	-215	693
5885836	2468	-281	761
5886164	2791	-429	815
5886492	3209	-729	949
5886820	3662	-997	1144
5887148	4096	-1521	1435
5887476	4761	-2248	1851
5887804	5418	-2618	2395
5888132	5964	-2774	3028
5888460	6551	-3149	3591
5888788	7009	-3261	4012
5889116	7526	-3511	4367
5889444	8118	-4063	4565
5889772	8626	-4535	4538
5890100	9216	-4775	4330
5890428	9785	-5130	4136
5890756	10204	-5419	3891
5891084	10495	-5520	3732
5891412	10480	-5413	3665
5891740	10460	-5312	3634
5892068	10205	-5308	3549
5892396	9898	-5087	3301
5892724	9593	-4728	3162
5893052	9332	-4538	2902
5893380	9280	-4294	2670
5893708	9164	-3834	2449
5894036	8970	-3336	1977
5894364	8766	-2762	1500
5894692	8366	-2231	961
5895020	8025	-1663	239
5895348	7705	-1158	-390
5895676	7295	-799	-1017
5896004	6719	-520	-1564
5896332	6118	-451	-2064
5896660	5394	-363	-2496
5896988	4388	49	-2922
5897316	3289	535	-3320
5897644	2046	1019	-3559
5897972	1169	1122	-3816
5898300	631	767	-3912
5898628	760	541	-4051
5898956	823	733	-4058
5899284	949	871	-4210
5899612	1453	751	-4378
5899940	1917	994	-4628
5900268	2203	1542	-5025
5900596	2169	2051	-5487
5900924	1975	2739	-5935
5901252	1796	3754	-5875
5901580	1554	4140	-5340
5901908	913	2560	-3832
5902236	15	-804	-2570
5902564	278	-4218	-2043
5902892	896	-2898	-1858
5903220	1517	807	-2912
5903548	1204	3633	-4087
5903876	1539	3856	-3936
5904204	1126	1980	-3416
5904532	458	-114	-3004
5904860	211	-691	-2825
5905188	105	511	-2839
5905516	344	1352	-2810
5905844	138	924	-2603
5906172	-107	79	-2351
5906500	-82	-252	-2200
5906828	169	181	-2115
5907156	482	590	-2060
5907484	765	331	-2000
5907812	843	12	-1967
5908140	827	-146	-1774
5908468	844	62	-1788
5908796	862	138	-1714
5909124	805	-103	-1609
5909452	717	-276	-1554
5909780	852	-227	-1492
5910108	1050	-369	-1472
5910436	1292	-484	-1417
5910764	1572	-413	-1347
5911092	1656	-610	-1302
5911420	1937	-677	-1257
5911748	2011	-585	-1132
5912076	1928	-790	-1024
5912404	1984	-1046	-865
5912732	1965	-1180	-746
5913060	2041	-1212	-677
5913388	2154	-1092	-666
5913716	2214	-1145	-640
5914044	2219	-1243	-602
5914372	2348	-1187	-540
5914700	2325	-1081	-480
5915028	2333	-1192	-434
5915356	2395	-1460	-410
5915684	2735	-1943	-376
5916012	2698	-1937	-392
5916340	3534	-1934	-359
5916668	3158	-1874	-288
5916996	3696	-2085	-262
5917324	2835	-2020	-84
5917652	2884	-1593	97
5917980	2928	-1636	228
5918308	2577	-1928	113
5918636	2749	-1926	149
5918964	2593	-1796	160
5919292	2734	-1953	254
5919620	2775	-2525	347
5919948	2952	-2813	410
5920276	3352	-2704	464
5920604	3446	-2448	449
5920932	3644	-2571	423
5921260	3655	-2675	350
5921588	3715	-2621	314
5921916	3719	-2571	332
5922244	3745	-2668	401
5922572	3659	-2825	403
5922900	3563	-2898	459
5923228	3801	-2960	515
5923556	3936	-3068	583
5923884	4223	-3194	617
5924212	4455	-3255	549
5924540	4950	-3382	390
5924868	5472	-3431	337
5925196	6029	-3558	412
5925524	6536	-3479	502
5925852	6645	-3360	659
5926180	6778	-3545	763
5926508	7024	-3911	762
5926836	7194	-3940	805
5927164	7212	-4077	839
5927492	7422	-4405	893
5927820	7254	-4397	968
5928148	7417	-4384	1085
5928476	7775	-4278	1205
5928804	8118	-4258	1328
5929132	8748	-4314	1364
5929460	9097	-4177	1361
5929788	9476	-4145	1356
5930116	9757	-4388	1472
5930444	9756	-4417	1559
5930772	9719	-4671	1672
5931100	9972	-4866	1786
5931428	10146	-4518	1824
5931756	10153	-4280	1957
5932084	10499	-4337	2013
5932412	10612	-4524	2079
5932740	11009	-4756	2107
5933068	11428	-4871	2090
5933396	11896	-4822	2133
5933724	12416	-4986	2296
5934052	13077	-5066	2477
5934380	13583	-5275	2723
5934708	13923	-5482	2897
5935036	14277	-5622	3137
5935364	14474	-5707	3352
5935692	14518	-5971	3586
5936020	14277	-5617	3799
5936348	13353	-4676	3803
5936676	12395	-4009	3977
5937004	11609	-4792	4241
5937332	11410	-6663	4575
5937660	11226	-7438	4607
5937988	11449	-7125	4548
5938316	12409	-6273	4774
5938644	14201	-6178	4454
5938972	16289	-6663	4218
5939300	17770	-6800	4988
5939628	17946	-6282	5224
5939956	16941	-5667	5322
5940284	15825	-6422	5136
5940612	15122	-6599	4777
5940940	14360	-5791	4096
5941268	13783	-5053	3397
5941596	12909	-4789	2601
5941924	12122	-4549	2336
5942252	11009	-4301	2246
5942580	10203	-3840	1890
5942908	9373	-3277	1664
5943236	8468	-2548	1469
5943564	6602	-1411	1077
5943892	5154	-473	744
5944220	3434	-44	220
5944548	1743	286	-295
5944876	296	1040	-736
5945204	-1092	1549	-1140
5945532	-2329	1388	-1377
5945860	-3396	1564	-1505
5946188	-4667	2067	-1531
5946516	-5390	2419	-1467
5946844	-5866	2565	-1492
5947172	-5596	2611	-768
5947500	-4184	1655	336
5947828	-2793	31	688
5948156	-1409	-777	731
5948484	-215	644	806
5948812	-175	2827	137
5949140	-1033	4126	-134
5949468	-2710	2828	-538
5949796	-3639	1602	-875
5950124	-3638	731	-589
5950452	-2641	1024	-732
5950780	-1523	1407	-300
5951108	-966	1359	-164
5951436	-561	814	-163
5951764	-499	889	-92
5952092	-677	1402	-113
5952420	-1037	1136	-138
5952748	-1277	522	-175
5953076	-1288	357	-94
5953404	-1126	794	-88
5953732	-982	1052	-76
5954060	-918	887	-96
5954388	-897	803	-135
5954716	-1008	872	-153
5955044	-1140	1008	-202
5955372	-1297	1125	-165
5955700	-1302	1145	-134
5956028	-1226	1020	-116
5956356	-1086	738	-137
5956684	-943	546	-90
5957012	-864	651	-82
5957340	-558	681	24
5957668	-596	496	37
5957996	-342	330	74
5958324	-240	322	74
5958652	-221	386	9
5958980	-366	444	-36
5959308	-504	469	-72
5959636	-671	468	-100
5959964	-749	387	-129
5960292	-795	328	-134
5960620	-644	367	-160
5960948	-545	433	-173
5961276	-476	358	-210
5961604	-395	293	-221
5961932	-373	339	-200
5962260	-533	364	-213
5962588	-680	308	-198
5962916	-694	243	-192
5963244	-656	294	-158
5963572	-541	240	-155
5963900	-516	275	-149
5964228	-365	289	-155
5964556	-393	333	-166
5964884	-317	361	-118
5965212	-453	354	-136
5965540	-517	294	-150
5965868	-635	269	-152
5966196	-551	290	-130
5966524	-419	309	-89
5966852	-448	297	-89
5967180	-334	367	-85
5967508	-308	327	-55
5967836	-384	323	-82
5968164	-465	317	-104
5968492	-462	306	-114
5968820	-487	367	-84
5969148	-559	367	-69
5969476	-476	271	-37
5969804	-537	245	-29
5970132	-328	366	-20
5970460	-300	358	-49
5970788	-270	345	-55
5971116	-280	308	-80
5971444	-379	218	-79
5971772	-474	306	-73
5972100	-362	279	-54
5972428	-270	102	-26
5972756	-173	42	-20
5973084	-86	106	-65
5973412	0	164	-44
5973740	98	103	-63
5974068	-91	118	-89
5974396	-61	207	-68
5974724	-125	215	-79
5975052	-253	203	-57
5975380	-191	80	-68
5975708	-235	60	-83
5976036	-36	115	-51
5976364	-50	145	-130
5976692	10	88	-176
5977020	23	111	-174
5977348	-99	130	-174
5977676	-145	57	-147
5978004	-202	-14	-130
5978332	-73	-76	-86
5978660	107	-2	-84
5978988	149	-34	-88
5979316	215	-42	-54
5979644	107	28	-36
5979972	68	5	-36
5980300	45	-64	-29
5980628	41	-78	-45
5980956	21	-29	-38
5981284	97	-46	-9
5981612	88	-19	-8
5981940	153	-12	-29
5982268	164	27	-37
5982596	201	91	-37
5982924	87	79	-62
5983252	21	62	-45
5983580	-60	100	-40
5983908	-47	119	-54
5984236	-32	147	-54
5984564	21	238	-79
5984892	81	389	-127
5985220	40	332	-149
5985548	-59	198	-112
5985876	-178	-128	-89
5986204	421	-734	-111
5986532	296	-787	-165
5986860	290	-76	-144
5987188	467	433	-97
5987516	395	160	-86
5987844	438	-127	-72
5988172	279	37	5
5988500	419	558	-32
5988828	345	951	-153
5989156	120	804	-116
5989484	-183	466	6
5989812	-534	384	26
5990140	-622	721	87
5990468	-53	1042	65
5990796	459	1011	33
5991124	852	986	12
5991452	1079	1096	-85
5991780	943	1032	-93
5992108	592	1178	-231
5992436	219	1497	-438
5992764	-22	1578	-498
5993092	-202	1533	-518
5993420	-150	1316	-443
5993748	44	1216	-439
5994076	199	1184	-492
5994404	524	1102	-559
5994732	830	1175	-676
5995060	1249	1327	-908
5995388	1447	1346	-1070
5995716	1665	1005	-1126
5996044	1670	702	-1196
5996372	1415	820	-1295
5996700	1173	1021	-1539
5997028	918	751	-1565
5997356	839	301	-1756
5997684	1093	142	-1890
5998012	1423	126	-1960
5998340	1601	44	-2052
5998668	1732	-66	-2038
5998996	1755	-101	-2056
5999324	1683	-234	-2041
5999652	1617	-319	-2058
5999980	1452	-267	-2039
6000308	1221	-266	-2017
6000636	991	-321	-1986
6000964	837	-418	-1901
6001292	809	-429	-1865
6001620	861	-287	-1819
6001948	907	-243	-1766
6002276	969	-336	-1710
6002604	948	-481	-1639
6002932	926	-521	-1561
6003260	871	-503	-1466
6003588	812	-552	-1411
6003916	787	-656	-1331
6004244	735	-761	-1241
6004572	752	-823	-1112
6004900	748	-898	-1014
6005228	849	-913	-950
6005556	859	-864	-931
6005884	753	-862	-906
6006212	585	-819	-958
6006540	334	-711	-958
6006868	83	-669	-847
6007196	-4	-705	-773
6007524	78	-812	-722
6007852	175	-905	-695
6008180	344	-817	-599
6008508	397	-706	-540
6008836	284	-668	-406
6009164	152	-643	-416
6009492	44	-595	-384
6009820	-24	-580	-387
6010148	-85	-596	-309
6010476	-193	-543	-277
6010804	-287	-478	-216
6011132	-402	-463	-178
6011460	-552	-539	-186
6011788	-675	-389	-143
6012116	-806	-165	-137
6012444	-941	-211	-161
6012772	-1070	-342	-109
6013100	-1131	-461	-102
6013428	-1349	-373	-80
6013756	-1767	-118	-50
6014084	-1857	-1555	-144
6014412	-1890	-2359	-196
6014740	-2088	-1865	-184
6015068	-2315	-634	-174
6015396	-2109	155	-95
6015724	-2328	413	-156
6016052	-2385	531	-98
6016380	-2410	1125	57
6016708	-2527	1741	168
6017036	-2570	1952	175
6017364	-2717	2173	196
6017692	-2765	2492	126
6018020	-2905	2844	-11
6018348	-3031	2922	-132
6018676	-3063	3042	-277
6019004	-3290	3150	-408
6019332	-3706	3074	-582
6019660	-4049	3112	-707
6019988	-4383	3220	-881
6020316	-4498	3157	-1088
6020644	-4510	3067	-1308
6020972	-4380	3165	-1505
6021300	-4205	3112	-1661
6021628	-3937	2997	-1774
6021956	-3556	2909	-1809
6022284	-3259	2809	-1902
6022612	-3060	2710	-2063
6022940	-3059	2768	-2205
6023268	-3216	2837	-2283
6023596	-3417	2662	-2354
6023924	-3689	2372	-2393
6024252	-4092	2159	-2377
6024580	-4454	2067	-2381
6024908	-4872	2043	-2471
6025236	-5224	2117	-2491
6025564	-5484	2188	-2505
6025892	-5838	2289	-2539
6026220	-3807	272	-1821
6026548	-404	-3063	349
6026876	-1111	-3350	1433
6027204	-1011	-738	882
6027532	-1228	2588	-148
6027860	645	1946	-1370
6028188	1788	757	-1920
6028516	1423	-96	-2133
6028844	1390	-778	-1604
6029172	1667	-423	-761
6029500	936	236	-396
6029828	-360	4	-287
6030156	-1020	-665	-535
6030484	-2368	-537	-988
6030812	-2468	-61	-1280
6031140	-2097	-396	-1303
6031468	-689	-989	-750
6031796	-79	-1292	-478
6032124	211	-1086	-792
6032452	504	-394	-943
6032780	860	-231	-1033
6033108	1187	-632	-1097
6033436	1514	-704	-1009
6033764	1736	-571	-957
6034092	1637	-494	-825
6034420	1248	-683	-863
6034748	848	-733	-713
6035076	326	-329	-579
6035404	-14	-135	-463
6035732	-43	-213	-492
6036060	173	-254	-452
6036388	409	-72	-390
6036716	577	105	-377
6037044	517	35	-282
6037372	339	88	-248
6037700	203	155	-194
6038028	60	135	-186
6038356	-48	168	-151
6038684	-94	230	-112
6039012	-38	65	-99
6039340	52	59	-129
6039668	127	108	-120
6039996	297	101	-61
6040324	358	248	-67
6040652	350	289	-46
6040980	232	235	-62
6041308	153	234	-26
6041636	148	309	31
6041964	196	337	38
6042292	133	276	-14
6042620	211	167	5
6042948	270	277	-23
6043276	276	257	-2
6043604	235	255	12
6043932	188	262	-7
6044260	167	255	11
6044588	169	249	4
6044916	181	220	-22
6045244	175	209	-18
6045572	158	234	-10
6045900	100	219	-21
6046228	51	195	-27
6046556	7	168	-31
6046884	7	176	-31
6047212	31	170	-38
6047540	22	144	-50
6047868	31	115	-74
6048196	81	170	-57
6048524	116	185	-48
6048852	97	109	-65
6049180	109	104	-80
6049508	95	158	-68
6049836	63	148	-68
6050164	85	122	-71
6050492	93	106	-73
6050820	130	138	-82
6051148	123	161	-71
6051476	65	116	-59
6051804	37	152	-69
6052132	61	160	-70
6052460	27	118	-74
6052788	28	67	-80
6053116	62	83	-90
6053444	39	78	-83
6053772	-4	81	-86
6054100	-32	75	-79
6054428	-51	85	-82
6054756	-70	30	-86
6055084	-56	1	-108
6055412	-22	33	-127
6055740	-52	-11	-109
6056068	-70	61	-94
6056396	-26	93	-95
6056724	-49	18	-95
6057052	-29	42	-84
6057380	2	95	-72
6057708	-8	105	-28
6058036	-11	184	-39
6058364	17	142	-49
6058692	-12	61	-66
6059020	2	121	-57
6059348	0	153	-22
6059676	-52	155	-18
6060004	-62	161	-11
6060332	0	109	-10
6060660	14	140	-8
6060988	51	179	16
6061316	39	85	-11
6061644	17	49	-30
6061972	45	100	-38
6062300	37	62	-58
6062628	-24	123	-43
6062956	-81	123	-32
6063284	-123	92	-23
6063612	-100	73	-40
6063940	-63	76	-33
6064268	-46	86	-27
6064596	-13	101	-24
6064924	-19	122	-21
6065252	-23	127	-30
6065580	-37	112	-11
6065908	-18	95	-15
6066236	-31	117	-10
6066564	-6	130	0
6066892	17	105	1
6067220	6	104	-5
6067548	3	124	3
6067876	2	134	-13
6068204	-14	82	-1
6068532	-67	45	-17
6068860	-37	71	-18
6069188	-8	52	-23
6069516	-13	84	-23
6069844	6	150	-20
6070172	-13	76	-22
6070500	-42	84	-31
6070828	-60	60	-32
6071156	-56	43	-26
6071484	-68	89	-24
6071812	-95	96	-25
6072140	-86	73	-15
6072468	-58	69	-18
6072796	-40	75	-22
6073124	-36	71	-18
6073452	-9	55	-16
6073780	24	78	-11
6074108	36	82	-15
6074436	46	106	1
6074764	65	121	-5
6075092	67	98	-4
6075420	29	103	8
6075748	41	156	13
6076076	46	147	22
6076404	48	70	6
6076732	61	45	-11
6077060	54	95	-11
6077388	77	122	0
6077716	47	79	10
6078044	44	112	10
6078372	18	104	0
6078700	-16	101	12
6079028	-13	134	-3
6079356	-20	125	8
6079684	19	117	-1
6080012	10	108	-7
6080340	9	148	-5
6080668	16	144	2
6080996	-7	119	-1
6081324	-14	123	-7
6081652	-17	133	4
6081980	-19	144	-2
6082308	-32	125	-4
6082636	-16	134	8
6082964	14	156	20
6083292	29	172	25
6083620	27	169	23
6083948	27	154	16
6084276	52	198	42
6084604	47	208	29
6084932	35	161	26
6085260	18	174	4
6085588	21	125	0
6085916	19	112	1
6086244	18	182	0
6086572	-23	121	4
6086900	-72	133	-6
6087228	-69	147	-12
6087556	-66	135	-18
6087884	-103	73	-26
6088212	-96	121	-29
6088540	-109	153	-21
6088868	-72	126	-28
6089196	-89	73	-43
6089524	-53	80	-38
6089852	-8	123	-33
6090180	-13	119	-27
6090508	-22	152	-9
6090836	-10	170	1
6091164	-15	148	-16
6091492	-11	136	-5
6091820	-1	144	-5
6092148	-8	176	-6
6092476	-31	200	5
6092804	-29	169	-14
6093132	-3	168	-7
6093460	-29	161	-17
6093788	-1	107	-22
6094116	-12	132	-24
6094444	-35	116	-34
6094772	-73	108	-31
6095100	-63	164	-13
6095428	-73	189	-25
6095756	-72	161	-25
6096084	-46	163	-14
6096412	-9	210	-25
6096740	-7	162	-25
6097068	-30	172	-22
6097396	-17	182	-31
6097724	-48	172	-29
6098052	-52	181	-31
6098380	-66	125	-60
6098708	-69	108	-56
6099036	-49	172	-61
6099364	-72	149	-54
6099692	-103	156	-40
6100020	-133	145	-51
6100348	-141	128	-59
6100676	-118	104	-67
6101004	-79	89	-61
6101332	-79	100	-65
6101660	-76	172	-48
6101988	-100	156	-55
6102316	-91	176	-50
6102644	-69	182	-65
6102972	-72	118	-71
6103300	-57	128	-72
6103628	-44	133	-53
6103956	-20	190	-42
6104284	-35	172	-69
6104612	-21	139	-63
6104940	-24	185	-61
6105268	-34	168	-60
6105596	-49	160	-54
6105924	-51	199	-33
6106252	-7	186	-34
6106580	-15	143	-21
6106908	21	190	-45
6107236	37	193	-41
6107564	32	158	-25
6107892	12	182	-28
6108220	10	188	-26
6108548	15	187	-27
6108876	27	177	-29
6109204	49	196	-18
6109532	20	208	-15
6109860	-7	196	-7
6110188	-14	197	3
6110516	-14	209	-4
6110844	-21	172	-23
6111172	39	157	-25
6111500	33	164	-19
6111828	-9	172	-20
6112156	-44	168	-18
6112484	-39	169	-21
6112812	-31	170	-25
6113140	-56	152	-25
6113468	-40	156	-22
6113796	-12	187	-35
6114124	-27	189	-19
6114452	1	212	-25
6114780	25	185	-36
6115108	61	207	-43
6115436	89	218	-20
6115764	80	197	-30
6116092	95	185	-48
6116420	101	155	-45
6116748	133	207	-45
6117076	46	33	-15
6117404	548	-585	-89
6117732	189	-330	-108
6118060	261	429	-84
6118388	341	343	-50
6118716	438	179	-8
6119044	611	366	78
6119372	718	630	140
6119700	726	465	114
6120028	876	2	85
6120356	878	237	134
6120684	849	461	113
6121012	834	580	166
6121340	803	417	269
6121668	944	408	427
6121996	967	773	611
6122324	869	1219	804
6122652	775	1405	950
6122980	924	1554	1017
6123308	846	1859	1097
6123636	738	2146	1143
6123964	754	2287	1176
6124292	302	2310	1332
6124620	-293	2627	1589
6124948	-954	3004	1965
6125276	-1305	3511	2220
6125604	-1264	3494	2508
6125932	-1014	3646	2789
6126260	-714	3589	3150
6126588	59	3380	3656
6126916	289	3621	3943
6127244	927	3373	3759
6127572	1076	2836	4173
6127900	769	3253	3975
6128228	559	3575	3754
6128556	197	3270	3442
6128884	41	3021	3132
6129212	279	3308	2701
6129540	312	3142	2506
6129868	-45	2910	1927
6130196	171	3039	844
6130524	-627	2335	412
6130852	-1723	1993	-648
6131180	-2546	2230	-1642
6131508	-2788	1279	-2096
6131836	-2658	545	-2233
6132164	-1726	1034	-2797
6132492	-1376	1406	-3040
6132820	-824	1233	-3201
6133148	-709	-460	-3125
6133476	-918	-3126	-3203
6133804	-1127	-5231	-3009
6134132	-1690	-6229	-2780
6134460	-2397	-7173	-2451
6134788	-4027	-7293	-2151
6135116	-5314	-7468	-2492
6135444	-6901	-7515	-2377
6135772	-8042	-7524	-3506
6136100	-9411	-7034	-4526
6136428	-7096	-5830	-3856
6136756	-6386	-6625	-3076
6137084	-4452	-5274	-1447
6137412	-750	304	-696
6137740	30	3277	1076
6138068	188	-329	1400
6138396	-204	-1328	1814
6138724	-471	847	2163
6139052	-616	2254	2366
6139380	-260	1484	2197
6139708	257	122	1656
6140036	1252	-486	1338
6140364	1654	-230	1070
6140692	1666	347	698
6141020	1315	135	231
6141348	368	-74	-228
6141676	-766	-1	-718
6142004	-1851	-98	-1090
6142332	-3177	467	-1287
6142660	-4204	1171	-1317
6142988	-4873	1339	-1171
6143316	-5190	1653	-751
6143644	-5093	2393	-152
6143972	-4362	2037	270
6144300	-3310	1354	345
6144628	-1581	1394	77
6144956	11062	-4973	1723
6145284	104	4827	2019
6145612	13289	21769	-590
6145940	14379	14212	-881
6146268	7192	-7591	2271
6146596	8143	-15163	781
6146924	-7313	32767	-2059
6147252	11608	7075	-2527
6147580	5906	657	7812
6147908	-7318	7216	9457
6148236	13010	-5747	4343
6148564	-9498	-6673	1944
6148892	-6082	-13054	-2665
6149220	-6296	-19836	-2365
6149548	-9731	-3167	5220
6149876	-2172	13364	1910
6150204	3499	17027	-2776
6150532	9118	2347	-3156
6150860	5457	-9239	-2573
6151188	6124	-8539	-2426
6151516	2893	-3427	-1039
6151844	-486	-1457	-551
6152172	-1448	-2867	-1519
6152500	-2320	-4469	-1568
6152828	-2284	-2983	-2359
6153156	-281	178	-1674
6153484	875	-885	-1689
6153812	1213	-2732	-1113
6154140	1117	-3724	-1349
6154468	1191	-2874	-1428
6154796	1326	-1533	-1414
6155124	1262	-1085	-1423
6155452	1797	-1481	-1530
6155780	1745	-902	-1315
6156108	1314	-192	-1180
6156436	799	27	-1245
6156764	387	-393	-855
6157092	410	-516	-575
6157420	464	-241	-374
6157748	402	-271	-349
6158076	289	-777	-309
6158404	283	-434	-309
6158732	177	249	-268
6159060	-53	473	-145
6159388	-442	179	-113
6159716	-587	-104	-100
6160044	-510	175	-231
6160372	-330	427	-323
6160700	-260	482	-330
6161028	-42	138	-356
6161356	149	11	-332
6161684	130	150	-360
6162012	191	155	-372
6162340	156	67	-407
6162668	150	25	-363
6162996	-68	142	-296
6163324	-188	247	-323
6163652	-218	195	-276
6163980	-283	209	-302
6164308	-342	329	-308
6164636	-316	402	-293
6164964	-349	472	-254
6165292	-427	430	-200
6165620	-443	464	-162
6165948	-308	476	-138
6166276	-226	283	-136
6166604	-201	181	-102
6166932	-225	324	-63
6167260	-219	405	-55
6167588	-334	285	-56
6167916	-311	222	-55
6168244	-297	219	-93
6168572	-233	196	-105
6168900	-260	211	-103
6169228	-300	186	-116
6169556	-313	172	-130
6169884	-270	209	-115
6170212	-213	215	-100
6170540	-173	241	-108
6170868	-129	239	-102
6171196	-94	255	-89
6171524	14	264	-79
6171852	-5	205	-76
6172180	-59	218	-60
6172508	-31	237	-55
6172836	-37	197	-67
6173164	-37	124	-58
6173492	4	18	-55
6173820	-54	63	-62
6174148	-52	74	-59
6174476	-34	-24	-67
6174804	-3	-14	-54
6175132	-15	70	-51
6175460	-56	57	-56
6175788	-66	23	-60
6176116	-13	62	-66
6176444	52	116	-55
6176772	27	97	-51
6177100	61	57	-58
6177428	118	-4	-67
6177756	151	4	-71
6178084	147	37	-73
6178412	101	47	-61
6178740	106	-9	-76
6179068	165	-56	-88
6179396	213	7	-98
6179724	161	47	-89
6180052	159	-5	-94
6180380	114	18	-107
6180708	121	82	-97
6181036	93	93	-93
6181364	54	49	-83
6181692	60	46	-99
6182020	97	100	-104
6182348	66	150	-101
6182676	-81	68	-100
6183004	-137	25	-94
6183332	-91	18	-95
6183660	-67	21	-115
6183988	-36	41	-131
6184316	-36	51	-110
6184644	-65	47	-122
6184972	-114	43	-139
6185300	-92	50	-151
6185628	-98	56	-146
6185956	-78	21	-143
6186284	-55	11	-152
6186612	-31	26	-150
6186940	-18	38	-134
6187268	-53	50	-132
6187596	-39	47	-138
6187924	-70	90	-128
6188252	-76	66	-119
6188580	-48	32	-107
6188908	-93	62	-123
6189236	-75	60	-118
6189564	-24	67	-123
6189892	-13	54	-122
6190220	-28	2	-122
6190548	-89	-7	-124
6190876	-148	35	-105
6191204	-125	40	-124
6191532	-120	0	-133
6191860	-95	40	-130
6192188	-78	62	-111
6192516	-65	31	-126
6192844	-34	35	-112
6193172	3	34	-105
6193500	-31	47	-105
6193828	-10	52	-92
6194156	-8	60	-104
6194484	21	58	-93
6194812	-27	56	-109
6195140	-53	62	-92
6195468	-86	50	-92
6195796	-51	57	-83
6196124	-45	85	-87
6196452	16	33	-91
6196780	45	54	-76
6197108	20	121	-77
6197436	25	110	-68
6197764	48	84	-64
6198092	84	96	-82
6198420	92	84	-68
6198748	86	77	-77
6199076	58	75	-64
6199404	10	84	-65
6199732	13	61	-73
6200060	10	78	-66
6200388	10	111	-82
6200716	-27	103	-88
6201044	-12	76	-81
6201372	-38	106	-92
6201700	-60	87	-96
6202028	-53	81	-94
6202356	-41	90	-98
6202684	0	66	-91
6203012	0	93	-95
6203340	-19	93	-94
6203668	-34	101	-88
6203996	-16	72	-80
6204324	-17	89	-90
6204652	15	122	-90
6204980	9	151	-92
6205308	-20	114	-84
6205636	-24	97	-84
6205964	6	114	-69
6206292	24	158	-71
6206620	38	202	-83
6206948	46	59	-93
6207276	-12	57	-99
6207604	-48	89	-86
6207932	-100	86	-84
6208260	-87	113	-84
6208588	-38	105	-84
6208916	6	58	-93
6209244	18	91	-78
6209572	6	112	-78
6209900	-7	68	-103
6210228	23	91	-92
6210556	44	87	-78
6210884	15	93	-65
6211212	31	77	-69
6211540	16	93	-66
6211868	23	120	-65
6212196	-3	96	-66
6212524	-27	117	-52
6212852	-31	118	-59
6213180	0	84	-59
6213508	9	96	-53
6213836	17	139	-67
6214164	16	133	-60
6214492	-18	86	-75
6214820	1	119	-59
6215148	2	158	-55
6215476	10	158	-65
6215804	-12	135	-57
6216132	18	136	-74
6216460	24	98	-61
6216788	4	112	-69
6217116	26	104	-65
6217444	22	93	-63
6217772	-21	103	-68
6218100	-50	149	-58
6218428	-77	125	-59
6218756	-70	85	-69
6219084	-53	137	-66
6219412	-47	176	-51
6219740	-82	130	-61
6220068	-78	84	-74
6220396	-38	94	-79
6220724	-31	189	-71
6221052	-76	185	-40
6221380	-138	217	-32
6221708	-116	172	-56
6222036	-74	126	-62
6222364	19	106	-83
6222692	31	136	-64
6223020	-6	147	-71
6223348	-8	65	-73
6223676	-27	62	-75
6224004	-19	144	-81
6224332	-15	111	-65
6224660	18	28	-81
6224988	26	52	-82
6225316	9	50	-81
6225644	-9	78	-83
6225972	64	53	-88
6226300	168	-80	-91
6226628	288	-72	-125
6226956	379	-112	-130
6227284	510	-230	-154
6227612	633	-314	-183
6227940	780	-295	-203
6228268	774	-286	-226
6228596	835	-326	-255
6228924	840	-354	-274
6229252	789	-271	-277
6229580	737	-236	-268
6229908	628	-227	-282
6230236	502	-144	-297
6230564	302	-52	-299
6230892	145	-9	-272
6231220	16	20	-260
6231548	-64	65	-269
6231876	-152	107	-265
6232204	-392	231	-234
6232532	-593	252	-235
6232860	-717	213	-249
6233188	-828	245	-264
6233516	-852	267	-265
6233844	-924	252	-286
6234172	-1122	304	-269
6234500	-1239	252	-277
6234828	-1244	177	-297
6235156	-1240	185	-304
6235484	-1145	157	-310
6235812	-1052	127	-328
6236140	-1007	143	-321
6236468	-985	112	-359
6236796	-961	54	-355
6237124	-882	-12	-384
6237452	-861	-12	-383
6237780	-816	-29	-396
6238108	-849	-53	-405
6238436	-945	-4	-379
6238764	-1090	97	-392
6239092	-1232	104	-384
6239420	-1253	5	-386
6239748	-1201	-60	-388
6240076	-1089	3	-381
6240404	-993	22	-362
6240732	-900	-64	-366
6241060	-827	-87	-377
6241388	-761	-46	-349
6241716	-647	-51	-335
6242044	-608	-103	-305
6242372	-520	-97	-331
6242700	-542	-64	-290
6243028	-628	-3	-287
6243356	-618	-27	-263
6243684	-559	-50	-281
6244012	-455	-74	-277
6244340	-414	-92	-276
6244668	-348	-74	-276
6244996	-284	-68	-230
6245324	-278	-41	-215
6245652	-258	-49	-206
6245980	-220	-85	-191
6246308	-177	-34	-178
6246636	-109	-40	-171
6246964	-89	-51	-159
6247292	-51	-4	-153
6247620	-36	27	-151
6247948	-1	-4	-141
6248276	4	22	-140
6248604	41	12	-108
6248932	52	27	-103
6249260	69	72	-76
6249588	78	88	-86
6249916	66	65	-66
6250244	78	62	-60
6250572	56	110	-48
6250900	35	115	-55
6251228	29	78	-65
6251556	44	44	-46
6251884	24	45	-40
6252212	38	91	-36
6252540	92	58	-24
6252868	87	76	-16
6253196	101	88	-20
6253524	137	90	-18
6253852	155	98	-4
6254180	149	108	3
6254508	141	85	12
6254836	168	86	26
6255164	148	109	9
6255492	180	94	14
6255820	167	107	15
6256148	169	140	13
6256476	176	139	1
6256804	175	98	0
6257132	181	132	-5
6257460	193	137	6
6257788	202	127	-7
6258116	204	140	7
6258444	171	130	-4
6258772	163	143	6
6259100	161	161	-7
6259428	211	161	1
6259756	220	160	8
6260084	195	174	-3
6260412	194	112	-20
6260740	151	82	-16
6261068	144	139	-13
6261396	130	140	-4
6261724	153	75	-7
6262052	145	94	-10
6262380	191	94	-2
6262708	223	78	-8
6263036	235	95	13
6263364	243	125	14
6263692	256	95	6
6264020	237	115	6
6264348	222	135	-7
6264676	217	103	8
6265004	222	143	9
6265332	195	106	2
6265660	222	70	7
6265988	236	84	14
6266316	247	111	1
6266644	267	80	8
6266972	257	70	1
6267300	254	98	-8
6267628	251	69	-5
6267956	245	56	-4
6268284	242	105	-4
6268612	238	98	-6
6268940	225	57	-13
6269268	216	75	-4
6269596	207	94	-11
6269924	196	99	-7
6270252	179	99	-5
6270580	164	101	12
6270908	161	104	-1
6271236	152	72	5
6271564	137	47	-4
6271892	146	86	5
6272220	137	73	11
6272548	106	67	1
6272876	113	78	13
6273204	115	73	8
6273532	142	92	-1
6273860	130	73	-7
6274188	121	84	-9
6274516	120	103	11
6274844	125	84	1
6275172	143	96	1
6275500	186	129	2
6275828	179	51	-3
6276156	140	59	0
6276484	125	114	11
6276812	69	102	11
6277140	14	114	14
6277468	30	112	11
6277796	-45	164	16
6278124	-64	139	23
6278452	-115	64	15
6278780	-128	173	28
6279108	-154	208	26
6279436	-170	115	33
6279764	-141	134	34
6280092	-148	210	37
6280420	-216	238	48
6280748	-255	199	50
6281076	-225	171	56
6281404	-220	230	48
6281732	-190	210	67
6282060	-185	198	57
6282388	-123	153	77
6282716	-71	113	72
6283044	-10	143	76
6283372	52	154	73
6283700	86	172	88
6284028	99	130	94
6284356	93	157	90
6284684	49	216	88
6285012	-18	230	106
6285340	-44	183	124
6285668	18	175	119
6285996	109	165	115
6286324	234	157	118
6286652	327	140	127
6286980	384	141	119
6287308	438	126	125
6287636	411	135	140
6287964	410	158	140
6288292	375	165	132
6288620	390	143	154
6288948	381	107	146
6289276	377	119	146
6289604	407	164	146
6289932	436	101	164
6290260	467	112	140
6290588	525	137	141
6290916	526	105	129
6291244	545	106	145
6291572	543	122	124
6291900	480	119	139
6292228	473	116	117
6292556	401	131	114
6292884	383	88	108
6293212	428	93	81
6293540	450	84	82
6293868	476	115	61
6294196	479	60	49
6294524	425	55	60
6294852	387	119	38
6295180	308	67	39
6295508	266	118	21
6295836	234	131	30
6296164	163	121	29
6296492	120	100	15
6296820	63	138	28
6297148	-2	184	30
6297476	-44	137	19
6297804	-39	115	9
6298132	-60	149	16
6298460	-102	172	3
6298788	-158	127	-3
6299116	-185	106	-2
6299444	-206	166	-3
6299772	-207	158	-2
6300100	-156	129	-17
6300428	-141	164	-18
6300756	-123	152	-5
6301084	-154	178	-8
6301412	-155	208	-12
6301740	-164	175	-6
6302068	-145	188	-1
6302396	-168	227	0
6302724	-165	200	13
6303052	-144	191	17
6303380	-113	223	6
6303708	-141	199	5
6304036	-118	199	21
6304364	-133	242	14
6304692	-149	226	23
6305020	-193	243	23
6305348	-192	255	43
6305676	-194	219	46
6306004	-181	235	49
6306332	-197	237	46
6306660	-166	261	40
6306988	-169	197	58
6307316	-124	239	42
6307644	-117	181	50
6307972	-71	216	26
6308300	-68	206	37
6308628	-33	198	6
6308956	-73	196	21
6309284	-87	194	15
6309612	-99	180	14
6309940	-114	183	10
6310268	-101	194	-4
6310596	-71	142	0
6310924	-38	146	5
6311252	-41	167	-2
6311580	-65	157	-15
6311908	-72	159	-4
6312236	-55	134	-8
6312564	-46	119	-11
6312892	-57	168	-20
6313220	-59	182	-22
6313548	-68	151	-22
6313876	-83	151	-28
6314204	-96	159	-18
6314532	-89	110	-30
6314860	-114	107	-38
6315188	-116	169	-31
6315516	-100	157	-18
6315844	-66	113	-33
6316172	-64	123	-28
6316500	-69	134	-31
6316828	-47	123	-35
6317156	-57	118	-42
6317484	-40	157	-37
6317812	-21	113	-33
6318140	-6	61	-25
6318468	-18	109	-26
6318796	-12	129	-25
6319124	6	112	-33
6319452	-7	98	-31
6319780	-16	122	-39
6320108	-7	121	-38
6320436	-22	126	-18
6320764	-25	150	-38
6321092	-50	141	-39
6321420	-41	118	-31
6321748	-45	86	-34
6322076	-24	126	-34
6322404	-29	143	-46
6322732	-27	124	-46
6323060	-42	138	-46
6323388	-37	124	-49
6323716	-25	128	-51
6324044	-19	118	-51
6324372	-27	124	-52
6324700	-27	131	-46
6325028	-68	134	-51
6325356	-67	132	-44
6325684	-103	134	-51
6326012	-95	159	-46
6326340	-87	145	-44
6326668	-113	161	-46
6326996	-105	154	-39
6327324	-133	145	-32
6327652	-138	159	-42
6327980	-126	156	-31
6328308	-146	136	-37
6328636	-165	136	-33
6328964	-163	145	-32
6329292	-159	125	-39
6329620	-154	139	-34
6329948	-153	146	-39
6330276	-138	128	-42
6330604	-142	153	-32
6330932	-155	155	-23
6331260	-128	128	-20
6331588	-118	151	-26
6331916	-102	184	-28
6332244	-79	141	-8
6332572	-101	122	-19
6332900	-81	158	-20
6333228	-70	146	-15
6333556	-78	122	-6
6333884	-113	174	8
6334212	-91	151	8
6334540	-62	125	5
6334868	-70	142	-4
6335196	-61	138	6
6335524	-43	111	-11
6335852	-35	124	-1
6336180	-32	129	2
6336508	1	122	3
6336836	30	134	-4
6337164	44	105	-4
6337492	43	125	-7
6337820	68	153	1
6338148	44	123	-6
6338476	34	113	-4
6338804	58	125	4
6339132	37	110	-13
6339460	39	136	-25
6339788	33	122	-15
6340116	30	98	-24
6340444	2	158	-21
6340772	4	144	-28
6341100	14	109	-24
6341428	41	138	-26
6341756	51	134	-30
6342084	59	121	-40
6342412	52	135	-34
6342740	49	127	-32
6343068	45	126	-28
6343396	44	139	-41
6343724	45	160	-31
6344052	37	125	-31
6344380	9	135	-35
6344708	-19	139	-44
6345036	-18	115	-45
6345364	-37	151	-47
6345692	-44	171	-40
6346020	-65	123	-38
6346348	-85	133	-49
6346676	-83	146	-37
6347004	-102	119	-49
6347332	-79	129	-31
6347660	-93	159	-37
6347988	-91	167	-45
6348316	-65	173	-44
6348644	-46	182	-36
6348972	-53	161	-39
6349300	-60	170	-36
6349628	-64	178	-45
6349956	-53	194	-27
6350284	-43	181	-41
6350612	-58	156	-45
6350940	-68	151	-37
6351268	-79	148	-41
6351596	-127	123	-42
6351924	-149	130	-47
6352252	-133	191	-42
6352580	-120	148	-49
6352908	-93	109	-51
6353236	-69	164	-45
6353564	-95	165	-37
6353892	-86	115	-43
6354220	-89	166	-50
6354548	-76	168	-44
6354876	-59	141	-42
6355204	-62	149	-42
6355532	-84	197	-38
6355860	-87	147	-29
6356188	-86	134	-35
6356516	-94	170	-30
6356844	-88	174	-31
6357172	-79	135	-43
6357500	-55	159	-42
6357828	-57	157	-34
6358156	-36	118	-37
6358484	-24	144	-48
6358812	6	146	-45
6359140	5	133	-36
6359468	4	145	-44
6359796	-17	149	-36
6360124	-11	128	-24
6360452	-20	168	-32
6360780	-13	150	-27
6361108	-1	127	-36
6361436	18	161	-40
6361764	20	145	-48
6362092	17	109	-50
6362420	20	139	-54
6362748	20	126	-49
6363076	7	126	-50
6363404	-14	148	-46
6363732	-24	135	-37
6364060	-22	145	-45
6364388	-45	143	-38
6364716	-43	141	-44
6365044	-47	148	-31
6365372	-24	153	-36
6365700	-18	153	-37
6366028	-24	146	-47
6366356	-26	145	-39
6366684	-13	142	-34
6367012	-8	149	-51
6367340	-5	137	-43
6367668	7	112	-33
6367996	11	124	-41
6368324	12	127	-37
6368652	-6	136	-54
6368980	10	140	-47
6369308	10	117	-43
6369636	-3	137	-46
6369964	-13	120	-46
6370292	-34	107	-61
6370620	-66	151	-46
6370948	-47	151	-46
6371276	-32	124	-40
6371604	-30	127	-54
6371932	-23	133	-46
6372260	-38	115	-49
6372588	-19	105	-49
