Time Stamp	Gyroscope X	Gyroscope Y	Gyroscope Z
RAW	RAW	RAW	RAW
no units	no units	no units	no units
14817321	87	92	-57
14817649	151	122	-131
14817977	179	178	-171
14818305	151	124	-171
14818633	142	62	-97
14818961	134	52	-51
14819289	170	123	-50
14819617	212	167	-98
14819945	237	59	-140
14820273	239	-99	-107
14820601	211	-56	-114
14820929	190	35	-72
14821257	239	-19	-147
14821585	231	118	-184
14821913	208	23	-174
14822241	179	-31	-137
14822569	234	-24	-59
14822897	145	75	-143
14823225	202	-17	-168
14823553	198	40	-151
14823881	348	27	-179
14824209	281	90	-188
14824537	196	93	-174
14824865	219	110	-141
14825193	237	73	-144
14825521	243	186	-172
14825849	219	240	-170
14826177	279	239	-210
14826505	235	-11	-183
14826833	223	-67	-223
14827161	216	-12	-248
14827489	223	-32	-282
14827817	285	32	-330
14828145	243	21	-305
14828473	262	-19	-333
14828801	149	7	-292
14829129	141	-64	-265
14829457	161	22	-236
14829785	233	74	-230
14830113	302	-169	-291
14830441	351	-266	-325
14830769	349	-204	-335
14831097	226	-226	-318
14831425	167	-356	-317
14831753	31	-289	-250
14832081	42	-235	-228
14832409	89	-432	-246
14832737	237	-634	-296
14833065	265	-484	-341
14833393	299	-450	-348
14833721	286	-339	-331
14834049	286	-271	-297
14834377	242	-238	-298
14834705	238	-241	-342
14835033	190	-238	-296
14835361	190	-213	-329
14835689	255	-114	-347
14836017	244	-64	-311
14836345	244	-60	-311
14836673	227	18	-297
14837001	120	-28	-225
14837329	47	-95	-168
14837657	14	-103	-116
14837985	32	-30	-134
14838313	82	-59	-123
14838641	102	-211	-110
14838969	60	-173	-79
14839297	-1	-128	-82
14839625	-21	-112	-88
14839953	-14	-168	-80
14840281	-15	-151	-127
14840609	-71	-130	-159
14840937	-128	-154	-106
14841265	-125	-123	-100
14841593	-102	-31	-121
14841921	-107	-32	-156
14842249	-126	-93	-126
14842577	-154	-95	-131
14842905	-152	-62	-145
14843233	-127	-76	-132
14843561	-4	-73	-125
14843889	45	-44	-120
14844217	79	17	-145
14844545	141	22	-153
14844873	117	21	-171
14845201	87	18	-135
14845529	-14	34	-131
14845857	-120	85	-126
14846185	-129	99	-145
14846513	-84	184	-108
14846841	25	136	-95
14847169	182	128	-96
14847497	223	197	-120
14847825	245	132	-105
14848153	207	124	-88
14848481	164	131	-87
14848809	83	223	-52
14849137	76	189	-97
14849465	45	206	-56
14849793	80	177	-95
14850121	66	220	-107
14850449	35	125	-43
14850777	56	22	19
14851105	19	33	2
14851433	-16	48	0
14851761	110	17	35
14852089	38	-84	-16
14852417	76	48	-44
14852745	55	36	-64
14853073	25	-57	-18
14853401	-55	-131	17
14853729	-151	-98	-1
14854057	-202	-87	-1
14854385	-181	-90	-42
14854713	-159	12	-62
14855041	-211	-104	-55
14855369	-294	-147	-40
14855697	-277	-66	-55
14856025	-329	-102	-95
14856353	-324	-21	-66
14856681	-331	8	-69
14857009	-339	-14	-62
14857337	-347	-112	-62
14857665	-290	-123	-71
14857993	-300	-10	-103
14858321	-242	7	-101
14858649	-240	35	-74
14858977	-261	36	-56
14859305	-287	57	-41
14859633	-318	95	-29
14859961	-269	120	-41
14860289	-215	153	-44
14860617	-193	167	-62
14860945	-172	141	-61
14861273	-183	165	-22
14861601	-216	155	-20
14861929	-221	132	-18
14862257	-224	181	-41
14862585	-186	204	-51
14862913	-183	202	-40
14863241	-180	239	-42
14863569	-107	232	-34
14863897	-82	264	-24
14864225	-54	295	-31
14864553	-37	328	-36
14864881	-61	282	-19
14865209	-118	127	-6
14865537	-96	196	11
14865865	-105	224	-11
14866193	-79	224	-16
14866521	-77	249	-14
14866849	-84	221	-4
14867177	-76	267	1
14867505	-71	260	-26
14867833	-101	228	-4
14868161	-107	230	5
14868489	-122	252	-6
14868817	-128	261	4
14869145	-145	239	11
14869473	-110	230	22
14869801	-112	279	-7
14870129	-80	272	-7
14870457	-88	269	0
14870785	-72	265	-59
14871113	-54	393	-18
14871441	-44	314	-1
14871769	-59	350	-10
14872097	-95	436	-39
14872425	-111	453	-19
14872753	-113	432	-11
14873081	-49	450	-13
14873409	-56	494	2
14873737	-80	450	0
14874065	-99	471	4
14874393	-80	527	8
14874721	-87	540	-30
14875049	-90	539	-10
14875377	-94	538	5
14875705	-89	551	-2
14876033	-117	554	-7
14876361	-106	515	3
14876689	-122	521	14
14877017	-128	501	30
14877345	-129	462	25
14877673	-102	456	17
14878001	-109	418	18
14878329	-111	400	6
14878657	-108	372	22
14878985	-123	345	18
14879313	-146	310	14
14879641	-166	302	39
14879969	-181	271	26
14880297	-203	255	28
14880625	-210	252	24
14880953	-212	248	38
14881281	-211	243	48
14881609	-207	212	45
14881937	-180	229	27
14882265	-185	247	20
14882593	-206	205	16
14882921	-228	214	23
14883249	-243	202	47
14883577	-255	199	31
14883905	-225	220	28
14884233	-211	208	8
14884561	-198	217	14
14884889	-197	211	21
14885217	-179	202	25
14885545	-189	220	17
14885873	-178	212	20
14886201	-166	215	7
14886529	-169	195	14
14886857	-155	218	22
14887185	-139	211	42
14887513	-143	214	19
14887841	-117	217	14
14888169	-96	227	26
14888497	-76	234	3
14888825	-80	224	18
14889153	-77	227	12
14889481	-85	230	16
14889809	-103	239	27
14890137	-61	220	1
14890465	-43	230	17
14890793	-52	235	7
14891121	-36	239	4
14891449	-58	230	10
14891777	-58	225	4
14892105	-53	194	-10
14892433	-85	251	-2
14892761	-83	241	11
14893089	-71	227	2
14893417	-70	210	13
14893745	-60	224	4
14894073	-80	209	21
14894401	-102	230	5
14894729	-87	221	17
14895057	-91	222	8
14895385	-94	224	8
14895713	-101	203	18
14896041	-123	221	4
14896369	-164	216	10
14896697	-138	220	3
14897025	-124	206	0
14897353	-107	207	2
14897681	-105	220	19
14898009	-132	198	19
14898337	-127	232	20
14898665	-110	223	22
14898993	-110	228	11
14899321	-134	222	25
14899649	-160	195	26
14899977	-188	214	25
14900305	-174	207	36
14900633	-169	222	26
14900961	-156	211	19
14901289	-145	215	6
14901617	-141	199	22
14901945	-127	213	37
14902273	-128	189	48
14902601	-137	216	56
14902929	-152	216	68
14903257	-148	185	46
14903585	-149	198	26
14903913	-174	176	44
14904241	-152	191	67
14904569	-171	171	70
14904897	-200	178	59
14905225	-222	167	65
14905553	-192	156	76
14905881	-201	168	74
14906209	-180	167	65
14906537	-153	164	66
14906865	-172	157	57
14907193	-168	161	65
14907521	-180	190	39
14907849	-168	188	52
14908177	-174	192	41
14908505	-170	176	43
14908833	-191	188	56
14909161	-191	170	33
14909489	-148	196	15
14909817	-144	187	23
14910145	-132	194	12
14910473	-130	174	28
14910801	-144	186	33
14911129	-137	171	11
14911457	-128	188	19
14911785	-127	193	12
14912113	-107	188	11
14912441	-96	184	0
14912769	-81	197	12
14913097	-85	186	13
14913425	-79	188	19
14913753	-84	154	17
14914081	-105	183	1
14914409	-97	169	17
14914737	-102	186	-3
14915065	-85	170	-7
14915393	-69	178	-17
14915721	-62	183	-17
14916049	-67	180	-20
14916377	-62	182	-39
14916705	-74	182	-47
14917033	-98	176	-43
14917361	-99	173	-23
14917689	-105	169	-14
14918017	-105	177	-17
14918345	-77	183	-35
14918673	-74	179	-54
14919001	-72	165	-45
14919329	-94	160	-31
14919657	-117	168	-22
14919985	-110	163	-34
14920313	-92	179	-58
14920641	-86	165	-65
14920969	-96	160	-51
14921297	-80	155	-48
14921625	-111	171	-43
14921953	-116	162	-48
14922281	-108	154	-31
14922609	-102	144	-48
14922937	-97	149	-59
14923265	-91	154	-67
14923593	-99	157	-54
14923921	-109	144	-44
14924249	-88	156	-60
14924577	-95	142	-50
14924905	-74	153	-70
14925233	-75	151	-68
14925561	-91	140	-68
14925889	-90	144	-56
14926217	-108	125	-48
14926545	-129	123	-40
14926873	-122	127	-62
14927201	-117	138	-55
14927529	-119	123	-48
14927857	-122	119	-40
14928185	-113	135	-33
14928513	-101	121	-42
14928841	-105	117	-55
14929169	-97	118	-45
14929497	-90	117	-38
14929825	-91	131	-21
14930153	-98	129	-40
14930481	-111	130	-38
14930809	-97	128	-34
14931137	-101	139	-35
14931465	-106	124	-32
14931793	-104	134	-15
14932121	-97	122	-24
14932449	-89	125	-34
14932777	-75	134	-35
14933105	-53	120	-24
14933433	-76	120	-24
14933761	-59	123	-32
14934089	-74	123	-39
14934417	-86	136	-40
14934745	-91	126	-26
14935073	-73	119	-44
14935401	-102	115	-39
14935729	-74	127	-36
14936057	-66	131	-45
14936385	-65	122	-49
14936713	-69	129	-43
14937041	-56	114	-36
14937369	-48	132	-56
14937697	-57	112	-59
14938025	-57	107	-49
14938353	-51	119	-49
14938681	-55	118	-53
14939009	-55	108	-55
14939337	-54	115	-46
14939665	-77	107	-50
14939993	-102	116	-44
14940321	-107	114	-45
14940649	-91	93	-48
14940977	-94	101	-50
14941305	-96	97	-29
14941633	-91	86	-51
14941961	-79	103	-41
14942289	-83	89	-31
14942617	-61	86	-43
14942945	-60	94	-57
14943273	-76	93	-48
14943601	-67	113	-47
14943929	-71	112	-56
14944257	-76	92	-47
14944585	-71	103	-51
14944913	-81	82	-48
14945241	-87	90	-50
14945569	-96	91	-64
14945897	-73	105	-62
14946225	-58	104	-59
14946553	-70	101	-56
14946881	-84	102	-61
14947209	-46	101	-61
14947537	-49	106	-59
14947865	-53	100	-75
14948193	-77	100	-49
14948521	-84	91	-58
14948849	-89	98	-50
14949177	-72	101	-54
14949505	-58	97	-62
14949833	-50	107	-65
14950161	-47	100	-67
14950489	-46	101	-59
14950817	-66	94	-62
14951145	-72	112	-44
14951473	-84	99	-37
14951801	-50	99	-62
14952129	-33	93	-68
14952457	-38	94	-49
14952785	-50	90	-49
14953113	-65	93	-49
14953441	-67	117	-43
14953769	-46	104	-54
14954097	-38	111	-65
14954425	-19	120	-63
14954753	-15	114	-59
14955081	-32	112	-56
14955409	-25	130	-56
14955737	-28	125	-66
14956065	-22	122	-69
14956393	-41	110	-68
14956721	-41	122	-69
14957049	-43	101	-57
14957377	-43	119	-57
14957705	-40	118	-52
14958033	-32	125	-51
14958361	-45	113	-62
14958689	-40	113	-67
14959017	-29	98	-59
14959345	-24	124	-63
14959673	-34	120	-53
14960001	-37	107	-73
14960329	-40	109	-66
14960657	-37	116	-50
14960985	-36	116	-65
14961313	-43	125	-57
14961641	-43	107	-62
14961969	-54	114	-56
14962297	-40	139	-72
14962625	-56	116	-71
14962953	-44	115	-67
14963281	-42	111	-62
14963609	-58	121	-52
14963937	-62	106	-67
14964265	-56	108	-62
14964593	-61	124	-66
14964921	-37	124	-74
14965249	-47	116	-70
14965577	-69	108	-71
14965905	-65	115	-59
14966233	-70	117	-53
14966561	-76	112	-57
14966889	-71	101	-70
14967217	-43	120	-54
14967545	-53	111	-54
14967873	-62	93	-56
14968201	-61	112	-57
14968529	-62	104	-45
14968857	-48	106	-42
14969185	-24	114	-41
14969513	-33	101	-37
14969841	-12	109	-38
14970169	-23	120	-35
14970497	4	118	-55
14970825	-2	108	-46
14971153	-1	124	-47
14971481	-31	103	-36
14971809	-18	121	-34
14972137	-37	122	-28
14972465	-26	122	-35
14972793	-15	114	-33
14973121	-9	107	-37
14973449	-36	104	-28
14973777	-36	99	-13
14974105	-22	98	-13
14974433	-13	115	-30
14974761	-30	98	-20
14975089	2	95	-33
14975417	-14	101	-19
14975745	-20	108	-9
14976073	-40	104	-14
14976401	-51	116	-9
14976729	-48	105	-7
14977057	-57	107	-12
14977385	-53	98	-8
14977713	-29	107	-19
14978041	-22	110	-16
14978369	-23	115	-28
14978697	-35	111	-28
14979025	-25	115	-24
14979353	-43	109	-26
14979681	-39	114	-21
14980009	-29	123	-33
14980337	-35	121	-46
14980665	-24	110	-44
14980993	-42	112	-36
14981321	-61	108	-36
14981649	-76	114	-42
14981977	-77	100	-41
14982305	-78	97	-41
14982633	-68	107	-43
14982961	-60	91	-28
14983289	-56	98	-44
14983617	-60	104	-21
14983945	-46	94	-44
14984273	-69	92	-28
14984601	-56	104	-43
14984929	-61	112	-48
14985257	-70	107	-43
14985585	-83	109	-44
14985913	-81	119	-52
14986241	-72	110	-50
14986569	-67	110	-44
14986897	-85	101	-32
14987225	-78	100	-34
14987553	-68	122	-52
14987881	-58	126	-62
14988209	-46	116	-64
14988537	-36	118	-64
14988865	-54	114	-42
14989193	-78	109	-54
14989521	-101	112	-51
14989849	-107	109	-30
14990177	-97	104	-49
14990505	-60	122	-46
14990833	-56	113	-61
14991161	-56	114	-51
14991489	-57	111	-60
14991817	-65	114	-45
14992145	-82	116	-58
14992473	-71	106	-57
14992801	-92	119	-53
14993129	-85	115	-53
14993457	-42	118	-50
14993785	-47	115	-65
14994113	-58	116	-62
14994441	-64	118	-52
14994769	-75	130	-47
14995097	-62	108	-50
14995425	-51	124	-57
14995753	-21	125	-59
14996081	-6	141	-69
14996409	7	125	-56
14996737	-27	125	-53
14997065	-51	117	-41
14997393	-62	118	-45
14997721	-68	107	-42
14998049	-54	115	-46
14998377	-36	117	-43
14998705	-15	118	-50
14999033	-27	117	-54
14999361	-38	107	-37
14999689	-55	115	-53
15000017	-47	114	-40
15000345	-68	115	-51
15000673	-59	121	-47
15001001	-68	121	-36
15001329	-60	123	-50
15001657	-69	120	-44
15001985	-59	119	-43
15002313	-37	136	-46
15002641	-47	126	-56
15002969	-27	121	-60
15003297	-25	133	-68
15003625	-31	133	-73
15003953	-51	119	-61
15004281	-42	128	-48
15004609	-68	151	-44
15004937	-61	140	-55
15005265	-68	122	-46
15005593	-42	129	-49
15005921	-50	126	-61
15006249	-37	136	-57
15006577	-20	129	-61
15006905	-50	137	-52
15007233	-59	139	-53
15007561	-94	132	-48
15007889	-83	137	-33
15008217	-72	133	-34
15008545	-62	144	-50
15008873	-51	126	-53
15009201	-49	124	-48
15009529	-52	131	-39
15009857	-66	133	-58
15010185	-77	131	-53
15010513	-64	146	-45
15010841	-45	151	-57
15011169	-28	144	-62
15011497	-49	141	-68
15011825	-51	134	-47
15012153	-77	138	-47
15012481	-87	146	-43
15012809	-89	132	-60
15013137	-77	139	-32
15013465	-49	138	-45
15013793	-45	149	-54
15014121	-50	141	-57
15014449	-67	149	-48
15014777	-73	164	-46
15015105	-76	139	-42
15015433	-54	174	-53
15015761	-56	158	-49
15016089	-67	151	-57
15016417	-63	133	-55
15016745	-65	161	-48
15017073	-83	136	-52
15017401	-71	148	-39
15017729	-54	147	-43
15018057	-40	159	-45
15018385	-59	142	-58
15018713	-34	161	-49
15019041	-31	151	-54
15019369	-39	160	-54
15019697	-46	139	-40
15020025	-56	149	-27
15020353	-54	137	-35
15020681	-54	138	-29
15021009	-50	144	-34
15021337	-47	156	-29
15021665	-41	147	-28
15021993	-24	150	-43
15022321	-25	133	-34
15022649	-27	155	-41
15022977	-67	146	-21
15023305	-81	135	-21
15023633	-83	133	-26
15023961	-77	140	-23
15024289	-67	140	-25
15024617	-54	126	-28
15024945	-53	138	-26
15025273	-74	138	-25
15025601	-81	147	-15
15025929	-71	134	-11
15026257	-71	156	-30
15026585	-59	147	-30
15026913	-68	139	-32
15027241	-69	146	-28
15027569	-71	141	-28
15027897	-97	139	-20
15028225	-98	146	-9
15028553	-104	139	-18
15028881	-89	141	-20
15029209	-66	148	-31
15029537	-56	136	-21
15029865	-70	124	-18
15030193	-83	126	-16
15030521	-121	123	-11
15030849	-114	128	-15
15031177	-104	133	-5
15031505	-85	120	-10
15031833	-85	125	-8
15032161	-84	133	2
15032489	-82	129	-12
15032817	-90	124	4
15033145	-89	122	14
15033473	-72	118	-2
15033801	-88	120	25
15034129	-81	136	14
15034457	-59	127	3
15034785	-70	123	-2
15035113	-72	124	-1
15035441	-74	114	15
15035769	-97	121	6
15036097	-114	128	4
15036425	-100	121	7
15036753	-103	128	2
15037081	-116	112	16
15037409	-122	115	26
15037737	-112	119	19
15038065	-100	106	23
15038393	-86	113	31
15038721	-90	118	10
15039049	-104	113	23
15039377	-101	118	39
15039705	-109	106	22
15040033	-105	110	16
15040361	-89	119	15
15040689	-107	108	20
15041017	-110	105	27
15041345	-110	121	37
15041673	-101	108	23
15042001	-91	124	29
15042329	-65	101	23
15042657	-71	122	19
15042985	-66	135	37
15043313	-71	139	37
15043641	-52	123	36
15043969	-24	124	34
15044297	-20	119	13
15044625	-27	124	39
15044953	-35	128	37
15045281	-20	128	28
15045609	-36	126	22
15045937	-47	105	40
15046265	-50	121	43
15046593	-62	108	27
15046921	-89	106	38
15047249	-100	108	26
15047577	-114	102	33
15047905	-118	97	26
15048233	-112	122	18
15048561	-123	109	6
15048889	-132	107	8
15049217	-136	109	15
15049545	-139	121	0
15049873	-136	123	6
15050201	-124	116	-5
15050529	-135	123	-10
15050857	-140	112	-6
15051185	-141	110	-6
15051513	-132	123	-4
15051841	-121	122	-3
15052169	-117	114	-6
15052497	-139	130	-18
15052825	-126	118	-3
15053153	-116	111	-3
15053481	-100	117	3
15053809	-93	128	-11
15054137	-77	125	-5
15054465	-39	110	-2
15054793	-40	134	2
15055121	-26	128	7
15055449	-13	134	-9
15055777	-18	129	9
15056105	-15	123	0
15056433	-13	115	8
15056761	-31	122	6
15057089	-11	117	14
15057417	-6	127	-3
15057745	7	110	-8
15058073	8	137	-8
15058401	-15	118	-7
15058729	-47	123	-11
15059057	-49	107	-13
15059385	-57	119	-21
15059713	-57	110	-21
15060041	-24	123	-4
15060369	-22	117	-15
15060697	-46	113	-24
15061025	-47	123	-14
15061353	-54	115	1
15061681	-81	113	-11
15062009	-76	111	-3
15062337	-48	106	-3
15062665	-63	104	-3
15062993	-53	114	-6
15063321	-54	120	-5
15063649	-56	106	-26
15063977	-48	108	-5
15064305	-74	102	-4
15064633	-66	110	-14
15064961	-68	117	-5
15065289	-49	99	-19
15065617	-74	82	-1
15065945	-82	103	-6
15066273	-100	84	6
15066601	-108	83	-11
15066929	-128	94	-4
15067257	-64	87	-2
15067585	-99	77	7
15067913	-126	79	-4
15068241	-94	107	-7
15068569	-71	105	-15
15068897	-85	111	-10
15069225	-87	100	-18
15069553	-78	107	-17
15069881	-96	101	-19
15070209	-81	91	-22
15070537	-79	112	-22
15070865	-54	110	-33
15071193	-48	114	-30
15071521	-55	112	-55
15071849	-43	114	-37
15072177	-60	119	-27
15072505	-80	116	-46
15072833	-95	115	-53
15073161	-109	114	-48
15073489	-118	97	-43
15073817	-89	99	-48
15074145	-95	106	-57
15074473	-99	119	-56
15074801	-91	100	-55
15075129	-83	114	-65
15075457	-81	135	-71
15075785	-70	137	-102
15076113	-39	141	-98
15076441	-31	130	-92
15076769	-71	127	-105
15077097	-75	123	-82
15077425	-81	124	-81
15077753	-46	135	-91
15078081	-30	133	-99
15078409	1	129	-101
15078737	20	118	-108
15079065	64	135	-112
15079393	59	150	-110
15079721	62	152	-131
15080049	80	158	-120
15080377	95	167	-140
15080705	82	152	-125
15081033	76	137	-113
15081361	51	130	-97
15081689	44	118	-80
15082017	44	138	-108
15082345	43	149	-110
15082673	78	156	-103
15083001	77	160	-118
15083329	66	172	-112
15083657	72	173	-111
15083985	70	166	-100
15084313	72	157	-76
15084641	67	173	-81
15084969	92	173	-91
15085297	94	167	-82
15085625	90	155	-100
15085953	69	164	-97
15086281	28	135	-83
15086609	6	131	-46
15086937	-9	135	-39
15087265	6	154	-46
15087593	24	138	-49
15087921	49	157	-30
15088249	63	144	-20
15088577	55	150	-27
15088905	62	128	-16
15089233	52	144	-19
15089561	45	128	-12
15089889	49	134	-5
15090217	29	119	1
15090545	27	123	3
15090873	19	117	8
15091201	12	102	-4
15091529	-2	101	10
15091857	-51	96	-10
15092185	-99	83	7
15092513	-109	74	11
15092841	-140	78	9
15093169	-148	52	-4
15093497	-171	81	-6
15093825	-181	68	-27
15094153	-217	70	-33
15094481	-245	54	-32
15094809	-274	72	-39
15095137	-273	80	-53
15095465	-262	66	-48
15095793	-260	88	-63
15096121	-264	95	-68
15096449	-276	95	-48
15096777	-262	94	-46
15097105	-270	97	-35
15097433	-250	99	-23
15097761	-200	115	-22
15098089	-141	124	-10
15098417	-114	129	-7
15098745	-68	129	-9
15099073	-69	128	0
15099401	-76	135	13
15099729	-83	124	17
15100057	-102	132	23
15100385	-101	133	23
15100713	-105	123	6
15101041	-109	135	23
15101369	-113	120	23
15101697	-118	120	30
15102025	-125	106	22
15102353	-136	103	22
15102681	-145	114	18
15103009	-159	111	6
15103337	-157	105	-10
15103665	-152	124	-2
15103993	-153	124	-4
15104321	-154	101	-14
15104649	-153	99	-7
15104977	-164	109	13
15105305	-180	114	-7
15105633	-187	112	-24
15105961	-161	129	-18
15106289	-123	162	-45
15106617	-80	170	-36
15106945	-36	156	-23
15107273	-19	152	-9
15107601	-9	155	-11
15107929	-25	174	-10
15108257	-9	169	-19
15108585	4	179	-31
15108913	21	180	-35
15109241	5	170	-37
15109569	14	168	-47
15109897	-11	169	-45
15110225	-26	169	-48
15110553	-53	171	-45
15110881	-37	171	-21
15111209	-5	174	-34
15111537	13	181	-25
15111865	5	183	-38
15112193	27	175	-48
15112521	21	176	-41
15112849	-7	175	-46
15113177	-25	172	-45
15113505	-54	153	-49
15113833	-50	163	-68
15114161	-48	170	-57
15114489	-55	171	-76
15114817	-52	158	-75
15115145	-81	162	-66
15115473	-89	168	-56
15115801	-93	144	-71
15116129	-106	160	-78
15116457	-97	152	-87
15116785	-83	165	-77
15117113	-71	156	-89
15117441	-64	161	-79
15117769	-76	158	-93
15118097	-97	160	-80
15118425	-124	160	-80
15118753	-154	160	-76
15119081	-149	152	-73
15119409	-125	173	-77
15119737	-96	173	-94
15120065	-70	196	-98
15120393	-53	191	-102
15120721	-50	205	-103
15121049	-43	196	-96
15121377	-55	195	-114
15121705	-19	204	-128
15122033	0	217	-122
15122361	-11	212	-104
15122689	-6	202	-91
15123017	-18	202	-100
15123345	-19	200	-97
15123673	-5	220	-102
15124001	7	194	-115
15124329	-28	183	-125
15124657	-60	184	-107
15124985	-89	172	-92
15125313	-106	173	-101
15125641	-116	175	-107
15125969	-113	172	-113
15126297	-135	151	-90
15126625	-133	158	-98
15126953	-124	171	-90
15127281	-105	191	-104
15127609	-82	176	-131
15127937	-113	151	-125
15128265	-150	153	-119
15128593	-162	134	-99
15128921	-180	151	-84
15129249	-201	139	-95
15129577	-155	157	-108
15129905	-130	78	-113
15130233	-130	-34	-115
15130561	-165	-84	-93
15130889	-173	-201	-83
15131217	-299	-955	-64
15131545	-370	-722	-89
15131873	-412	-582	-85
15132201	-549	-677	-90
15132529	-636	-558	-99
15132857	-650	-521	-100
15133185	-646	-480	-138
15133513	-619	-437	-156
15133841	-602	-279	-224
15134169	-521	-144	-206
15134497	-431	-85	-239
15134825	-445	-13	-266
15135153	-355	28	-223
15135481	-317	82	-225
15135809	-311	101	-235
15136137	-273	70	-267
15136465	-286	131	-269
15136793	-269	171	-305
15137121	-157	48	-323
15137449	-90	111	-340
15137777	-4	193	-394
15138105	149	206	-476
15138433	268	121	-576
15138761	368	172	-721
15139089	503	48	-907
15139417	536	-41	-1145
15139745	593	79	-1473
15140073	560	130	-1783
15140401	290	55	-2071
15140729	-198	239	-2171
15141057	-566	354	-2367
15141385	-1097	687	-2681
15141713	-1454	1152	-2739
15142041	-1463	1653	-3088
15142369	-1362	1917	-3264
15142697	-1246	1854	-3319
15143025	-995	1859	-3561
15143353	-1323	1507	-3482
15143681	-1990	769	-3314
15144009	-2751	339	-2902
15144337	-3063	38	-2689
15144665	-3486	-39	-2332
15144993	-3678	-393	-2316
15145321	-3917	-337	-2348
15145649	-3372	-134	-2077
15145977	-2290	651	-1133
15146305	-800	1122	-80
15146633	990	1474	837
15146961	3023	1762	1936
15147289	4495	2059	3125
15147617	5193	2807	4190
15147945	3987	3560	4424
15148273	2847	2755	3485
15148601	2141	3195	2142
15148929	1989	4997	1600
15149257	2702	5141	2262
15149585	3460	2395	3877
15149913	5413	364	3691
15150241	6710	670	3500
15150569	7832	703	3302
15150897	8555	576	3356
15151225	9026	-550	3238
15151553	8098	-882	4339
15151881	6491	-3186	4791
15152209	5220	-6409	5018
15152537	3726	-4612	3482
15152865	-193	-64	365
15153193	-302	-93	-617
15153521	224	-3105	266
15153849	-947	-2292	291
15154177	-2064	-298	172
15154505	-2123	-1056	460
15154833	-1899	-1391	820
15155161	-1422	-796	761
15155489	-755	-687	1145
15155817	76	-668	1284
15156145	788	463	1277
15156473	1238	1315	1006
15156801	1407	1260	681
15157129	1472	1075	329
15157457	1174	600	8
15157785	1039	53	-221
15158113	990	191	-496
15158441	657	367	-616
15158769	75	381	-882
15159097	-388	47	-1100
15159425	-1012	79	-1273
15159753	-1695	595	-1691
15160081	-1897	4576	-1489
15160409	-6834	7187	-5046
15160737	-8455	8537	-6928
15161065	-6876	-753	-4678
15161393	-4257	-4971	-387
15161721	-3092	-4792	-95
15162049	-3907	361	-1061
15162377	-3567	3257	-1184
15162705	-1337	-1811	988
15163033	-9958	2471	-3550
15163361	1929	-11912	-6942
15163689	-4039	-7664	-1212
15164017	-5486	4746	1274
15164345	-2479	7608	-2339
15164673	1879	5549	-3545
15165001	10139	2161	8
15165329	8327	-3911	1121
15165657	3993	-9896	6305
15165985	-244	-1201	3398
15166313	-2089	4482	1963
15166641	-2300	2846	200
15166969	-324	-277	2028
15167297	1528	204	1951
15167625	2467	-467	1148
15167953	1941	-724	915
15168281	1900	-1311	489
15168609	851	421	1164
15168937	745	113	317
15169265	363	5	602
15169593	481	94	542
15169921	122	127	545
15170249	-109	26	757
15170577	-427	-213	592
15170905	-1327	486	221
15171233	-1514	179	1
15171561	-1268	-779	-280
15171889	-821	-1154	-15
15172217	-538	-225	106
15172545	-789	344	91
15172873	-741	414	-22
15173201	-348	536	-203
15173529	176	753	65
15173857	710	368	272
15174185	887	410	219
15174513	830	495	226
15174841	580	366	245
15175169	368	178	261
15175497	-10	160	271
15175825	-326	136	303
15176153	-647	-51	211
15176481	-879	118	157
15176809	-1186	104	298
15177137	-1315	-186	231
15177465	-1319	98	156
15177793	-1225	146	367
15178121	-1140	-59	335
15178449	-844	149	124
15178777	-713	140	345
15179105	-559	-76	306
15179433	-414	134	129
15179761	-312	157	202
15180089	-261	23	157
15180417	-210	97	84
15180745	-176	132	59
15181073	-136	164	61
15181401	-114	20	60
15181729	-144	90	47
15182057	-100	81	9
15182385	-101	126	-9
15182713	-90	136	-20
15183041	-83	168	-33
15183369	-42	68	-37
15183697	-82	129	-64
15184025	-158	110	-44
15184353	-253	101	-88
15184681	-292	152	-83
15185009	-277	95	-27
15185337	-270	140	-65
15185665	-189	128	-72
15185993	-134	131	-81
15186321	-150	107	-61
15186649	-151	80	-2
15186977	-131	96	-13
15187305	-70	136	38
15187633	-52	151	-46
15187961	84	146	-63
15188289	135	64	-52
15188617	127	110	-26
15188945	98	162	-78
15189273	65	151	-77
15189601	18	119	-14
15189929	-30	122	-52
15190257	38	130	-34
15190585	40	88	-40
15190913	37	129	-25
15191241	57	79	-42
15191569	-21	116	-59
15191897	-44	110	-65
15192225	-52	99	-39
15192553	-96	72	-19
15192881	-157	94	-50
15193209	-170	136	-22
15193537	-126	64	-8
15193865	-122	95	-18
15194193	-130	124	-40
15194521	-79	81	-26
15194849	-69	124	-20
15195177	-69	95	-24
15195505	-84	104	-26
15195833	-77	99	2
15196161	-46	60	21
15196489	-26	105	1
15196817	-40	100	-20
15197145	-41	96	-23
15197473	-50	93	-4
15197801	-47	100	28
15198129	-48	111	-13
15198457	-56	96	12
15198785	-51	69	3
15199113	-44	92	-6
15199441	-61	127	-21
15199769	-55	106	-3
15200097	-58	109	15
15200425	-12	117	23
15200753	-8	118	6
15201081	20	127	5
15201409	36	124	-22
15201737	22	126	-34
15202065	-37	103	-13
15202393	-64	104	15
15202721	-43	101	41
15203049	-18	115	34
15203377	29	104	7
15203705	46	111	-3
15204033	59	81	4
15204361	42	86	10
15204689	8	87	16
15205017	-16	76	12
15205345	-9	105	8
15205673	-11	122	-4
15206001	16	117	-10
15206329	21	95	6
15206657	12	126	-8
15206985	-30	111	-16
15207313	-60	127	-27
15207641	-73	101	-16
15207969	-88	113	-16
15208297	-80	98	-1
15208625	-61	109	-17
15208953	-62	114	-41
15209281	-44	104	-38
15209609	-34	115	-20
15209937	-35	111	-17
15210265	-46	132	-47
15210593	-46	115	-46
15210921	-51	145	-51
15211249	-51	104	-30
15211577	-41	100	-44
15211905	-48	118	-38
15212233	-71	97	-26
15212561	-88	116	-29
15212889	-91	103	-53
15213217	-103	121	-50
15213545	-97	109	-41
15213873	-121	110	-44
15214201	-146	99	-37
15214529	-116	91	-46
15214857	-97	106	-37
15215185	-85	118	-47
15215513	-77	96	-70
15215841	-65	142	-43
15216169	-58	97	-35
15216497	-72	121	-36
15216825	-55	109	-22
15217153	-42	119	-49
15217481	-62	112	-52
15217809	-98	109	-47
15218137	-95	116	-32
15218465	-102	116	-41
15218793	-95	108	-46
15219121	-81	120	-50
15219449	-47	121	-36
15219777	-61	107	-39
15220105	-64	113	-24
15220433	-50	125	-41
15220761	-54	116	-43
15221089	-35	120	-50
15221417	-27	121	-55
15221745	-62	135	-56
15222073	-79	109	-47
15222401	-102	108	-50
15222729	-104	105	-28
15223057	-114	142	-28
15223385	-55	110	-51
15223713	-57	120	-36
15224041	-72	81	-25
15224369	-79	104	-17
15224697	-86	105	-24
15225025	-86	114	-15
15225353	-86	109	-32
15225681	-41	128	-27
15226009	-45	112	-35
15226337	-38	113	-33
15226665	-54	117	-25
15226993	-73	116	-24
15227321	-82	135	-37
15227649	-83	139	-41
15227977	-76	127	-38
15228305	-82	148	-39
15228633	-71	122	-35
15228961	-56	126	-47
15229289	-55	130	-43
15229617	-63	130	-50
15229945	-57	141	-42
15230273	-26	138	-36
15230601	-27	146	-44
15230929	-26	145	-49
15231257	-16	140	-48
15231585	-29	129	-45
15231913	-38	132	-50
15232241	-75	127	-39
15232569	-85	140	-36
15232897	-86	137	-54
15233225	-72	130	-55
15233553	-70	133	-53
15233881	-58	122	-48
15234209	-88	121	-38
15234537	-88	120	-62
15234865	-94	127	-49
15235193	-61	134	-51
15235521	-60	136	-40
15235849	-55	134	-37
15236177	-47	140	-50
15236505	-38	137	-55
15236833	-76	127	-58
15237161	-91	127	-53
15237489	-91	144	-56
15237817	-85	122	-45
15238145	-53	128	-65
15238473	-57	120	-66
15238801	-55	145	-58
15239129	-63	139	-53
15239457	-52	122	-53
15239785	-66	132	-64
15240113	-81	111	-54
15240441	-98	113	-64
15240769	-65	115	-65
15241097	-57	123	-68
15241425	-53	114	-63
15241753	-69	125	-80
15242081	-77	109	-64
15242409	-96	122	-49
15242737	-72	123	-62
15243065	-63	122	-51
15243393	-38	123	-63
15243721	-43	123	-46
15244049	-23	126	-54
15244377	-26	120	-43
15244705	-37	131	-54
15245033	-43	117	-56
15245361	-64	125	-50
15245689	-70	121	-38
15246017	-79	112	-41
15246345	-94	125	-45
15246673	-65	102	-32
15247001	-70	107	-43
15247329	-71	123	-50
15247657	-68	107	-31
15247985	-72	118	-30
15248313	-83	109	-51
15248641	-80	114	-49
15248969	-85	119	-45
15249297	-91	125	-45
15249625	-84	134	-44
15249953	-80	120	-62
15250281	-79	123	-44
15250609	-74	121	-45
15250937	-69	113	-54
15251265	-77	115	-51
15251593	-84	120	-50
15251921	-70	133	-50
15252249	-68	136	-49
15252577	-65	126	-58
15252905	-83	132	-46
15253233	-89	122	-47
15253561	-91	131	-46
15253889	-91	128	-49
15254217	-74	123	-43
15254545	-60	119	-37
15254873	-47	130	-37
15255201	-47	123	-42
15255529	-68	115	-57
15255857	-76	125	-52
15256185	-102	138	-42
15256513	-90	121	-48
15256841	-82	119	-50
15257169	-90	126	-56
15257497	-80	118	-45
15257825	-74	122	-45
15258153	-46	122	-47
15258481	-41	135	-55
15258809	-28	115	-58
15259137	-71	107	-58
15259465	-82	116	-57
15259793	-118	80	-38
15260121	-121	114	-49
15260449	-125	94	-66
15260777	-128	102	-71
15261105	-100	95	-60
15261433	-85	104	-55
15261761	-76	108	-65
15262089	-86	108	-57
15262417	-95	107	-83
15262745	-84	111	-68
15263073	-88	95	-67
15263401	-90	110	-79
15263729	-81	98	-57
15264057	-60	121	-76
15264385	-54	129	-77
15264713	-85	136	-68
15265041	-93	120	-67
15265369	-91	129	-64
15265697	-92	112	-53
15266025	-82	129	-55
15266353	-74	111	-48
15266681	-72	114	-63
15267009	-102	114	-49
15267337	-113	112	-32
15267665	-114	109	-38
15267993	-145	114	-44
15268321	-139	122	-59
15268649	-121	127	-41
15268977	-112	112	-47
15269305	-93	123	-39
15269633	-76	124	-32
15269961	-75	115	-42
15270289	-77	107	-42
15270617	-99	120	-38
15270945	-80	128	-41
15271273	-88	133	-48
15271601	-85	132	-31
15271929	-88	136	-25
15272257	-84	114	-34
15272585	-91	133	-32
15272913	-81	127	-19
15273241	-69	119	-25
15273569	-46	133	-28
15273897	-48	136	-19
15274225	-52	122	-17
15274553	-59	131	-36
15274881	-82	129	-11
15275209	-105	127	-2
15275537	-79	117	-5
15275865	-102	122	-2
15276193	-81	116	-9
15276521	-84	124	8
15276849	-73	122	4
15277177	-69	103	-4
15277505	-67	113	1
15277833	-76	97	-4
15278161	-75	117	10
15278489	-98	118	-5
15278817	-120	122	-3
15279145	-89	122	10
15279473	-88	138	16
15279801	-54	124	13
15280129	-46	109	19
15280457	-45	118	0
15280785	-71	132	-1
15281113	-102	116	-2
15281441	-112	129	6
15281769	-101	133	4
15282097	-79	128	-4
15282425	-67	128	5
15282753	-73	128	-8
15283081	-71	112	12
15283409	-74	117	-5
15283737	-87	126	9
15284065	-67	124	-3
15284393	-66	124	2
15284721	-45	121	-9
15285049	-40	117	-5
15285377	-44	120	-13
15285705	-66	112	-4
15286033	-75	122	2
15286361	-52	114	19
15286689	-48	120	17
15287017	-50	102	5
15287345	-39	111	25
15287673	-44	102	17
15288001	-58	104	17
15288329	-66	116	18
15288657	-81	113	21
15288985	-60	100	16
15289313	-58	106	17
15289641	-48	107	21
15289969	-54	94	36
15290297	-60	101	20
15290625	-44	103	13
15290953	-45	95	27
15291281	-32	102	27
15291609	-47	97	11
15291937	-52	106	7
15292265	-58	105	8
15292593	-74	90	16
15292921	-72	103	19
15293249	-55	95	16
15293577	-70	105	11
15293905	-49	103	4
15294233	-58	88	1
15294561	-49	100	-7
15294889	-54	100	-9
15295217	-50	109	-12
15295545	-54	108	2
15295873	-68	98	-6
15296201	-82	98	1
15296529	-68	104	-2
15296857	-69	93	-8
15297185	-49	95	-11
15297513	-37	93	-14
15297841	-60	98	-10
15298169	-77	99	-10
15298497	-89	95	-11
15298825	-83	91	-1
15299153	-66	105	-12
15299481	-35	109	-5
15299809	-55	86	-7
15300137	-53	105	-18
15300465	-44	103	-1
15300793	-66	101	4
15301121	-75	93	-1
15301449	-81	87	-5
15301777	-63	83	-8
15302105	-77	94	14
15302433	-47	105	-2
15302761	-43	86	3
15303089	-31	97	-12
15303417	-36	93	-17
15303745	-61	77	12
15304073	-88	72	-1
15304401	-100	88	0
15304729	-84	105	8
15305057	-32	84	8
15305385	-29	64	14
15305713	-54	85	12
15306041	-62	96	14
15306369	-55	83	10
15306697	-74	97	15
15307025	-78	97	10
15307353	-85	95	19
15307681	-86	87	18
15308009	-58	81	10
15308337	-44	69	22
15308665	-26	83	-2
15308993	-18	73	34
15309321	-6	80	21
15309649	-36	68	37
15309977	-70	60	39
15310305	-59	77	36
15310633	-54	76	40
15310961	-37	75	40
15311289	-28	63	38
15311617	-22	62	48
15311945	-13	63	38
15312273	-18	69	38
15312601	3	61	45
15312929	-12	29	42
15313257	-14	35	61
15313585	5	53	67
15313913	63	64	56
15314241	127	51	68
15314569	167	-5	86
15314897	98	-17	102
15315225	81	-21	137
15315553	78	-34	153
15315881	102	-9	120
15316209	148	10	121
15316537	187	16	117
15316865	170	-4	108
15317193	154	0	111
15317521	162	-19	120
15317849	126	-26	135
15318177	92	-80	123
15318505	32	-98	111
15318833	25	-81	128
15319161	40	-85	118
15319489	44	-92	113
15319817	58	-129	109
15320145	86	-142	101
15320473	157	-145	73
15320801	180	-148	44
15321129	170	-211	15
15321457	113	-240	-19
15321785	25	-264	-18
15322113	13	-272	-28
15322441	-3	-268	-77
15322769	23	-287	-134
15323097	58	-306	-166
15323425	103	-333	-187
15323753	107	-315	-225
15324081	81	-408	-253
15324409	-42	-1610	-262
15324737	-267	-2454	-247
15325065	-186	-1856	-315
15325393	-100	-1833	-502
15325721	41	-1279	-624
15326049	-150	-888	-905
15326377	-55	-505	-1118
15326705	64	-156	-1306
15327033	171	242	-1295
15327361	357	581	-1319
15327689	593	1063	-1261
15328017	811	1324	-1302
15328345	985	1449	-1368
15328673	1064	1463	-1354
15329001	1097	1438	-1311
15329329	1069	1468	-1307
15329657	1074	1512	-1385
15329985	967	1588	-1521
15330313	501	1482	-1602
15330641	-63	1342	-1636
15330969	-799	1434	-1669
15331297	-1388	1360	-1728
15331625	-1863	1328	-1884
15331953	-2174	824	-2080
15332281	-2361	346	-2131
15332609	-2470	239	-2178
15332937	-2442	-42	-2138
15333265	-2318	-395	-2028
15333593	-2233	-551	-2057
15333921	-2152	-620	-2086
15334249	-2145	-695	-2077
15334577	-2143	-609	-2070
15334905	-2069	-472	-2015
15335233	-1898	-494	-1953
15335561	-1724	-579	-1912
15335889	-1517	-712	-1865
15336217	-1414	-809	-1825
15336545	-1173	-1148	-1771
15336873	-1056	-1434	-1642
15337201	-1012	-1592	-1504
15337529	-1018	-1753	-1389
15337857	-1041	-1826	-1261
15338185	-1051	-1942	-1116
15338513	-1161	-1982	-994
15338841	-1307	-1958	-889
15339169	-1442	-1994	-784
15339497	-1533	-2175	-728
15339825	-1612	-2298	-658
15340153	-1749	-2377	-602
15340481	-1888	-2423	-590
15340809	-1990	-2390	-558
15341137	-2085	-2339	-506
15341465	-2024	-2210	-482
15341793	-2028	-2133	-443
15342121	-1942	-2294	-379
15342449	-1961	-2214	-334
15342777	-2019	-2043	-337
15343105	-2087	-1967	-325
15343433	-2254	-2020	-284
15343761	-2460	-2052	-241
15344089	-2770	-2002	-215
15344417	-3121	-1831	-160
15344745	-3570	-1767	-59
15345073	-4015	-1709	47
15345401	-4425	-1648	193
15345729	-4471	-1585	274
15346057	-4300	-1441	253
15346385	-3766	-919	245
15346713	-3056	-635	263
15347041	-2301	-721	381
15347369	-1629	-756	436
15347697	-1006	-542	401
15348025	-314	-351	348
15348353	-40	-238	328
15348681	35	-131	297
15349009	27	-13	253
15349337	-154	-192	436
15349665	-568	-569	699
15349993	-1152	-643	885
15350321	-1558	-623	1018
15350649	-1789	-630	999
15350977	-1811	-506	914
15351305	-1529	-287	842
15351633	-1242	-234	822
15351961	-857	-50	895
15352289	-631	37	1033
15352617	-531	123	1123
15352945	-652	205	1177
15353273	-849	275	1157
15353601	-1126	406	1165
15353929	-1387	535	1038
15354257	-1451	639	951
15354585	-1374	680	948
15354913	-1163	653	1024
15355241	-942	794	1116
15355569	-707	905	1190
15355897	-609	868	1193
15356225	-598	785	1096
15356553	-608	790	1046
15356881	-603	774	1043
15357209	-554	808	1049
15357537	-673	683	1132
15357865	-949	615	1073
15358193	-1203	487	1033
15358521	-1467	417	920
15358849	-1583	373	738
15359177	-1491	406	542
15359505	-1254	443	342
15359833	-1041	466	198
15360161	-892	403	124
15360489	-796	440	32
15360817	-716	450	-59
15361145	-604	289	-156
15361473	-510	180	-190
15361801	-577	11	-167
15362129	-752	-127	-157
15362457	-875	-44	-231
15362785	-936	3	-297
15363113	-896	64	-433
15363441	-788	37	-571
15363769	-638	-15	-660
15364097	-481	-41	-754
15364425	-387	-28	-806
15364753	-400	-47	-869
15365081	-452	-453	-969
15365409	-156	-2417	-1080
15365737	-421	-3434	-1108
15366065	-423	-2747	-1292
15366393	-389	-3873	-1469
15366721	-294	-3511	-1449
15367049	-72	-2311	-1524
15367377	-127	-2169	-1484
15367705	-179	-1675	-1492
15368033	-114	-972	-1545
15368361	-111	-870	-1558
15368689	-64	-906	-1578
15369017	-126	-896	-1473
15369345	-215	-852	-1399
15369673	-271	-749	-1293
15370001	-385	-814	-1238
15370329	-360	-987	-1252
15370657	-241	-1040	-1286
15370985	-187	-826	-1237
15371313	-75	-629	-1147
15371641	22	-542	-1067
15371969	119	-364	-1062
15372297	238	-108	-1065
15372625	326	-55	-1023
15372953	334	133	-925
15373281	335	353	-839
15373609	329	414	-804
15373937	415	479	-764
15374265	431	437	-707
15374593	499	463	-655
15374921	549	508	-599
15375249	554	611	-560
15375577	517	602	-526
15375905	569	476	-535
15376233	632	519	-483
15376561	626	718	-448
15376889	524	771	-391
15377217	430	893	-368
15377545	375	954	-352
15377873	393	989	-342
15378201	461	1133	-340
15378529	470	1218	-345
15378857	491	1052	-337
15379185	432	1041	-290
15379513	363	1225	-281
15379841	242	1382	-265
15380169	167	1564	-247
15380497	125	1624	-254
15380825	59	1659	-267
15381153	-30	1764	-218
15381481	-149	1339	-147
15381809	-232	797	-107
15382137	-164	471	-77
15382465	-142	423	-88
15382793	-70	631	-116
15383121	0	686	-113
15383449	131	841	-112
15383777	260	1159	-136
15384105	411	1452	-143
15384433	474	1694	-154
15384761	545	1718	-139
15385089	533	1582	-113
15385417	582	1453	-86
15385745	591	1221	-97
15386073	701	564	-74
15386401	820	516	-95
15386729	1006	839	-70
15387057	1331	1056	-8
15387385	1783	1536	98
15387713	2323	2061	287
15388041	2763	2400	353
15388369	3268	2635	313
15388697	3683	2854	306
15389025	3906	2692	321
15389353	4003	2293	444
15389681	3970	2258	502
15390009	3844	2142	465
15390337	3663	1988	476
15390665	3395	1918	597
15390993	3011	1812	642
15391321	2647	1735	673
15391649	2372	1512	614
15391977	2090	1363	602
15392305	1807	1187	592
15392633	1486	1060	620
15392961	964	895	768
15393289	608	419	875
15393617	308	245	942
15393945	239	160	947
15394273	313	-334	979
15394601	204	-593	978
15394929	55	-875	966
15395257	-41	-968	867
15395585	-44	-957	743
15395913	99	-808	691
15396241	263	-646	697
15396569	511	-572	723
15396897	663	-491	709
15397225	804	-469	585
15397553	1073	-537	350
15397881	1406	-676	175
15398209	1752	-658	67
15398537	1943	-673	100
15398865	2060	-632	281
15399193	2122	-611	294
15399521	2384	-515	168
15399849	2703	-366	6
15400177	3003	-412	-158
15400505	3270	-510	-352
15400833	3365	-666	-441
15401161	3349	-869	-508
15401489	3214	-955	-550
15401817	3026	-1159	-556
15402145	2905	-1191	-574
15402473	2887	-1213	-660
15402801	3034	-1337	-741
15403129	3252	-1529	-849
15403457	3514	-1796	-897
15403785	3689	-1981	-914
15404113	3547	-2187	-1054
15404441	3752	-2038	-1111
15404769	4213	-2441	-1023
15405097	4595	-2445	-909
15405425	4807	-2288	-806
15405753	5425	-2585	-451
15406081	6175	-2599	-284
15406409	7083	-2438	-87
15406737	8200	-2071	62
15407065	9671	-3721	326
15407393	11541	-3286	609
15407721	13807	-432	910
15408049	16448	1379	1217
15408377	18327	2321	1600
15408705	19216	2587	1539
15409033	19276	2974	1272
15409361	18405	3177	933
15409689	16946	4139	446
15410017	15147	5144	-539
15410345	12625	6153	-1787
15410673	10023	6960	-3239
15411001	8608	8704	-4868
15411329	8355	10019	-5589
15411657	8703	10875	-6132
15411985	9306	11610	-6555
15412313	9720	11650	-6457
15412641	10021	10962	-6495
15412969	9592	10552	-6296
15413297	8689	9656	-6065
15413625	7468	8588	-5789
15413953	6307	8510	-5633
15414281	5346	8303	-5315
15414609	4959	7898	-4987
15414937	4941	7759	-4430
15415265	5009	7669	-3677
15415593	5299	7162	-2586
15415921	5857	6552	-1646
15416249	6081	6151	-1213
15416577	6105	5583	-910
15416905	5999	5021	-513
15417233	5697	4559	-198
15417561	5254	3652	40
15417889	4614	3222	57
15418217	3835	2689	-170
15418545	3275	2672	26
15418873	2963	2325	138
15419201	2558	2275	388
15419529	2445	2055	469
15419857	2296	2398	545
15420185	2561	2347	904
15420513	2594	2108	1206
15420841	2677	2186	1102
15421169	2713	2113	1293
15421497	2912	2045	1448
15421825	2900	2182	1508
15422153	2973	2090	1295
15422481	2832	1930	996
15422809	2724	1936	665
15423137	2534	1752	226
15423465	2330	1664	-126
15423793	2108	1754	-394
15424121	1862	1603	-528
15424449	1528	1539	-597
15424777	1344	1698	-433
15425105	1390	1592	-342
15425433	1510	1358	-275
15425761	1528	1227	-299
15426089	1623	1191	-509
15426417	1599	1031	-748
15426745	1199	887	-979
15427073	503	871	-1251
15427401	-368	884	-1500
15427729	-1347	867	-1800
15428057	-2437	908	-2054
15428385	-3412	960	-2267
15428713	-4264	483	-2284
15429041	-4824	-234	-1643
15429369	-5131	-721	-1997
15429697	-5320	-1594	-2683
15430025	-5833	-2065	-1891
15430353	-6187	-757	-1787
15430681	-6026	-1	-1720
15431009	-5442	-188	-1752
15431337	-4711	450	-1759
15431665	-3660	711	-1650
15431993	-2499	310	-1315
15432321	-1742	-64	-1203
15432649	-1331	-197	-1327
15432977	-1212	197	-1441
15433305	-1275	736	-1368
15433633	-1512	1126	-1249
15433961	-1681	1320	-1177
15434289	-1594	1659	-1075
15434617	-1469	1654	-1091
15434945	-1162	1691	-1300
15435273	-664	1692	-1525
15435601	-139	1872	-1736
15435929	308	2232	-1866
15436257	778	2537	-2070
15436585	1300	3092	-1974
15436913	1584	2935	-2248
15437241	1747	3542	-2070
15437569	1905	3484	-2152
15437897	2109	3381	-2217
15438225	2453	3357	-2401
15438553	2733	3338	-2593
15438881	2581	3157	-2733
15439209	2279	3073	-2684
15439537	2090	3279	-2558
15439865	1895	3464	-2454
15440193	1753	3523	-2400
15440521	1794	3562	-2352
15440849	1971	3411	-2367
15441177	2207	3335	-2394
15441505	2391	2169	-2440
15441833	2489	1484	-2512
15442161	2991	2012	-2569
15442489	3358	2020	-2641
15442817	3710	1889	-2658
15443145	3988	2000	-2678
15443473	4153	2267	-2827
15443801	3975	2105	-3211
15444129	3545	1958	-3697
15444457	3037	2159	-4204
15444785	2904	1437	-4700
15445113	2625	-830	-4898
15445441	3212	-284	-5253
15445769	3760	931	-5646
15446097	3960	-471	-6183
15446425	4132	-84	-6664
15446753	4083	1526	-6791
15447081	2935	1611	-6582
15447409	1611	1500	-6643
15447737	965	1514	-6940
15448065	897	1373	-7032
15448393	1058	798	-6768
15448721	1699	144	-5789
15449049	3145	-814	-4187
15449377	4293	-1232	-1161
15449705	5206	-2512	1971
15450033	5891	-3922	4590
15450361	6226	-4663	6080
15450689	6353	-4723	6949
15451017	7171	-3717	7306
15451345	7240	-3050	6586
15451673	6751	-3630	5617
15452001	6510	-3219	5268
15452329	5827	-2973	5172
15452657	4171	-3503	5261
15452985	1870	-3978	5504
15453313	-330	-4459	5698
15453641	-1154	-4504	4486
15453969	-1113	-3627	3149
15454297	-1218	-2308	786
15454625	-1906	-1230	-560
15454953	-2907	712	-2812
15455281	-2331	1894	-3733
15455609	-999	1189	-3384
15455937	-272	-346	-2172
15456265	15	-822	-1015
15456593	423	-790	223
15456921	1618	-167	1016
15457249	2979	750	1257
15457577	4032	874	948
15457905	3577	852	393
15458233	2429	540	349
15458561	1732	1016	971
15458889	883	1279	1157
15459217	188	1354	1316
15459545	661	779	1072
15459873	1842	930	883
15460201	2116	1053	941
15460529	1589	1248	1058
15460857	499	1941	712
15461185	-819	1769	207
15461513	-1448	561	-60
15461841	-1460	220	-346
15462169	-1607	204	-629
15462497	-2466	-246	-492
15462825	-3762	-596	-736
15463153	-5139	-498	-769
15463481	-6203	-846	-877
15463809	-7082	-1145	-772
15464137	-7766	-1598	-435
15464465	-8323	-2377	160
15464793	-8807	-3091	865
15465121	-8911	-3728	1579
15465449	-9140	-4307	2425
15465777	-9467	-4631	3152
15466105	-9587	-4474	3596
15466433	-9345	-3904	3522
15466761	-8838	-3474	3121
15467089	-7896	-3021	2405
15467417	-7092	-2815	1701
15467745	-6501	-2565	1251
15468073	-6564	-2171	1410
15468401	-6414	-1950	1617
15468729	-5167	-2275	1991
15469057	-4274	-2779	2285
15469385	-3309	-2225	2268
15469713	-2981	-1710	2317
15470041	-2749	-1277	2354
15470369	-2435	-913	2633
15470697	-1909	-323	3031
15471025	-1501	200	3530
15471353	-1679	970	3670
15471681	263	2211	4150
15472009	1323	2975	4645
15472337	3216	3991	4780
15472665	4197	5265	4987
15472993	5765	5598	4856
15473321	5932	4872	4620
15473649	4437	2283	4238
15473977	2056	-126	1834
15474305	1189	1178	1643
15474633	1051	5086	2272
15474961	1575	5956	2603
15475289	3212	5422	3530
15475617	4247	2666	2946
15475945	4486	755	2408
15476273	3717	1172	2234
15476601	2658	901	2451
15476929	1469	748	3016
15477257	-103	1319	3065
15477585	-1446	1344	2672
15477913	-1867	1489	2404
15478241	-1802	761	2229
15478569	-1774	23	2115
15478897	-2008	-70	2017
15479225	-2234	-291	1966
15479553	-2485	-450	2031
15479881	-2912	-496	1915
15480209	-3356	-232	1724
15480537	-3552	86	1547
15480865	-3756	-173	1434
15481193	-3845	-561	1421
15481521	-3930	-516	1144
15481849	-3915	-595	926
15482177	-3946	-949	683
15482505	-4049	-797	495
15482833	-4497	-885	284
15483161	-4821	-1703	61
15483489	-5216	-1627	-203
15483817	-5601	-1424	-592
15484145	-5999	-1588	-745
15484473	-6348	-1827	-915
15484801	-6531	-2096	-1264
15485129	-7118	-1924	-1581
15485457	-8113	-1919	-1634
15485785	-9135	-3495	-1993
15486113	-9939	-4894	-2254
15486441	-10774	-5386	-2386
15486769	-11643	-6101	-2644
15487097	-12865	-8172	-3011
15487425	-14256	-9874	-4406
15487753	-15760	-10943	-5693
15488081	-17242	-12910	-6823
15488409	-18990	-14761	-7728
15488737	-21138	-16372	-8169
15489065	-23805	-18586	-8253
15489393	-25694	-19078	-8671
15489721	-27001	-18759	-8951
15490049	-27438	-18792	-9127
15490377	-27182	-18400	-8775
15490705	-26471	-17587	-8086
15491033	-25516	-16884	-7093
15491361	-23964	-15791	-6216
15491689	-21512	-14383	-5305
15492017	-18752	-12934	-4205
15492345	-15919	-11233	-3199
15492673	-13174	-9557	-2221
15493001	-10279	-8019	-1346
15493329	-7692	-6718	-672
15493657	-5656	-5755	-164
15493985	-4050	-4545	156
15494313	-3030	-3541	271
15494641	-2403	-2686	176
15494969	-1726	-1575	-93
15495297	-1616	-1116	249
15495625	-802	-120	-192
15495953	-811	265	-692
15496281	-1196	-583	-1153
15496609	-1742	-632	-1324
15496937	-2543	-1196	-1821
15497265	-3483	-1091	-2399
15497593	-4342	-840	-2678
15497921	-5080	-946	-2254
15498249	-4960	-1184	-1834
15498577	-3786	-1924	-2014
15498905	-2543	-2873	-2624
15499233	-2345	-2708	-3141
15499561	-2571	-2299	-2982
15499889	-2818	-2650	-2565
15500217	-2827	-3002	-2016
15500545	-2284	-2624	-1613
15500873	-1502	-1932	-1337
15501201	-510	-1159	-1082
15501529	829	-1502	-706
15501857	2107	-2779	-803
15502185	2962	-4185	-438
15502513	3481	-5688	-341
15502841	3402	-5937	53
15503169	3005	-6160	686
15503497	2343	-5977	1224
15503825	1334	-4566	1579
15504153	-31	-3883	1903
15504481	-880	-3803	2232
15504809	-1236	-4786	2621
15505137	-3582	-6126	2656
15505465	-4940	-6120	2497
15505793	-6710	-5047	1921
15506121	-9070	-4954	1014
15506449	-10612	-4047	-190
15506777	-10683	-2958	-525
15507105	-10398	-2508	495
15507433	-9742	-2859	2074
15507761	-8237	-2997	3800
15508089	-6574	-2464	5085
15508417	-5156	-825	5428
15508745	-3372	565	4632
15509073	-989	1350	4517
15509401	232	1117	4644
15509729	1389	1477	4771
15510057	2102	2197	4623
15510385	2402	3005	4404
15510713	1851	3928	4129
15511041	604	2275	4071
15511369	-422	-850	925
15511697	-401	911	1333
15512025	-1268	4593	1506
15512353	-576	6906	2055
15512681	359	6170	2027
15513009	1613	2903	1435
15513337	2152	563	991
15513665	1423	-1047	867
15513993	718	-173	979
15514321	111	276	998
15514649	-306	-1200	1863
15514977	-586	-832	1473
15515305	-570	-477	1210
15515633	-452	-1163	932
15515961	-323	-786	1008
15516289	30	-176	1172
15516617	94	131	1229
15516945	125	433	1216
15517273	40	-245	1062
15517601	-343	-339	901
15517929	-729	-198	736
15518257	-1281	-588	577
15518585	-1863	-325	454
15518913	-2615	-15	381
15519241	-3013	14	315
15519569	-3426	258	259
15519897	-3836	644	201
15520225	-4096	314	-97
15520553	-4362	-729	-293
15520881	-4456	-854	-433
15521209	-4644	-871	-567
15521537	-5142	-1233	-718
15521865	-5525	-1187	-786
15522193	-6152	-1297	-1191
15522521	-6866	-1374	-1578
15522849	-7104	-1231	-2003
15523177	-6886	-691	-2202
15523505	-6458	-353	-2333
15523833	-5941	-86	-2500
15524161	-4984	44	-2665
15524489	-4043	-42	-2917
15524817	-3230	31	-3247
15525145	-2713	296	-3650
15525473	-2496	497	-4046
15525801	-2437	889	-4466
15526129	-2709	835	-4677
15526457	-3217	751	-5056
15526785	-3420	1022	-5216
15527113	-3743	1108	-5358
15527441	-4566	295	-5184
15527769	-5313	-1125	-5238
15528097	-6443	-469	-5217
15528425	-6997	-650	-5313
15528753	-6099	-945	-3911
15529081	-8754	-1102	-2582
15529409	-10095	-3435	375
15529737	-8708	-4897	3118
15530065	-5901	-2603	6303
15530393	-3787	-1774	7987
15530721	-3359	-2646	9608
15531049	-2976	-3278	10970
15531377	-2868	-3585	12788
15531705	-2857	-6154	13524
15532033	-2818	-7694	14038
15532361	-2953	-7800	14440
15532689	-3415	-8826	14418
15533017	-3920	-10322	14352
15533345	-4693	-11153	14161
15533673	-5050	-12079	13109
15534001	-5230	-12764	12997
15534329	-5324	-12620	13456
15534657	-6351	-10736	13128
15534985	-7686	-11045	12707
15535313	-9700	-10588	12390
15535641	-11299	-9652	11573
15535969	-12170	-10019	10288
15536297	-12278	-10331	8818
15536625	-12118	-11065	6828
15536953	-12335	-10797	4929
15537281	-12609	-11043	3782
15537609	-12491	-11114	2492
15537937	-12017	-9646	459
15538265	-11302	-7304	-1236
15538593	-10874	-4822	-3134
15538921	-10469	-3817	-4273
15539249	-10055	-2068	-5376
15539577	-9824	-678	-6185
15539905	-9301	-358	-6397
15540233	-8236	620	-5753
15540561	-7117	585	-5242
15540889	-5865	3267	-5057
15541217	-4180	3883	-4461
15541545	-2564	2572	-3619
15541873	-1502	1907	-2951
15542201	-1589	3379	-2184
15542529	-2124	3313	326
15542857	-1262	2826	1685
15543185	-365	2768	-2876
15543513	-762	3116	-4073
15543841	-1472	4719	-3295
15544169	-1298	5293	-1817
15544497	-132	4365	-646
15544825	1150	3973	84
15545153	2485	2683	-87
15545481	3049	1848	-312
15545809	3579	2731	-92
15546137	4345	1750	-646
15546465	3583	2022	-372
15546793	2468	2079	-301
15547121	2279	2092	-631
15547449	2034	2488	-712
15547777	1094	2699	-437
15548105	-232	2934	-413
15548433	-1139	3319	-547
15548761	-1265	2838	-856
15549089	-1136	1276	-1372
15549417	-1174	44	-1700
15549745	-1459	63	-1666
15550073	-1808	444	-1395
15550401	-2047	721	-1085
15550729	-2023	713	-993
15551057	-1687	703	-1079
15551385	-1118	836	-1203
15551713	-520	1308	-965
15552041	-80	1259	-683
15552369	512	923	-469
15552697	995	862	-483
15553025	1290	502	-508
15553353	1216	422	-399
15553681	1081	577	-253
15554009	1043	316	-139
15554337	1160	-51	-29
15554665	1245	-139	-29
15554993	1187	-269	-46
15555321	981	-320	46
15555649	705	-173	157
15555977	555	-203	292
15556305	507	-245	397
15556633	552	-464	434
15556961	642	-653	431
15557289	530	-835	396
15557617	349	-1084	354
15557945	235	-1264	412
15558273	133	-1492	496
15558601	56	-1642	551
15558929	30	-1673	676
15559257	122	-2013	744
15559585	297	-2452	724
15559913	361	-2628	822
15560241	405	-2838	968
15560569	466	-3061	1066
15560897	451	-3080	1219
15561225	477	-3424	1276
15561553	535	-3509	1387
15561881	712	-3743	1612
15562209	1000	-4102	1786
15562537	1243	-4205	1939
15562865	1450	-4030	2151
15563193	1811	-3977	2383
15563521	2522	-3938	2614
15563849	3220	-3542	2936
15564177	3988	-3161	3289
15564505	4938	-2847	3903
15564833	6051	-2735	4592
15565161	7105	-2263	5132
15565489	8235	-2878	5721
15565817	9483	-3493	6430
15566145	10467	-3383	6877
15566473	10977	-3107	6363
15566801	10841	-2781	5763
15567129	9638	-2643	4270
15567457	8329	-1849	1675
15567785	7331	680	-1022
15568113	6494	1759	-4130
15568441	6044	3338	-6873
15568769	5471	4399	-9111
15569097	5141	5126	-10322
15569425	5029	5277	-11369
15569753	4481	6565	-11764
15570081	4062	6348	-12238
15570409	3841	6577	-13041
15570737	4287	7354	-13297
15571065	5071	7814	-13321
15571393	6191	8094	-13095
15571721	6783	8337	-12567
15572049	7607	8411	-11982
15572377	7659	8294	-11631
15572705	7470	8048	-11618
15573033	7355	8103	-11620
15573361	6870	8145	-11426
15573689	6868	8640	-10734
15574017	6999	8242	-10358
15574345	7638	8443	-9169
15574673	8315	8760	-8053
15575001	9043	9187	-6960
15575329	10387	10236	-5406
15575657	11335	10483	-3918
15575985	12440	10825	-2739
15576313	13301	11749	-1505
15576641	13963	12094	-346
15576969	14790	12226	604
15577297	15479	12419	1365
15577625	15949	12513	2298
15577953	16516	12106	3252
15578281	17122	11778	3639
15578609	16990	11469	4311
15578937	16980	11330	4454
15579265	16150	10941	4934
15579593	15068	10549	5292
15579921	14055	10563	5151
15580249	12514	10764	5036
15580577	11153	10097	4831
15580905	9726	9456	4386
15581233	8381	8360	3547
15581561	6886	6629	2850
15581889	4617	4559	1847
15582217	1661	1555	861
15582545	-1157	-581	-1204
15582873	-2539	-1079	-1945
15583201	-4477	922	-890
15583529	-5628	2053	665
15583857	-3980	4432	2115
15584185	-1771	5865	3552
15584513	-855	4667	3662
15584841	-257	2742	1564
15585169	1750	1428	-728
15585497	3611	814	-1934
15585825	4484	289	-1257
15586153	4160	437	-261
15586481	2678	797	1215
15586809	1028	1639	1643
15587137	329	2715	1339
15587465	329	3030	707
15587793	513	2477	49
15588121	1066	1880	-309
15588449	1236	1428	-193
15588777	1149	1139	-121
15589105	932	1151	-134
15589433	1041	1026	-299
15589761	1353	1150	-645
15590089	1804	1173	-974
15590417	2159	917	-1229
15590745	2315	563	-1369
15591073	2253	518	-1487
15591401	2104	770	-1582
15591729	1918	902	-1639
15592057	1750	1029	-1720
15592385	1754	1098	-1724
15592713	1980	1167	-1812
15593041	2270	905	-1740
15593369	2641	358	-1775
15593697	3043	-225	-1949
15594025	3244	-396	-2060
15594353	3565	817	-2042
15594681	4112	1251	-2073
15595009	4353	1241	-2093
15595337	4333	1503	-2104
15595665	4301	1837	-2326
15595993	4499	1953	-2449
15596321	4857	1680	-2506
15596649	5239	1100	-2720
15596977	5584	496	-2822
15597305	6112	282	-2807
15597633	6486	-336	-2752
15597961	6923	225	-2720
15598289	7354	1117	-2911
15598617	7837	1024	-3083
15598945	8626	934	-3313
15599273	9370	1439	-3488
15599601	10058	1879	-3620
15599929	10460	1772	-3647
15600257	10466	1414	-3742
15600585	10321	1266	-3806
15600913	10146	1377	-3770
15601241	9802	1296	-3611
15601569	9012	1021	-3423
15601897	8273	924	-3326
15602225	7782	1265	-3409
15602553	7429	1363	-3470
15602881	7364	1530	-3402
15603209	7441	1738	-2961
15603537	7384	1930	-2552
15603865	6937	2099	-2327
15604193	6387	2129	-2150
15604521	5784	2039	-2015
15604849	5310	1815	-1906
15605177	4964	1535	-1934
15605505	4600	1065	-1941
15605833	4138	485	-1820
15606161	3390	-54	-1534
15606489	2465	-536	-1290
15606817	1518	-863	-1162
15607145	539	-1262	-955
15607473	-516	-1541	-813
15607801	-1193	-1800	-694
15608129	-1561	-1936	-597
15608457	-1589	-1712	-588
15608785	-1637	-1448	-643
15609113	-1861	-1330	-528
15609441	-1847	-1288	-576
15609769	-1662	-1038	-537
15610097	-1273	-904	-241
15610425	-978	-613	-55
15610753	-757	-297	56
15611081	-808	-67	164
15611409	-864	288	143
15611737	-838	728	110
15612065	-622	1391	167
15612393	-86	2316	293
15612721	825	3005	343
15613049	1379	3024	147
15613377	1347	2672	202
15613705	817	2095	455
15614033	-9	947	664
15614361	-1107	-835	882
15614689	-1606	-404	962
15615017	-1883	241	829
15615345	-1880	73	762
15615673	-1646	87	702
15616001	-1128	618	570
15616329	-504	925	532
15616657	73	1085	412
15616985	429	1353	243
15617313	559	1542	31
15617641	328	1205	-54
15617969	-223	1104	-22
15618297	-678	814	-65
15618625	-1103	630	-179
15618953	-1243	597	-368
15619281	-1013	498	-597
15619609	-782	342	-767
15619937	-615	98	-896
15620265	-501	-23	-1055
15620593	-627	-159	-1291
15620921	-594	-270	-1537
15621249	-598	-343	-1741
15621577	-589	-529	-1940
15621905	-637	-768	-2222
15622233	-734	-1043	-2566
15622561	-911	-1192	-2833
15622889	-1016	-1233	-3172
15623217	-1155	-1272	-3562
15623545	-1187	-1280	-4047
15623873	-1128	-1087	-4056
15624201	-955	-1128	-4511
15624529	-918	-924	-4855
15624857	-946	-928	-5133
15625185	-1776	-1181	-5609
15625513	-3152	-1451	-5814
15625841	-4902	-2043	-6074
15626169	-6698	-3256	-6202
15626497	-8323	-1831	-6235
15626825	-9726	-1250	-6019
15627153	-10439	-1714	-5565
15627481	-9727	-1743	-4904
15627809	-10745	-1294	-4197
15628137	-10465	-1080	-3214
15628465	-8961	-614	-2279
15628793	-7153	-652	-1485
15629121	-5660	-370	-857
15629449	-4537	709	471
15629777	-3610	1580	2072
15630105	-2264	1618	3030
15630433	-1631	1510	4493
15630761	-706	1030	5005
15631089	-147	-274	6775
15631417	222	-313	7707
15631745	741	-314	8452
15632073	1107	-1074	9295
15632401	1422	-1698	9755
15632729	1318	-1203	10250
15633057	1034	-1412	10664
15633385	656	-1657	10179
15633713	-246	-1015	10529
15634041	-987	-1336	10332
15634369	-2156	-1153	10633
15634697	-3447	-1173	11124
15635025	-4619	-1344	11608
15635353	-5331	-1644	11616
15635681	-5293	-1844	11662
15636009	-5475	-2576	11437
15636337	-5414	-2847	11585
15636665	-5152	-3003	12024
15636993	-4800	-3126	12308
15637321	-3901	-2897	12342
15637649	-3268	-2611	12295
15637977	-2338	-2564	12423
15638305	-1526	-2829	12358
15638633	-553	-2670	12131
15638961	96	-2511	11836
15639289	485	-3080	11122
15639617	655	-3709	10210
15639945	549	-3679	9169
15640273	236	-4576	9012
15640601	-8	-4514	8522
15640929	-363	-3980	8197
15641257	-813	-4036	7707
15641585	-1238	-3782	7420
15641913	-1374	-3430	6685
15642241	-1486	-2929	6388
15642569	-1703	-3078	5961
15642897	-2078	-2484	5184
15643225	-2223	-2321	4166
15643553	-2348	-1635	2840
15643881	-1641	-434	1559
15644209	-722	634	233
15644537	228	1486	-1127
15644865	1149	2492	-2483
15645193	1641	3457	-3850
15645521	998	4126	-5092
15645849	-639	3449	-6333
15646177	-2842	2225	-7416
15646505	-3833	567	-7958
15646833	-3959	918	-9003
15647161	-4665	2552	-8864
15647489	-5189	3281	-7746
15647817	-5538	3716	-5994
15648145	-5600	2081	-2731
15648473	-4657	1543	-2005
15648801	-3755	2063	-3331
15649129	-3299	2079	-3591
15649457	-3167	1428	-3978
15649785	-2945	1366	-4003
15650113	-2597	1498	-3557
15650441	-1962	843	-3170
15650769	-1958	923	-2851
15651097	-1911	387	-2334
15651425	-2083	899	-1883
15651753	-2111	1306	-1651
15652081	-1996	1735	-1804
15652409	-1764	1851	-2002
15652737	-1473	1772	-2170
15653065	-1086	1701	-2371
15653393	-780	1629	-2361
15653721	-549	1563	-2334
15654049	-516	1741	-2381
15654377	-247	1084	-2409
15654705	119	1080	-2441
15655033	268	1660	-2664
15655361	523	1616	-2768
15655689	630	1542	-2748
15656017	557	1445	-2712
15656345	815	680	-2578
15656673	880	817	-2550
15657001	900	1392	-2652
15657329	1119	909	-2695
15657657	1280	594	-2607
15657985	1414	1061	-2637
15658313	1668	1050	-2645
15658641	1816	565	-2643
15658969	2042	1033	-2690
15659297	2399	1486	-2719
15659625	2658	1373	-2613
15659953	2882	1352	-2600
15660281	2975	1603	-2536
15660609	3011	1632	-2520
15660937	2999	1867	-2558
15661265	3053	1936	-2517
15661593	3088	1660	-2556
15661921	3086	1542	-2575
15662249	3113	1669	-2634
15662577	3091	1574	-2699
15662905	3081	1579	-2845
15663233	3066	1787	-2947
15663561	3023	2168	-3124
15663889	3162	2223	-3165
15664217	3416	1769	-3293
15664545	3555	1921	-3844
15664873	4255	1936	-4595
15665201	4980	1276	-4724
15665529	5992	1196	-4654
15665857	7113	1899	-4583
15666185	7769	2400	-4472
15666513	7854	2496	-4394
15666841	8100	2920	-4091
15667169	8565	3191	-3901
15667497	9139	3171	-3920
15667825	9648	3269	-3898
15668153	9395	3077	-3729
15668481	8738	2663	-3378
15668809	8070	2351	-3041
15669137	7514	2359	-2849
15669465	6860	2313	-2745
15669793	6221	2157	-2530
15670121	5578	1566	-2505
15670449	4740	776	-2458
15670777	4090	151	-2358
15671105	3103	-486	-2233
15671433	1972	-1002	-2016
15671761	940	-1590	-1490
15672089	-84	-1948	-1111
15672417	-759	-1836	-963
15672745	-884	-1783	-828
15673073	-403	-1659	-417
15673401	-69	-1641	-114
15673729	219	-1143	-268
15674057	248	-805	-387
15674385	302	-279	-317
15674713	496	390	-71
15675041	801	1082	108
15675369	1439	1294	83
15675697	1880	1062	122
15676025	1726	892	117
15676353	1299	689	197
15676681	820	626	269
15677009	591	524	237
15677337	378	564	235
15677665	249	402	91
15677993	242	271	-42
15678321	498	295	-145
15678649	735	191	-260
15678977	868	314	-87
15679305	1067	89	-131
15679633	1122	-147	-139
15679961	1164	-447	-161
15680289	1202	-590	-164
15680617	1320	-767	-60
15680945	1418	-875	101
15681273	1678	-963	305
15681601	2104	-1023	509
15681929	2659	-1195	745
15682257	3417	-1262	968
15682585	4182	-3153	1185
15682913	4803	-5142	1274
15683241	6085	-4194	1211
15683569	6997	-3370	845
15683897	8496	-1714	1080
15684225	9813	-94	1461
15684553	11480	1495	1312
15684881	12954	2826	1327
15685209	14098	3478	1530
15685537	15210	4333	1162
15685865	15832	4751	591
15686193	15754	5219	-265
15686521	15112	5692	-1569
15686849	14487	6518	-2885
15687177	13879	7173	-4167
15687505	12882	8211	-5235
15687833	11914	9253	-6285
15688161	10872	10112	-6921
15688489	10402	10751	-7433
15688817	10331	11600	-7747
15689145	10609	12356	-7820
15689473	11191	12972	-7710
15689801	11693	13811	-7462
15690129	11879	13750	-7593
15690457	11774	13502	-7690
15690785	11509	13331	-7543
15691113	11172	12903	-7459
15691441	10736	12550	-7067
15691769	10258	12352	-6719
15692097	9953	12194	-6471
15692425	9880	12487	-6192
15692753	9875	12311	-5907
15693081	9871	12590	-5449
15693409	10204	12988	-5033
15693737	10728	13353	-4405
15694065	11180	13516	-3847
15694393	11838	13727	-3315
15694721	12541	13910	-2772
15695049	13533	14023	-2117
15695377	14602	14269	-1403
15695705	15483	14652	-795
15696033	16181	14719	-3
15696361	16825	14836	740
15696689	17485	15322	1430
15697017	18150	15644	1967
15697345	18673	15825	2652
15697673	19319	15889	3005
15698001	19445	16388	3505
15698329	19850	15615	4055
15698657	19979	15493	4376
15698985	20103	15825	4569
15699313	19863	15643	4772
15699641	19764	16014	4901
15699969	19323	16450	4999
15700297	18727	16524	5100
15700625	18123	16117	5286
15700953	17336	15785	5193
15701281	16427	15556	5316
15701609	15607	15042	5374
15701937	14870	14371	5442
15702265	14437	13455	5518
15702593	14282	12111	5571
15702921	13794	9989	5592
15703249	12851	7460	5545
15703577	10904	4638	5110
15703905	6794	698	3628
15704233	1349	-1018	2469
15704561	1043	-2014	-4306
15704889	770	-1985	-3728
15705217	-2370	5173	-983
15705545	-2335	7434	1013
15705873	-1183	7670	2663
15706201	-1239	5296	3432
15706529	-381	1317	928
15706857	1395	1654	-1848
15707185	2650	913	-3112
15707513	3455	-625	-1954
15707841	2970	291	-536
15708169	1540	1026	176
15708497	331	618	78
15708825	380	501	217
15709153	946	922	-199
15709481	1715	1026	-859
15709809	2369	412	-1148
15710137	2334	520	-1151
15710465	1919	604	-955
15710793	1469	719	-764
15711121	1285	762	-769
15711449	1312	941	-1008
15711777	1559	890	-1464
15712105	1879	767	-1740
15712433	2163	805	-1979
15712761	2262	758	-2220
15713089	2127	725	-2435
15713417	1854	740	-2566
15713745	1722	697	-2499
15714073	1570	704	-2427
15714401	1561	716	-2328
15714729	1711	674	-2362
15715057	2012	655	-2508
15715385	2299	664	-2546
15715713	2501	665	-2309
15716041	2550	615	-2580
15716369	2737	1005	-2524
15716697	2717	707	-2486
15717025	2817	736	-2456
15717353	3032	768	-2467
15717681	3224	322	-2541
15718009	3463	-404	-2542
15718337	3681	-1655	-2540
15718665	3779	-2432	-2603
15718993	4090	-2884	-2666
15719321	3518	-3666	-2751
15719649	3703	-1978	-2876
15719977	3942	-729	-3029
15720305	3855	-1002	-3147
15720633	4170	-722	-3235
15720961	4492	-469	-3295
15721289	4957	-729	-3411
15721617	5567	-754	-3592
15721945	6165	-716	-3664
15722273	6891	-290	-3578
15722601	7510	208	-3508
15722929	8068	451	-3516
15723257	8401	345	-3503
15723585	8468	236	-3483
15723913	8522	369	-3402
15724241	8383	896	-2788
15724569	8135	1120	-2126
15724897	8275	1398	-1755
15725225	8080	1201	-1568
15725553	7869	740	-1600
15725881	7456	405	-1555
15726209	6684	24	-1360
15726537	5945	-360	-1288
15726865	5247	-709	-1138
15727193	4655	-1027	-1126
15727521	3831	-1388	-1021
15727849	3145	-1471	-948
15728177	2657	-1269	-839
15728505	2507	-1271	-885
15728833	1909	-1474	-759
15729161	1603	-1421	-603
15729489	1157	-1272	-477
15729817	745	-1073	-432
15730145	434	-931	-391
15730473	110	-742	-163
15730801	75	-645	-83
15731129	59	-573	-63
15731457	77	-228	26
15731785	180	125	49
15732113	103	-107	123
15732441	-93	-445	309
15732769	-459	-488	384
15733097	-1041	-372	500
15733425	-1713	-430	657
15733753	-2336	-393	624
15734081	-2722	-790	588
15734409	-2839	-1041	529
15734737	-2881	-896	533
15735065	-3009	-969	435
15735393	-3196	-1092	446
15735721	-3302	-1534	487
15736049	-3433	-1969	501
15736377	-3649	-2200	549
15736705	-3994	-2278	609
15737033	-4520	-2545	672
15737361	-4988	-2774	794
15737689	-5090	-2638	883
15738017	-4925	-2635	1006
15738345	-4713	-2419	1110
15738673	-4540	-2200	1089
15739001	-4575	-1852	1116
15739329	-4735	-1453	1153
15739657	-4916	-878	1120
15739985	-4713	-243	1088
15740313	-4302	119	1115
15740641	-3647	563	1159
15740969	-2664	1207	1306
15741297	-1776	1772	1174
15741625	-946	2667	1739
15741953	-165	3171	1986
15742281	272	3629	1992
15742609	599	4429	1843
15742937	820	4882	1763
15743265	659	4178	1879
15743593	101	3254	2153
15743921	-854	2810	2298
15744249	-1593	2842	2365
15744577	-1935	3531	2323
15744905	-1525	3954	2303
15745233	-699	3728	2270
15745561	39	3271	2282
15745889	149	2609	2241
15746217	-383	1854	2126
15746545	-1231	1678	1990
15746873	-2045	1674	1777
15747201	-2441	1556	1424
15747529	-2580	1152	994
15747857	-2601	833	725
15748185	-2590	693	569
15748513	-2596	419	405
15748841	-2560	93	289
15749169	-2547	-93	291
15749497	-2744	-273	319
15749825	-3001	-487	221
15750153	-3365	-780	97
15750481	-3610	-974	-83
15750809	-3812	-1177	-326
15751137	-3961	-1393	-469
15751465	-4206	-1792	-569
15751793	-4549	-2026	-703
15752121	-4893	-2201	-853
15752449	-5240	-2635	-1023
15752777	-5904	-3055	-1276
15753105	-6644	-3660	-1560
15753433	-7170	-4029	-1747
15753761	-7564	-4288	-1867
15754089	-7880	-4647	-2098
15754417	-8185	-5016	-2468
15754745	-8477	-5322	-2774
15755073	-8699	-5707	-2991
15755401	-9116	-5901	-3217
15755729	-9676	-6147	-3561
15756057	-10140	-6370	-3935
15756385	-10399	-6484	-4352
15756713	-10438	-6448	-4719
15757041	-10279	-6311	-5036
15757369	-10016	-6171	-5398
15757697	-9522	-6073	-5772
15758025	-8946	-5676	-6070
15758353	-8208	-4957	-6242
15758681	-7421	-4128	-6133
15759009	-7168	-4090	-5876
15759337	-7486	-4324	-5737
15759665	-8164	-4248	-5831
15759993	-8730	-2642	-6270
15760321	-8638	2	-7063
15760649	-8294	-739	-7421
15760977	-7763	-1242	-7330
15761305	-7149	-1202	-6501
15761633	-6680	-690	-4919
15761961	-7055	-771	-1562
15762289	-6802	-3451	-223
15762617	-5556	-4749	1512
15762945	-5061	-4306	3230
15763273	-4850	-3968	4829
15763601	-4512	-3523	6717
15763929	-4604	-3856	7415
15764257	-4532	-4547	8329
15764585	-4163	-5464	9308
15764913	-4016	-6114	9615
15765241	-3696	-6639	9666
15765569	-3093	-7699	9879
15765897	-3178	-8964	9957
15766225	-3694	-9619	10221
15766553	-4107	-10437	9689
15766881	-5076	-10692	10237
15767209	-6373	-10287	10900
15767537	-7543	-10245	11472
15767865	-8833	-10504	11518
15768193	-9859	-10221	11912
15768521	-10408	-9644	11928
15768849	-10724	-9649	11521
15769177	-10698	-9511	11099
15769505	-10552	-9250	10372
15769833	-10102	-9735	9679
15770161	-9524	-10965	9283
15770489	-8802	-11721	8460
15770817	-8239	-11811	7427
15771145	-8107	-12481	6640
15771473	-8140	-12881	5813
15771801	-8594	-12331	4822
15772129	-9061	-11593	3921
15772457	-9927	-10791	3225
15772785	-10525	-9568	2086
15773113	-11265	-8081	579
15773441	-12029	-6601	-785
15773769	-12182	-5375	-2405
15774097	-11438	-3729	-3270
15774425	-10205	-2776	-3750
15774753	-9176	-2436	-4344
15775081	-8332	-2703	-4664
15775409	-8130	-1555	-5130
15775737	-7344	-760	-5428
15776065	-6728	396	-4809
15776393	-5557	849	-4415
15776721	-3986	1778	-3241
15777049	-2857	2732	-1874
15777377	-1448	3315	-782
15777705	-409	4311	-193
15778033	19	4687	-525
15778361	-5	4545	-1530
15778689	-439	3923	-2240
15779017	-967	3686	-2792
15779345	-1255	3880	-2882
15779673	-1378	3880	-2271
15780001	-1767	4133	-630
15780329	-1666	3388	335
15780657	-1226	3839	1143
15780985	-776	3654	500
15781313	-598	2810	-690
15781641	-797	2861	-1237
15781969	-894	3285	-1169
15782297	-786	3048	-882
15782625	-693	2785	-439
15782953	-647	2445	-193
15783281	-707	2334	-202
15783609	-615	2256	-434
15783937	-425	2067	-545
15784265	-220	1960	-393
15784593	-101	2028	-246
15784921	122	1731	-346
15785249	249	1477	-459
15785577	364	1327	-639
15785905	468	1039	-741
15786233	393	522	-597
15786561	14	366	-340
15786889	-359	390	-170
15787217	-394	51	-202
15787545	-344	-252	-251
15787873	-310	-502	-261
15788201	-255	-803	-332
15788529	-319	-1075	-330
15788857	-425	-1217	-258
15789185	-435	-1442	-208
15789513	-345	-1628	-176
15789841	-193	-1624	-93
15790169	46	-1826	10
15790497	181	-2003	112
15790825	306	-2027	274
15791153	405	-2139	427
15791481	501	-2176	499
15791809	610	-2070	659
15792137	807	-2196	871
15792465	988	-2338	999
15792793	1128	-2441	1231
15793121	1378	-2723	1316
15793449	1656	-2822	1370
15793777	1823	-2819	1517
15794105	2030	-3038	1867
15794433	2327	-3231	1730
15794761	2439	-3126	2035
15795089	2736	-3358	2195
15795417	3181	-3267	2469
15795745	3473	-3260	2609
15796073	3974	-3372	2619
15796401	4321	-3276	2748
15796729	4626	-3256	2878
15797057	4981	-3606	2900
15797385	5284	-3087	3271
15797713	5598	-2312	3558
15798041	6281	-1658	3732
15798369	6860	-1527	3906
15798697	7301	-1568	4053
15799025	7696	-1740	3837
15799353	7673	-1483	3515
15799681	7204	-1310	3004
15800009	6621	-574	1985
15800337	6225	779	698
15800665	6496	2216	-936
15800993	6538	3981	-2842
15801321	6394	5102	-4525
15801649	6067	6368	-6128
15801977	5763	6949	-7065
15802305	5271	7035	-7816
15802633	5042	6749	-8397
15802961	4792	7031	-8732
15803289	4761	7299	-9240
15803617	5139	7673	-9594
15803945	5742	7806	-9862
15804273	6138	7635	-9858
15804601	6270	7373	-10007
15804929	5742	6882	-9140
15805257	5347	5851	-8787
15805585	4723	6106	-8459
15805913	4741	6066	-8510
15806241	4493	6285	-8090
15806569	4814	6333	-7632
15806897	5241	6586	-6714
15807225	5899	7039	-5539
15807553	6508	7395	-4235
15807881	7253	7691	-3145
15808209	8271	8229	-2389
15808537	8674	8838	-921
15808865	9632	8401	-176
15809193	10387	8501	470
15809521	10702	8227	1067
15809849	10611	7927	1685
15810177	10306	7529	2169
15810505	9829	7199	2588
15810833	9106	6886	2800
15811161	8005	6842	3014
15811489	5498	5538	2766
15811817	2345	1971	2160
15812145	257	-714	-415
15812473	-246	175	-2777
15812801	-1845	-661	-3136
15813129	-5170	-372	-2137
15813457	-7580	-586	-392
15813785	-8419	202	494
15814113	-7621	654	606
15814441	-6157	2009	1330
15814769	-4922	3638	1979
15815097	-4090	4318	2010
15815425	-3254	3056	1083
15815753	-1432	1549	-914
15816081	-200	1208	-1839
15816409	612	-339	-1355
15816737	469	-1009	-102
15817065	-453	47	516
15817393	-1585	553	696
15817721	-2102	-147	363
15818049	-2136	70	48
15818377	-2209	-74	-162
15818705	-2019	178	-760
15819033	-1757	84	-1026
15819361	-1557	-49	-1004
15819689	-1503	580	-923
15820017	-1205	1231	-1049
15820345	-630	1671	-1085
15820673	142	1818	-1268
15821001	746	2115	-1383
15821329	1275	2309	-1661
15821657	1495	2412	-1855
15821985	1519	2600	-1870
15822313	1510	2602	-1906
15822641	1510	2625	-1963
15822969	1522	2707	-2055
15823297	1538	2860	-1998
15823625	1775	3141	-1906
15823953	2148	3139	-1771
15824281	2662	2363	-1558
15824609	3235	1353	-1447
15824937	3756	1588	-1481
15825265	4186	1607	-1574
15825593	4711	672	-1656
15825921	4958	510	-2025
15826249	5042	788	-2533
15826577	4901	273	-2939
15826905	5044	196	-3209
15827233	5219	662	-3353
15827561	5931	1386	-3571
15827889	7152	2736	-3055
15828217	8107	3743	-2629
15828545	8965	3887	-2872
15828873	10005	3633	-3461
15829201	10869	3568	-3712
15829529	11294	3796	-3722
15829857	11472	4415	-3485
15830185	11633	4983	-3313
15830513	11827	4820	-3399
15830841	12442	4770	-3315
15831169	12899	5035	-3050
15831497	12955	5007	-2694
15831825	12462	4717	-2289
15832153	11183	3883	-1851
15832481	9544	2969	-1569
15832809	7622	1849	-1406
15833137	5696	876	-1406
15833465	4198	528	-1429
15833793	3401	800	-1503
15834121	3073	930	-1499
15834449	3171	1003	-1372
15834777	4023	983	-1682
15835105	4505	1203	-1517
15835433	4574	951	-1311
15835761	4130	878	-976
15836089	3460	693	-766
15836417	2813	546	-674
15836745	2309	104	-480
15837073	1445	10	-249
15837401	910	-228	-219
15837729	483	-674	-134
15838057	-11	-1119	38
15838385	-324	-1296	258
15838713	-597	-961	464
15839041	-1064	-506	648
15839369	-1186	-182	658
15839697	-983	-292	661
15840025	-724	-414	720
15840353	-263	-377	764
15840681	96	-83	718
15841009	252	189	702
15841337	194	438	684
15841665	-92	408	814
15841993	-179	564	763
15842321	-227	461	631
15842649	-364	124	531
15842977	-674	223	411
15843305	-920	355	286
15843633	-1225	521	198
15843961	-1172	1066	3
15844289	-803	1657	-194
15844617	-250	1920	-525
15844945	311	1901	-667
15845273	616	2077	-872
15845601	711	2007	-1078
15845929	561	2021	-856
15846257	516	1665	-1080
15846585	340	1434	-1139
15846913	377	1115	-1334
15847241	-80	992	-1688
15847569	-420	946	-1844
15847897	-889	816	-2108
15848225	-1295	693	-2367
15848553	-1505	475	-2867
15848881	-1455	464	-3508
15849209	-1195	386	-3919
15849537	-991	305	-4379
15849865	-735	281	-4893
15850193	-790	443	-5238
15850521	-634	403	-5751
15850849	-425	257	-6365
15851177	-1920	411	-6875
15851505	-4163	406	-7125
15851833	-6219	-194	-7802
15852161	-7801	-143	-7618
15852489	-9340	-296	-6817
15852817	-10556	-970	-6132
15853145	-10896	61	-5327
15853473	-9545	1260	-4085
15853801	-12383	-150	-3898
15854129	-11752	434	-1849
15854457	-9382	1426	-760
15854785	-6232	2098	30
15855113	-5228	2490	2023
15855441	-4374	3844	4109
15855769	-3108	4306	5812
15856097	-1788	3774	7576
15856425	-1215	2923	8826
15856753	-366	1980	10669
15857081	258	692	12112
15857409	334	-844	13453
15857737	1431	-1586	14649
15858065	1527	-2223	15179
15858393	1135	-2473	15363
15858721	739	-2679	16128
15859049	23	-3264	16101
15859377	-1495	-2763	15130
15859705	-2435	-3084	14465
15860033	-4592	-3768	14866
15860361	-6237	-3409	15179
15860689	-7383	-3735	15164
15861017	-8314	-4192	14566
15861345	-8340	-3988	14438
15861673	-7645	-4164	13661
15862001	-6531	-3622	13563
15862329	-4449	-3151	12526
15862657	-2567	-2528	12331
15862985	-719	-3702	11731
15863313	924	-3729	11447
15863641	2432	-2812	10848
15863969	3227	-2447	10180
15864297	3880	-2093	9281
15864625	4463	-2287	8607
15864953	4839	-2018	7227
15865281	4907	-1031	6294
15865609	4409	168	6160
15865937	3954	753	5109
15866265	3315	1717	3931
15866593	2712	2244	2736
15866921	2152	2632	1209
15867249	1392	3407	-718
15867577	810	3192	-2384
15867905	843	3579	-4228
15868233	-101	3333	-6275
15868561	-3397	1706	-7981
15868889	-7136	-2329	-8828
15869217	-8028	-5369	-10271
15869545	-7180	-3600	-11536
15869873	-7006	1453	-11263
15870201	-7307	3235	-9449
15870529	-6971	1728	-6295
15870857	-6018	2301	-3505
15871185	-4929	1842	-2354
15871513	-4158	1007	-3246
15871841	-2860	1098	-5485
15872169	-1438	778	-7414
15872497	-700	-136	-6778
15872825	-1282	50	-5530
15873153	-2789	24	-4369
15873481	-3574	-1945	-3762
15873809	-3674	-1494	-3802
15874137	-3185	-908	-4246
15874465	-1986	-1534	-4666
15874793	-1543	-1097	-4694
15875121	-1929	-1100	-4467
15875449	-2001	-1138	-4290
15875777	-1457	338	-3906
15876105	-721	1644	-3453
15876433	404	2253	-3070
15876761	1194	2673	-3088
15877089	1890	2862	-3530
15877417	2581	3165	-3914
15877745	3027	3146	-4260
15878073	2673	3086	-4372
15878401	2051	3603	-4592
15878729	2089	4483	-4844
15879057	2437	3982	-4985
15879385	2415	3307	-4803
15879713	2594	3538	-4521
15880041	3011	3134	-4223
15880369	3606	2841	-3812
15880697	4714	3434	-3659
15881025	5733	3114	-3872
15881353	6458	3068	-4159
15881681	6992	3053	-4400
15882009	7577	3114	-4693
15882337	8179	3069	-4933
15882665	8628	3082	-5122
15882993	8858	3735	-5196
15883321	8947	4208	-5107
15883649	8933	4207	-4912
15883977	9139	4570	-4517
15884305	9643	5389	-4022
15884633	10380	5983	-3546
15884961	11189	6707	-2953
15885289	12149	7288	-2430
15885617	13442	7872	-1960
15885945	15107	8535	-1591
15886273	16594	9934	-1299
15886601	18245	11326	-490
15886929	20018	12876	808
15887257	22015	13905	1735
15887585	23333	13801	2727
15887913	24723	13482	3660
15888241	24925	13620	4377
15888569	25343	14033	4326
15888897	25892	14209	4809
15889225	26642	13721	5286
15889553	26732	13393	5595
15889881	26380	12994	5967
15890209	25505	12048	5713
15890537	24418	10978	5058
15890865	23091	10863	4062
15891193	21752	10110	3643
15891521	19827	8715	3110
15891849	16728	5967	2519
15892177	13155	3999	1215
15892505	10817	5522	-176
15892833	8952	7500	425
15893161	7904	5751	125
15893489	8005	4173	-241
15893817	8493	5162	-1255
15894145	9647	5007	-2066
15894473	9624	5480	-2276
15894801	8866	5077	-2381
15895129	7702	4817	-2692
15895457	7043	4603	-2878
15895785	6088	3776	-2887
15896113	5195	3636	-2617
15896441	4489	3190	-2380
15896769	3773	2459	-1923
15897097	3111	1571	-1475
15897425	2019	210	-914
15897753	1206	-494	121
15898081	814	-525	974
15898409	376	680	1994
15898737	585	1218	2302
15899065	871	1232	2098
15899393	748	867	1622
15899721	460	217	936
15900049	-271	-346	42
15900377	-1231	-814	-413
15900705	-2278	-813	-490
15901033	-3367	-543	-340
15901361	-3761	-498	-18
15901689	-3225	-490	96
15902017	-2120	-440	71
15902345	-995	-236	-291
15902673	-264	-133	-438
15903001	-236	121	-467
15903329	-73	170	-455
15903657	-373	372	-298
15903985	-555	547	-359
15904313	-714	757	-161
15904641	-1047	786	-269
15904969	-728	645	-167
15905297	-997	840	-83
15905625	-828	834	-93
15905953	-711	956	-79
15906281	-355	842	-154
15906609	-144	805	-118
15906937	-144	769	-102
15907265	-251	710	-68
15907593	-359	652	-36
15907921	-445	650	2
15908249	-481	723	36
15908577	-405	724	57
15908905	-298	802	111
15909233	-193	977	161
15909561	-56	1286	208
15909889	106	1543	221
15910217	74	1746	305
15910545	134	1747	418
15910873	87	1651	505
15911201	12	1532	544
15911529	-110	1361	636
15911857	-281	1188	730
15912185	-368	946	779
15912513	-390	782	804
15912841	-407	640	858
15913169	-349	487	912
15913497	-272	328	942
15913825	-159	168	1039
15914153	-116	87	1136
15914481	-30	-14	1181
15914809	56	-150	1211
15915137	93	-266	1241
15915465	28	-376	1297
15915793	-137	-506	1400
15916121	-267	-602	1459
15916449	-301	-637	1477
15916777	-327	-733	1539
15917105	-267	-858	1594
15917433	-204	-923	1627
15917761	-106	-895	1660
15918089	-43	-969	1671
15918417	31	-1049	1681
15918745	62	-1107	1695
15919073	164	-1000	1726
15919401	286	-697	1763
15919729	382	-711	1797
15920057	506	-750	1843
15920385	563	-959	1916
15920713	561	-1153	2014
15921041	654	-1217	1983
15921369	745	-1234	1886
15921697	794	-1121	1876
15922025	896	-1079	1928
15922353	888	-1027	2035
15922681	915	-1151	2114
15923009	997	-1357	2257
15923337	1304	-1498	2438
15923665	1805	-1536	2581
15923993	2359	-1636	2662
15924321	2594	-1457	2931
15924649	3050	-1157	3235
15924977	3654	-1217	3436
15925305	4046	-856	3659
15925633	4447	-296	4041
15925961	4904	16	4437
15926289	5685	183	4521
15926617	6270	397	4612
15926945	7006	469	5182
15927273	7696	674	5160
15927601	8407	-33	5072
15927929	8914	-555	4583
15928257	9159	-1259	4164
15928585	8833	-1461	3235
15928913	8121	-1764	3144
15929241	7506	-2145	2573
15929569	6740	-1882	1972
15929897	6082	-865	937
15930225	5157	-193	-660
15930553	4070	-77	-2426
15930881	3234	759	-4313
15931209	3211	1074	-5892
15931537	3688	965	-6992
15931865	3912	1153	-7689
15932193	3988	1511	-8312
15932521	4110	2319	-9051
15932849	4172	2694	-9945
15933177	4384	2821	-10360
15933505	4443	3220	-10687
15933833	4515	3556	-10810
15934161	4321	3666	-10734
15934489	3910	3368	-10408
15934817	3947	3311	-9966
15935145	4030	3379	-9673
15935473	4313	3156	-9185
15935801	5009	2993	-8778
15936129	5203	2369	-8316
15936457	5378	2151	-7641
15936785	5147	2624	-7027
15937113	4910	2711	-6265
15937441	4827	2023	-5571
15937769	4667	2542	-4728
15938097	3652	1682	-3231
15938425	2590	1003	-1550
15938753	1821	109	461
15939081	3060	-290	2817
15939409	2729	150	4136
15939737	2518	-1051	4581
15940065	1974	1174	4169
15940393	2194	2906	2729
15940721	3728	3390	1524
15941049	4249	4323	1280
15941377	4538	4583	1934
15941705	3941	5085	2356
15942033	2891	4272	2509
15942361	1943	4412	1975
15942689	1554	3871	862
15943017	1471	3970	749
15943345	1278	3688	493
15943673	505	3748	802
15944001	210	4170	1070
15944329	497	3015	839
15944657	645	2809	618
15944985	382	2153	597
15945313	58	1279	108
15945641	-664	1977	-57
15945969	-1075	1772	-425
15946297	-1462	1752	-425
15946625	-1617	2052	-124
15946953	-1311	2149	-324
15947281	-754	2300	-35
15947609	-73	2297	-46
15947937	314	2473	55
15948265	558	2427	222
15948593	725	2298	152
15948921	712	1842	-54
15949249	480	1411	-242
15949577	54	1374	-363
15949905	-232	1027	-499
15950233	-378	1108	-624
15950561	-290	1237	-706
15950889	-110	1187	-699
15951217	36	1095	-719
15951545	178	972	-782
15951873	269	678	-825
15952201	160	559	-855
15952529	-78	522	-813
15952857	-346	426	-769
15953185	-461	481	-823
15953513	-405	-347	-963
15953841	-211	-816	-1057
15954169	-146	-91	-1073
15954497	31	330	-984
15954825	372	975	-854
15955153	901	1112	-662
15955481	1472	460	-446
15955809	2177	785	-269
15956137	2874	1373	-174
15956465	3439	2026	-124
15956793	3909	2733	38
15957121	4102	3525	263
15957449	4153	4187	517
15957777	4181	4368	872
15958105	4460	5154	951
15958433	4847	6104	1231
15958761	4998	6800	1692
15959089	5105	7324	2254
15959417	5145	7595	2702
15959745	4956	7477	3209
15960073	4579	7472	3441
15960401	3810	7052	3702
15960729	3122	6655	3804
15961057	2512	5779	3427
15961385	1583	4704	2554
15961713	749	3708	1262
15962041	195	3014	304
15962369	-720	1958	-427
15962697	-2050	472	-1107
15963025	-3060	-386	-1939
15963353	-3754	-488	-2328
15963681	-3984	-344	-2372
15964009	-3995	-166	-2189
15964337	-4087	-148	-1582
15964665	-3983	142	-868
15964993	-3805	359	-517
15965321	-3603	652	-372
15965649	-2964	500	-623
15965977	-1859	64	-1012
15966305	-1079	34	-1038
15966633	-775	428	-1186
15966961	-709	869	-1314
15967289	-746	999	-1155
15967617	-711	1418	-993
15967945	-608	2054	-850
15968273	-507	2383	-837
15968601	-216	2695	-737
15968929	137	2885	-720
15969257	453	3018	-565
15969585	931	3125	-330
15969913	1401	3325	-346
15970241	1900	3577	-267
15970569	2346	3710	-167
15970897	2560	3644	-127
15971225	2926	3568	45
15971553	3280	3884	140
15971881	3658	4278	143
15972209	4054	4590	62
15972537	4434	4764	10
15972865	4765	4605	4
15973193	5337	3807	6
15973521	5917	3739	-19
15973849	6629	3629	-91
15974177	7305	3785	-60
15974505	8124	4594	96
15974833	9234	4956	328
15975161	10563	4385	544
15975489	11537	5043	669
15975817	12520	6547	664
15976145	13478	7182	604
15976473	14325	7558	535
15976801	15041	7872	344
15977129	15631	8057	232
15977457	16015	7916	153
15977785	16379	8012	147
15978113	16505	7976	176
15978441	16513	7494	317
15978769	16633	7665	347
15979097	16672	7668	421
15979425	16745	7595	531
15979753	16996	7670	641
15980081	17391	7615	812
15980409	17943	8108	998
15980737	18531	8579	1195
15981065	19089	8892	1461
15981393	19770	9159	1799
15981721	20376	9152	2128
15982049	20696	9262	2600
15982377	20588	9706	2977
15982705	20347	9986	3348
15983033	19933	10359	3798
15983361	19379	10652	4385
15983689	18996	8986	4842
15984017	18664	8433	4984
15984345	18328	8656	5192
15984673	18196	8314	5535
15985001	18224	8523	5604
15985329	18278	8739	5524
15985657	18051	8891	5480
15985985	17701	8845	5391
15986313	17089	9033	5285
15986641	16104	8875	5012
15986969	14890	8063	4760
15987297	13497	6271	4378
15987625	12089	5659	4148
15987953	10772	5402	3973
15988281	9726	4996	4119
15988609	8864	4251	4297
15988937	8353	3714	3918
15989265	7862	2784	3210
15989593	7093	1740	2435
15989921	5647	683	1607
15990249	3915	-520	931
15990577	2228	-1189	620
15990905	644	-1439	632
15991233	-737	-1569	673
15991561	-1562	-1615	697
15991889	-1820	-1571	581
15992217	-1942	-1642	425
15992545	-1762	-1769	246
15992873	-1487	-1764	192
15993201	-1460	-1740	117
15993529	-1577	-1666	65
15993857	-1906	-1567	43
15994185	-2096	-1413	-21
15994513	-2150	-1184	-147
15994841	-1909	-954	-264
15995169	-1511	-889	-361
15995497	-1109	-735	-460
15995825	-633	-550	-584
15996153	-327	-428	-654
15996481	-184	-324	-734
15996809	-157	-293	-757
15997137	-151	-389	-750
15997465	-139	-505	-668
15997793	-253	-453	-780
15998121	-244	-418	-558
15998449	-393	-240	-731
15998777	-337	-214	-709
15999105	-409	-82	-689
15999433	-382	83	-664
15999761	-320	89	-626
16000089	-207	-30	-595
16000417	-85	-15	-540
16000745	80	20	-488
16001073	192	-60	-460
16001401	140	-67	-445
16001729	52	-21	-438
16002057	-57	113	-397
16002385	-152	224	-362
16002713	-82	244	-353
16003041	-104	265	-356
16003369	-74	277	-360
16003697	-45	115	-363
16004025	-71	56	-342
16004353	-139	36	-345
16004681	-200	-53	-350
16005009	-173	-77	-327
16005337	-136	-39	-320
16005665	-165	-122	-296
16005993	-256	-76	-267
16006321	-255	-22	-209
16006649	-229	19	-186
16006977	-188	63	-189
16007305	-186	128	-162
16007633	-191	202	-143
16007961	-193	212	-130
16008289	-216	164	-120
16008617	-220	170	-107
16008945	-233	223	-126
16009273	-182	283	-116
16009601	-165	74	-89
16009929	-127	103	-49
16010257	-77	83	-19
16010585	-104	-26	13
16010913	-174	6	56
16011241	-187	79	102
16011569	-176	124	110
16011897	-105	211	93
16012225	-49	322	80
16012553	-33	439	113
16012881	-27	576	138
16013209	39	679	101
16013537	60	699	79
16013865	19	664	97
16014193	-88	512	102
16014521	-201	392	121
16014849	-298	326	121
16015177	-345	102	116
16015505	-420	125	151
16015833	-467	84	183
16016161	-451	20	171
16016489	-468	43	173
16016817	-457	109	166
16017145	-476	-30	164
16017473	-549	-142	190
16017801	-556	-31	198
16018129	-484	92	169
16018457	-464	203	102
16018785	-457	342	15
16019113	-439	398	-38
16019441	-470	371	-72
16019769	-551	386	-120
16020097	-669	407	-187
16020425	-805	506	-277
16020753	-947	507	-404
16021081	-1129	487	-542
16021409	-1375	434	-649
16021737	-1631	376	-754
16022065	-1842	293	-873
16022393	-2032	261	-1059
16022721	-2258	182	-1270
16023049	-2549	41	-1440
16023377	-2919	-124	-1577
16023705	-3362	-309	-1760
16024033	-3937	-680	-1981
16024361	-4643	-1267	-2245
16024689	-5557	-1721	-2538
16025017	-6568	-2167	-2795
16025345	-7528	-2698	-3070
16025673	-8404	-3107	-3325
16026001	-9218	-3580	-3532
16026329	-9937	-4142	-3773
16026657	-10815	-4763	-3947
16026985	-11697	-5334	-4116
16027313	-12600	-5745	-4160
16027641	-13516	-6136	-4149
16027969	-14470	-6700	-4010
16028297	-15400	-7113	-3933
16028625	-15997	-7255	-3994
16028953	-16451	-7558	-3918
16029281	-16709	-7725	-3764
16029609	-16680	-7856	-3613
16029937	-16535	-7971	-3562
16030265	-16012	-7933	-3402
16030593	-15480	-7955	-3248
16030921	-14966	-8028	-3141
16031249	-14478	-7903	-3104
16031577	-13925	-7879	-3077
16031905	-13375	-7751	-3051
16032233	-12831	-7463	-2928
16032561	-12319	-7194	-2780
16032889	-11896	-7201	-2647
16033217	-11654	-7209	-2553
16033545	-11394	-6894	-2471
16033873	-11249	-6610	-2447
16034201	-11074	-6514	-2496
16034529	-10912	-6538	-2608
16034857	-10724	-6530	-2763
16035185	-10542	-6697	-2873
16035513	-10391	-6946	-3029
16035841	-10272	-7102	-3221
16036169	-10080	-7233	-3342
16036497	-9907	-7487	-3552
16036825	-9940	-7642	-3705
16037153	-9918	-7850	-3751
16037481	-9861	-7962	-3881
16037809	-10080	-8110	-3983
16038137	-10253	-8079	-4003
16038465	-10186	-7999	-4132
16038793	-9964	-8167	-4258
16039121	-9701	-8418	-4429
16039449	-9476	-8494	-4520
16039777	-9384	-8661	-4539
16040105	-9289	-8988	-4587
16040433	-9291	-9194	-4675
16040761	-9406	-9349	-4705
16041089	-9667	-9482	-4754
16041417	-9884	-9586	-4827
16041745	-9891	-9637	-5055
16042073	-9828	-9273	-5126
16042401	-9741	-9063	-5254
16042729	-9375	-8836	-5409
16043057	-8868	-8433	-5561
16043385	-8490	-8156	-5813
16043713	-8109	-7789	-6274
16044041	-7874	-6904	-6742
16044369	-7879	-6121	-7383
16044697	-8202	-6359	-8206
16045025	-8941	-6753	-8978
16045353	-10093	-7064	-9665
16045681	-11202	-9085	-10267
16046009	-12023	-9915	-10381
16046337	-13205	-6625	-10200
16046665	-11717	-3818	-9552
16046993	-10033	-4299	-8672
16047321	-10478	-5226	-7758
16047649	-8151	-5142	-4979
16047977	-6249	-6410	-2011
16048305	-5203	-8553	-1040
16048633	-4267	-7715	-426
16048961	-4058	-7718	232
16049289	-3986	-7337	1455
16049617	-3886	-6948	2479
16049945	-3619	-7882	3271
16050273	-3343	-8336	4074
16050601	-3269	-8338	4677
16050929	-3149	-8531	5716
16051257	-3341	-8582	5805
16051585	-3625	-8827	6101
16051913	-4155	-8535	6606
16052241	-4646	-8601	7071
16052569	-5117	-8864	7350
16052897	-5282	-8726	7706
16053225	-5518	-9046	8216
16053553	-5796	-9134	9097
16053881	-5878	-8861	9554
16054209	-5894	-9141	9793
16054537	-5699	-9588	10252
16054865	-5541	-9655	10604
16055193	-5449	-9450	10850
16055521	-5519	-9187	11130
16055849	-5612	-9374	11257
16056177	-5771	-9480	11387
16056505	-6055	-9250	11370
16056833	-6100	-8932	11339
16057161	-5825	-8543	11111
16057489	-5723	-8146	10501
16057817	-5646	-7896	9833
16058145	-5652	-8059	9153
16058473	-5786	-8317	8346
16058801	-6037	-8290	7466
16059129	-6197	-8061	6965
16059457	-6166	-8028	5994
16059785	-6073	-7974	5117
16060113	-6245	-7760	3923
16060441	-6227	-7341	2953
16060769	-6535	-6659	2134
16061097	-6566	-6542	1472
16061425	-6476	-5959	813
16061753	-6169	-5032	70
16062081	-5662	-4350	-734
16062409	-4863	-3836	-1405
16062737	-4525	-3893	-1873
16063065	-4226	-3394	-2188
16063393	-4008	-2590	-2342
16063721	-3753	-2143	-2190
16064049	-3319	-1681	-1988
16064377	-2968	-1101	-1855
16064705	-2611	-819	-1687
16065033	-2379	-424	-1726
16065361	-2267	310	-2020
16065689	-2147	839	-2119
16066017	-1879	1204	-2106
16066345	-1673	1254	-1781
16066673	-1576	1153	-1560
16067001	-1599	1351	-1499
16067329	-1570	1643	-1428
16067657	-1439	2018	-1586
16067985	-1245	2497	-1873
16068313	-1096	3103	-2003
16068641	-966	3385	-1965
16068969	-988	3372	-1765
16069297	-955	3006	-1692
16069625	-875	2694	-1688
16069953	-836	2639	-1676
16070281	-1138	2406	-1772
16070609	-1428	2703	-1749
16070937	-1661	3030	-2001
16071265	-1599	3010	-2070
16071593	-1577	3034	-2357
16071921	-1559	2746	-2254
16072249	-1374	2488	-2217
16072577	-1109	2276	-2233
16072905	-791	2057	-2220
16073233	-665	1941	-2144
16073561	-718	1089	-1940
16073889	-760	886	-1553
16074217	-791	1364	-1338
16074545	-852	1269	-1214
16074873	-786	1568	-1262
16075201	-610	1618	-1060
16075529	-510	1757	-1176
16075857	-253	1771	-1160
16076185	-27	1796	-1069
16076513	142	1902	-988
16076841	324	1469	-938
16077169	569	1055	-843
16077497	755	1180	-856
16077825	838	1276	-826
16078153	865	1236	-762
16078481	890	1251	-710
16078809	919	1073	-636
16079137	865	872	-528
16079465	853	647	-545
16079793	831	578	-477
16080121	733	536	-386
16080449	600	528	-342
16080777	545	298	-282
16081105	500	216	-232
16081433	475	225	-267
16081761	410	179	-301
16082089	349	12	-298
16082417	230	-91	-300
16082745	154	-117	-239
16083073	90	-136	-161
16083401	21	-162	-104
16083729	-31	-208	-91
16084057	-59	-277	-122
16084385	-99	-210	-95
16084713	-86	-135	-75
16085041	-119	-106	-30
16085369	-175	-67	19
16085697	-248	-94	55
16086025	-239	-31	113
16086353	-175	73	126
16086681	-107	151	171
16087009	-128	215	199
16087337	-151	264	232
16087665	-131	306	281
16087993	-130	330	354
16088321	-186	344	411
16088649	-341	379	434
16088977	-365	373	425
16089305	-487	408	432
16089633	-571	368	503
16089961	-607	166	556
16090289	-626	-110	574
16090617	-752	-414	644
16090945	-829	-761	660
16091273	-870	-940	686
16091601	-889	-1032	715
16091929	-848	-1175	790
16092257	-779	-1271	894
16092585	-702	-1378	959
16092913	-602	-1456	1007
16093241	-457	-1457	1146
16093569	-452	-1583	1249
16093897	-383	-1793	1369
16094225	-411	-1892	1418
16094553	-436	-2032	1431
16094881	-479	-2262	1498
16095209	-549	-2339	1548
16095537	-637	-2426	1649
16095865	-728	-2503	1740
16096193	-796	-2496	1840
16096521	-768	-2727	1972
16096849	-704	-2886	2106
16097177	-684	-3045	2130
16097505	-585	-3311	2177
16097833	-541	-3375	2250
16098161	-456	-3165	2290
16098489	-367	-2939	2374
16098817	-269	-2921	2510
16099145	-88	-3620	2632
16099473	86	-4066	2804
16099801	180	-3820	2944
16100129	205	-3754	3012
16100457	228	-3734	3054
16100785	259	-3934	2999
16101113	554	-4235	3059
16101441	925	-4098	3059
16101769	1176	-3915	3075
16102097	1496	-4029	2954
16102425	1754	-4134	3016
16102753	1938	-4339	3186
16103081	2253	-4715	3263
16103409	2395	-4696	3289
16103737	2512	-4509	3370
16104065	2785	-4307	3112
16104393	3319	-3601	3053
16104721	3966	-3059	2776
16105049	4053	-3025	1648
16105377	4085	-2693	375
16105705	4338	-2677	-270
16106033	4822	-2300	171
16106361	6331	-1652	728
16106689	7766	-890	1764
16107017	8864	464	1870
16107345	8448	1620	185
16107673	6142	330	-2172
16108001	2964	1474	-4392
16108329	-1655	1576	-6445
16108657	-5258	1330	-7501
16108985	-7972	1245	-8636
16109313	-9343	1720	-9713
16109641	-9460	2348	-10733
16109969	-8876	3385	-11568
16110297	-7804	4493	-11981
16110625	-6810	5318	-12378
16110953	-5821	5707	-12265
16111281	-5085	5600	-12193
16111609	-4600	5498	-12038
16111937	-3889	5295	-11968
16112265	-3332	5457	-11768
16112593	-3200	5508	-11529
16112921	-3392	5385	-11554
16113249	-4109	5327	-11160
16113577	-4344	5233	-10846
16113905	-4538	4966	-10567
16114233	-4789	5012	-10077
16114561	-4945	5299	-9838
16114889	-4898	5898	-9570
16115217	-5124	5778	-8995
16115545	-5293	5908	-8372
16115873	-5111	6038	-7769
16116201	-4834	6090	-7091
16116529	-4252	6178	-6410
16116857	-3542	6100	-5905
16117185	-3006	6038	-5454
16117513	-2526	6024	-4996
16117841	-2101	5967	-4450
16118169	-1807	5930	-3915
16118497	-1517	6043	-3317
16118825	-1100	6155	-2711
16119153	-750	6178	-2157
16119481	-620	5900	-1594
16119809	-372	5736	-1025
16120137	-229	5668	-531
16120465	56	5180	-118
16120793	423	5065	365
16121121	703	4968	791
16121449	1050	4825	1233
16121777	1270	4694	1776
16122105	1438	4448	2213
16122433	1627	4218	2644
16122761	2004	4018	3156
16123089	2467	3639	3544
16123417	2999	2995	4029
16123745	3597	2388	4491
16124073	4038	1645	4913
16124401	4678	1241	5517
16124729	5318	1002	6025
16125057	5894	906	6766
16125385	6227	396	6950
16125713	6418	583	7043
16126041	6757	1331	6766
16126369	6939	2161	6308
16126697	7314	2576	5576
16127025	8367	3138	5310
16127353	8765	3694	4914
16127681	8546	3917	4716
16128009	8554	3925	4656
16128337	8675	4324	4767
16128665	8334	4613	4700
16128993	7764	4561	4408
16129321	7837	4282	4097
16129649	7472	3935	3919
16129977	7262	3656	3755
16130305	6708	3469	3664
16130633	6348	3273	3545
16130961	5766	3120	3532
16131289	5504	2618	3394
16131617	4893	1436	3214
16131945	4724	1450	2976
16132273	4823	2274	2856
16132601	4470	437	2920
16132929	3879	-2321	2713
16133257	3544	-1807	2567
16133585	3330	-2601	2332
16133913	1996	-3865	2032
16134241	1127	-2586	1754
16134569	245	-1806	1711
16134897	-662	-1456	1882
16135225	-906	-841	1970
16135553	-462	-41	2012
16135881	366	569	1932
16136209	1142	596	1695
16136537	1923	570	1376
16136865	2482	1077	1223
16137193	2873	1662	1230
16137521	2988	1883	1150
16137849	2819	1816	1036
16138177	2723	1862	902
16138505	2688	1930	801
16138833	2718	2019	723
16139161	2871	2113	715
16139489	2773	2229	638
16139817	2537	2238	618
16140145	2444	2348	508
16140473	2421	2320	376
16140801	2471	2166	276
16141129	2479	2065	234
16141457	2489	2160	192
16141785	2479	2303	141
16142113	2559	2347	152
16142441	2671	2621	69
16142769	2825	2587	-75
16143097	2952	1957	-183
16143425	2980	1572	-244
16143753	2867	1443	-309
16144081	2725	1117	-433
16144409	2437	778	-572
16144737	2393	402	-666
16145065	2209	483	-828
16145393	2045	628	-1118
16145721	1894	551	-1348
16146049	1660	649	-1483
16146377	1458	827	-1499
16146705	1315	794	-1438
16147033	1173	934	-1413
16147361	1150	640	-1459
16147689	905	-218	-1482
16148017	971	-971	-1654
16148345	706	-484	-1621
16148673	411	-506	-1584
16149001	173	-658	-1452
16149329	11	-1481	-1321
16149657	-208	-2476	-1261
16149985	-560	-1765	-1296
16150313	-761	-1121	-1372
16150641	-857	-1295	-1283
16150969	-794	-1657	-1174
16151297	-902	-2195	-1105
16151625	-1150	-2036	-1017
16151953	-1456	-1739	-923
16152281	-1665	-1729	-919
16152609	-1671	-1343	-832
16152937	-1643	-1608	-804
16153265	-1588	-1385	-757
16153593	-1543	-1072	-686
16153921	-1608	-1014	-632
16154249	-1682	-879	-584
16154577	-1523	-576	-566
16154905	-1202	-443	-562
16155233	-924	-212	-552
16155561	-655	115	-524
16155889	-497	342	-433
16156217	-453	651	-408
16156545	-392	979	-492
16156873	-207	1178	-586
16157201	-164	1154	-592
16157529	-207	1210	-601
16157857	-216	1526	-552
16158185	-112	1794	-488
16158513	133	1769	-351
16158841	339	1579	-217
16159169	347	1499	-231
16159497	263	1436	-206
16159825	39	1291	-204
16160153	-153	1371	-164
16160481	-189	1476	-217
16160809	-74	1420	-188
16161137	119	1344	-104
16161465	234	1230	-81
16161793	368	1084	9
16162121	404	991	90
16162449	460	1014	97
16162777	492	1061	81
16163105	539	925	71
16163433	564	910	42
16163761	474	880	38
16164089	384	914	10
16164417	285	983	-62
16164745	225	925	-62
16165073	221	887	-79
16165401	215	849	-56
16165729	236	708	-39
16166057	228	574	-25
16166385	215	499	-48
16166713	221	514	-20
16167041	160	439	-25
16167369	105	422	-20
16167697	67	351	-34
16168025	26	313	-40
16168353	8	275	-51
16168681	33	254	-76
16169009	72	233	-13
16169337	79	224	-15
16169665	113	292	-31
16169993	206	333	-47
16170321	281	351	-32
16170649	296	399	-51
16170977	315	402	-39
16171305	263	412	-15
16171633	231	434	-32
16171961	236	417	-36
16172289	203	400	-73
16172617	165	328	-116
16172945	126	181	-52
16173273	4	241	-83
16173601	-47	305	-57
16173929	-50	223	-86
16174257	13	204	-88
16174585	30	200	-52
16174913	-15	183	-27
16175241	-55	142	-25
16175569	-85	132	-3
16175897	-79	162	5
16176225	8	205	1
16176553	60	210	23
16176881	120	176	21
16177209	134	217	0
16177537	131	233	-2
16177865	122	247	-1
16178193	130	232	-10
16178521	127	212	-13
16178849	48	195	-6
16179177	-42	163	-14
16179505	-111	149	-5
16179833	-187	162	-9
16180161	-180	157	-21
16180489	-157	139	-10
16180817	-144	138	-13
16181145	-113	152	-16
16181473	-94	138	-8
16181801	-78	161	-13
16182129	-64	152	9
16182457	-68	153	-2
16182785	-55	138	-31
16183113	-26	139	-31
16183441	-57	184	-10
16183769	-31	183	-8
16184097	-43	160	-11
16184425	-18	160	2
16184753	20	174	8
16185081	58	208	4
16185409	99	223	-16
16185737	93	193	2
16186065	71	148	-7
16186393	-19	103	-3
16186721	-54	51	10
16187049	-70	72	18
16187377	-83	93	15
16187705	-108	91	36
16188033	-103	108	39
16188361	-80	122	23
16188689	-6	136	12
16189017	33	147	13
16189345	42	107	16
16189673	-37	85	24
16190001	-87	73	17
16190329	-133	80	-11
16190657	-151	53	-21
16190985	-154	-41	-6
16191313	-189	-108	27
16191641	-216	-133	45
16191969	-187	-134	29
16192297	-137	-93	31
16192625	-104	-83	21
16192953	-71	-138	50
16193281	-118	-158	71
16193609	-103	-137	82
16193937	-61	-206	73
16194265	-29	-239	79
16194593	6	-271	102
16194921	18	-363	97
16195249	3	-511	81
16195577	-71	-584	85
16195905	-105	-529	102
16196233	-82	-538	91
16196561	1	-561	53
16196889	139	-547	23
16197217	333	-537	36
16197545	518	-534	23
16197873	757	-538	13
16198201	959	-625	25
16198529	1095	-636	-11
16198857	1102	-662	-29
16199185	1038	-755	-78
16199513	993	-787	-121
16199841	1029	-826	-135
16200169	1100	-830	-129
16200497	1210	-852	-106
16200825	1316	-835	-126
16201153	1458	-641	-217
16201481	1555	-495	-288
16201809	1630	-504	-325
16202137	1764	-395	-341
16202465	1915	-349	-359
16202793	2151	-313	-425
16203121	2424	-160	-509
16203449	2696	-12	-603
16203777	3031	143	-620
16204105	3493	284	-589
16204433	4236	214	-637
16204761	4880	-464	-745
16205089	6110	1361	-786
16205417	6726	2202	-858
16205745	7642	3100	-838
16206073	8338	4479	-651
16206401	8762	5075	-664
16206729	8976	5266	-534
16207057	8688	5601	-385
16207385	8204	5967	-98
16207713	7761	6137	456
16208041	7194	6201	1094
16208369	6880	6745	1533
16208697	6320	6805	1967
16209025	5816	7246	2243
16209353	5098	8069	2438
16209681	4803	8202	2501
16210009	4800	7755	2654
16210337	4438	7814	3047
16210665	3935	7752	3242
16210993	3712	7698	3253
16211321	3446	7731	3249
16211649	3553	7587	3383
16211977	3505	7424	3507
16212305	3708	7493	3606
16212633	3911	7347	3492
16212961	4185	7311	3273
16213289	4330	7221	3055
16213617	4282	6960	2792
16213945	3832	6418	2615
16214273	3192	5936	2411
16214601	2331	5290	2181
16214929	1446	4504	1947
16215257	501	3670	1801
16215585	-363	2913	1600
16215913	-959	2602	1314
16216241	-1363	2301	1363
16216569	-1898	1275	1532
16216897	-2278	239	1733
16217225	-2844	-1075	1959
16217553	-3337	-2568	2149
16217881	-3441	-2731	2305
16218209	-3485	-1871	2130
16218537	-3424	-862	1415
16218865	-3230	316	557
16219193	-2383	784	-297
16219521	-1132	527	-256
16219849	363	878	333
16220177	993	808	1500
16220505	958	628	1883
16220833	1147	796	1633
16221161	1429	865	1389
16221489	1683	694	1218
16221817	1764	555	1101
16222145	1589	523	1155
16222473	1113	251	1051
16222801	72	492	1224
16223129	-818	86	1153
16223457	-1405	43	1140
16223785	-1629	213	1164
16224113	-1578	161	1000
16224441	-1410	122	929
16224769	-1247	14	793
16225097	-1064	7	805
16225425	-1007	20	752
16225753	-1063	13	621
16226081	-1161	39	505
16226409	-1262	109	500
16226737	-1276	108	500
16227065	-1359	80	427
16227393	-1349	92	333
16227721	-1318	66	288
16228049	-1317	-3	239
16228377	-1189	-89	227
16228705	-1154	-71	227
16229033	-991	-79	165
16229361	-898	-180	103
16229689	-822	-104	53
16230017	-722	-99	58
16230345	-704	-165	119
16230673	-704	-193	123
16231001	-639	-151	107
16231329	-557	-69	18
16231657	-457	-9	-15
16231985	-337	-161	18
16232313	-393	-57	87
16232641	-831	-83	41
16232969	-674	-552	103
16233297	-320	-794	-236
16233625	-128	354	68
16233953	-709	774	157
16234281	-343	15	78
16234609	50	-203	54
16234937	235	-42	-141
16235265	307	96	-130
16235593	195	-78	-130
16235921	-44	-126	-153
16236249	-310	-213	-239
16236577	-294	-177	-304
16236905	-63	-300	-339
16237233	230	-266	-371
16237561	433	-235	-384
16237889	610	-193	-363
16238217	583	-155	-334
16238545	431	-339	-283
16238873	330	-304	-208
16239201	253	-197	-235
16239529	294	-102	-326
16239857	325	-150	-330
16240185	238	-271	-336
16240513	144	-338	-313
16240841	-78	-311	-268
16241169	-210	-233	-286
16241497	-251	-144	-266
16241825	-236	-59	-312
16242153	-142	61	-332
16242481	-67	-40	-321
16242809	-63	-57	-339
16243137	-80	-5	-309
16243465	-54	24	-276
16243793	-36	58	-262
16244121	-133	36	-225
16244449	-133	-43	-171
16244777	-118	-53	-173
16245105	-104	98	-183
16245433	44	89	-208
16245761	169	119	-206
16246089	214	207	-178
16246417	228	246	-186
16246745	228	290	-112
16247073	236	314	-116
16247401	253	425	-101
16247729	283	492	-127
16248057	384	501	-98
16248385	385	454	-64
16248713	377	375	-65
16249041	330	368	-66
16249369	239	325	-41
16249697	176	193	-88
16250025	99	128	-73
16250353	15	68	-92
16250681	-23	76	-76
16251009	-52	59	-74
16251337	-39	70	-65
16251665	-66	38	-65
16251993	-80	3	-51
16252321	-106	60	-46
16252649	-92	20	-26
16252977	-20	43	-6
16253305	19	67	-27
16253633	29	111	-12
16253961	73	107	-36
16254289	61	86	-29
16254617	63	116	-27
16254945	42	94	-15
16255273	4	96	6
16255601	-2	54	4
16255929	-50	99	-24
16256257	-29	118	-5
16256585	-15	91	10
16256913	-11	116	-11
16257241	-13	103	3
16257569	-31	77	15
16257897	-65	91	6
16258225	-117	79	-4
16258553	-102	87	8
16258881	-108	118	2
16259209	-77	111	-8
16259537	-67	137	1
16259865	-61	120	15
16260193	-58	117	17
16260521	-31	139	-2
16260849	-28	122	-3
16261177	-18	122	0
16261505	-31	121	0
16261833	-88	114	20
16262161	-147	80	26
16262489	-163	101	13
16262817	-140	133	-4
16263145	-130	116	-10
16263473	-98	127	-8
16263801	-105	136	-3
16264129	-147	137	-15
16264457	-165	94	14
16264785	-147	95	20
16265113	-148	101	14
16265441	-146	116	-1
16265769	-92	111	1
16266097	-88	108	11
16266425	-78	110	8
16266753	-106	103	-5
16267081	-108	131	-8
16267409	-144	122	-12
16267737	-144	131	-35
16268065	-145	125	-25
16268393	-141	122	-21
16268721	-113	122	-36
16269049	-133	126	-24
16269377	-153	122	-13
16269705	-164	140	-23
16270033	-158	130	-31
16270361	-132	150	-13
16270689	-136	130	-41
16271017	-109	112	-45
16271345	-146	140	-23
16271673	-138	107	-32
16272001	-182	196	5
16272329	-131	91	-45
16272657	-143	192	6
16272985	-99	104	-54
16273313	-136	213	-34
16273641	-121	113	-53
16273969	-152	152	-22
16274297	-139	188	-17
16274625	-139	147	-42
16274953	-101	189	-22
16275281	-83	161	-35
16275609	-78	183	-50
16275937	-101	157	-20
16276265	-124	168	-20
16276593	-171	154	-17
16276921	-145	127	-8
16277249	-128	164	-17
16277577	-145	165	-3
16277905	-105	152	-6
16278233	-79	148	9
16278561	-74	141	15
16278889	-90	114	33
16279217	-93	135	15
16279545	-115	116	11
16279873	-120	117	26
16280201	-121	134	24
16280529	-130	139	24
16280857	-111	133	53
16281185	-109	123	34
16281513	-87	131	15
16281841	-74	135	26
16282169	-108	118	24
16282497	-109	124	24
16282825	-113	131	16
16283153	-112	127	25
16283481	-92	121	12
16283809	-116	129	6
16284137	-113	135	18
16284465	-102	160	9
16284793	-113	160	3
16285121	-87	141	7
16285449	-65	164	-4
16285777	-73	167	-8
16286105	-89	150	-8
16286433	-93	155	-12
16286761	-123	137	-5
16287089	-90	146	-6
16287417	-101	152	-9
16287745	-92	137	-5
16288073	-86	155	-4
16288401	-87	141	-3
16288729	-82	151	-2
16289057	-87	164	-24
16289385	-81	152	-28
16289713	-81	146	-39
16290041	-99	131	-37
16290369	-92	162	-53
16290697	-92	154	-64
16291025	-105	147	-67
16291353	-117	145	-67
16291681	-124	114	-55
16292009	-126	130	-44
16292337	-90	124	-65
16292665	-45	142	-48
16292993	-16	134	-65
16293321	-26	126	-63
16293649	-23	164	-58
16293977	-35	136	-69
16294305	-19	146	-68
16294633	-31	127	-55
16294961	-48	137	-62
16295289	-47	117	-45
16295617	-81	126	-59
16295945	-51	103	-44
16296273	-87	118	-39
16296601	-98	107	-41
16296929	-95	96	-48
16297257	-95	82	-62
16297585	-102	111	-27
16297913	-68	77	-60
16298241	-71	110	-67
16298569	-67	90	-53
16298897	-73	96	-54
16299225	-100	100	-69
16299553	-88	84	-47
16299881	-100	103	-63
16300209	-65	96	-66
16300537	-72	126	-60
16300865	-61	103	-80
16301193	-73	109	-79
16301521	-85	116	-73
16301849	-71	124	-84
16302177	-65	95	-82
16302505	-72	86	-62
16302833	-93	83	-57
16303161	-97	86	-53
16303489	-87	102	-63
16303817	-83	101	-80
16304145	-68	98	-81
16304473	-73	94	-55
16304801	-59	89	-67
16305129	-68	106	-75
16305457	-60	99	-85
16305785	-74	83	-85
16306113	-99	107	-69
16306441	-103	96	-76
16306769	-77	110	-85
16307097	-31	107	-98
16307425	-37	94	-82
16307753	-6	104	-84
16308081	-36	134	-82
16308409	-64	70	-85
16308737	-49	86	-75
16309065	-45	110	-92
16309393	-70	68	-83
16309721	-81	84	-60
16310049	-69	80	-58
16310377	-62	88	-79
16310705	-42	73	-62
16311033	-32	85	-52
16311361	-33	82	-54
16311689	-60	70	-46
16312017	-63	79	-45
16312345	-47	105	-39
16312673	-38	71	-52
16313001	-28	76	-56
16313329	-32	74	-69
16313657	-38	73	-51
16313985	-69	66	-72
16314313	-85	73	-71
16314641	-99	72	-72
16314969	-115	77	-78
16315297	-115	78	-68
16315625	-147	57	-64
16315953	-114	80	-67
16316281	-80	94	-89
16316609	-48	74	-80
16316937	-37	87	-91
16317265	-47	96	-88
16317593	-49	111	-101
16317921	-46	109	-102
16318249	-48	114	-108
16318577	-48	116	-111
16318905	-53	86	-100
16319233	-60	104	-98
16319561	-37	114	-100
16319889	-46	95	-107
16320217	-56	76	-87
16320545	-67	92	-79
16320873	-89	84	-86
16321201	-95	76	-72
16321529	-161	-162	-59
16321857	-138	-241	-39
16322185	-155	-348	-34
16322513	-347	-1122	-21
16322841	-277	-612	-14
16323169	-228	-340	-48
16323497	-286	-221	-57
16323825	-373	-226	-70
16324153	-444	-356	-71
16324481	-373	-116	-81
16324809	-408	-36	-138
16325137	-375	-15	-107
16325465	-359	19	-146
16325793	-397	-69	-133
16326121	-448	-90	-163
16326449	-513	-69	-225
16326777	-524	-453	-232
16327105	-514	-364	-282
16327433	-513	-173	-356
16327761	-575	-200	-426
16328089	-674	-233	-447
16328417	-841	-247	-506
16328745	-821	-54	-618
16329073	-612	93	-867
16329401	-223	326	-1123
16329729	50	385	-1418
16330057	337	362	-1708
16330385	354	609	-1893
16330713	42	553	-1923
16331041	-36	454	-1963
16331369	-119	698	-2147
16331697	-187	891	-2476
16332025	-229	796	-2828
16332353	-340	755	-3200
16332681	-559	727	-3266
16333009	-840	863	-3534
16333337	-1040	642	-3165
16333665	-1325	789	-3487
16333993	-1859	569	-3544
16334321	-3126	-160	-3618
16334649	-4431	-1328	-3793
16334977	-4954	-1655	-3738
16335305	-5167	-1571	-3768
16335633	-4833	-1304	-3486
16335961	-5275	-1047	-2853
16336289	-6315	-1012	-2920
16336617	-6449	-1216	-2905
16336945	-5241	-392	-1847
16337273	-3623	1003	-535
16337601	-516	1906	512
16337929	3032	3723	1797
16338257	5599	5735	4154
16338585	5120	4621	6323
16338913	4351	2392	5349
16339241	3509	3578	3552
16339569	2787	2617	1985
16339897	2102	3269	2253
16340225	2395	2765	2467
16340553	3530	-367	2891
16340881	4370	-1940	2942
16341209	4578	-1872	2939
16341537	4764	-1131	3092
16341865	5328	-774	3085
16342193	5805	-333	3693
16342521	5536	-1010	3737
16342849	4910	-3468	3208
16343177	3842	-4967	3479
16343505	1667	-3911	2439
16343833	-454	307	1174
16344161	-1089	484	251
16344489	-1083	-1404	467
16344817	-1285	-1579	650
16345145	-1359	-1485	827
16345473	-989	-684	1410
16345801	-698	294	1608
16346129	-609	1243	1393
16346457	-372	1062	1128
16346785	-385	618	896
16347113	-144	806	450
16347441	214	1687	33
16347769	477	1809	-174
16348097	707	1341	-173
16348425	571	937	-346
16348753	423	228	-462
16349081	263	243	-365
16349409	-32	714	-434
16349737	-138	965	-843
16350065	-299	601	-1104
16350393	-438	707	-1366
16350721	-2229	1658	-1850
16351049	-4490	5983	-2665
16351377	-6373	10977	-7944
16351705	-4934	5636	-4628
16352033	-5135	-4774	-1838
16352361	-4106	-8450	-2617
16352689	-3977	-2551	-498
16353017	-3884	2526	1331
16353345	-6190	4711	2917
16353673	28945	8432	6145
16354001	-19784	-11865	-4585
16354329	-1503	-12568	-1068
16354657	-7723	-1736	382
16354985	-5627	6743	-3559
16355313	89	7725	-5435
16355641	-18	-851	-5772
16355969	14369	-586	-722
16356297	7126	3777	-388
16356625	5080	-10339	3175
16356953	1269	-6553	4774
16357281	-3152	3523	2686
16357609	-4459	6185	1178
16357937	-2757	3426	868
16358265	243	-185	648
16358593	1264	-2198	1553
16358921	2084	-1025	1246
16359249	2684	-652	2388
16359577	2401	609	1649
16359905	2630	351	381
16360233	2835	-729	-537
16360561	2659	-311	244
16360889	2405	-176	172
16361217	2034	-342	610
16361545	1661	-215	750
16361873	1241	207	909
16362201	1109	-420	891
16362529	861	-800	798
16362857	610	-641	858
16363185	215	-615	805
16363513	-18	-480	405
16363841	-257	-358	137
16364169	-17	-454	-85
16364497	92	-724	-311
16364825	210	-763	-594
16365153	298	-293	-278
16365481	279	-19	529
16365809	546	-90	603
16366137	374	-687	-398
16366465	1373	487	250
16366793	1373	-434	134
16367121	1217	105	46
16367449	860	-294	189
16367777	697	-671	0
16368105	509	-39	112
16368433	516	-125	87
16368761	365	68	114
16369089	423	95	48
16369417	234	200	79
16369745	92	127	41
16370073	-92	252	-18
16370401	-215	275	-112
16370729	-341	221	111
16371057	-404	-16	9
16371385	-352	3	35
16371713	-273	-60	3
16372041	-132	-126	-43
16372369	-86	-193	-104
16372697	-49	-283	-115
16373025	-113	-225	-173
16373353	-255	-221	-156
16373681	-312	-151	-15
16374009	-254	-188	15
16374337	-201	-51	7
16374665	-73	-76	-38
16374993	-17	25	-64
16375321	-11	53	-93
16375649	-118	109	-135
16375977	-237	104	-136
16376305	-294	139	-134
16376633	-150	105	-177
16376961	-140	137	-52
16377289	-170	63	-108
16377617	-275	132	-4
16377945	-317	2	-49
16378273	-383	131	-87
16378601	-427	91	-76
16378929	-414	-11	-53
16379257	-400	18	-41
16379585	-363	62	-78
16379913	-373	-16	49
16380241	-209	165	-68
16380569	-143	59	-66
16380897	-145	61	-9
16381225	-143	125	-34
16381553	-107	69	-4
16381881	-72	91	3
16382209	-73	80	-7
16382537	-116	80	1
16382865	-142	81	26
16383193	-156	54	37
16383521	-181	92	29
16383849	-192	52	60
16384177	-170	75	79
16384505	-129	100	74
16384833	-114	115	81
16385161	-90	114	91
16385489	-89	117	85
16385817	-112	156	77
16386145	-165	153	80
16386473	-181	143	106
16386801	-163	123	117
16387129	-146	135	95
16387457	-77	129	95
16387785	-58	105	94
16388113	-67	96	96
16388441	-118	115	116
16388769	-159	93	112
16389097	-158	118	107
16389425	-127	126	101
16389753	-106	131	92
16390081	-97	119	102
16390409	-106	86	99
16390737	-150	110	92
16391065	-173	105	84
16391393	-189	94	82
16391721	-163	100	76
16392049	-180	79	78
16392377	-222	65	85
16392705	-244	45	97
16393033	-233	48	107
16393361	-235	56	107
16393689	-222	72	92
16394017	-195	75	92
16394345	-165	56	89
16394673	-140	95	79
16395001	-151	100	87
16395329	-154	83	88
16395657	-138	122	77
16395985	-134	122	77
16396313	-94	90	64
16396641	-80	118	71
16396969	-80	94	63
16397297	-99	81	69
16397625	-126	75	87
16397953	-113	72	72
16398281	-110	109	44
16398609	-99	104	33
16398937	-101	95	49
16399265	-146	85	61
16399593	-161	81	79
16399921	-154	84	85
16400249	-123	115	71
16400577	-71	120	70
16400905	-36	103	59
16401233	-19	112	51
16401561	-39	112	53
16401889	-58	135	47
16402217	-92	126	41
16402545	-85	114	46
16402873	-79	100	48
16403201	-58	113	31
16403529	-66	112	49
16403857	-40	105	38
16404185	-49	118	42
16404513	-53	103	41
16404841	-52	138	36
16405169	-71	132	29
16405497	-49	144	20
16405825	-51	149	23
16406153	-74	139	32
16406481	-53	120	48
16406809	-76	139	38
16407137	-97	113	35
16407465	-80	93	39
16407793	-91	96	23
16408121	-103	91	36
16408449	-90	89	62
16408777	-88	62	66
16409105	-75	96	59
16409433	-60	87	57
16409761	-31	75	59
16410089	-39	108	48
16410417	-56	123	40
16410745	-71	128	45
16411073	-99	120	41
16411401	-132	108	61
16411729	-138	95	54
16412057	-126	105	61
16412385	-125	99	36
16412713	-110	98	45
16413041	-99	105	47
16413369	-113	112	46
16413697	-124	92	57
16414025	-110	85	64
16414353	-75	100	78
16414681	-34	105	63
16415009	10	98	50
16415337	1	95	42
16415665	-14	115	51
16415993	-55	75	57
16416321	-101	87	63
16416649	-108	96	42
16416977	-110	81	43
16417305	-94	114	44
16417633	-83	80	43
16417961	-50	107	46
16418289	-46	121	40
16418617	-45	101	30
16418945	-30	111	32
16419273	-20	135	31
16419601	-2	130	28
16419929	-16	133	19
16420257	-9	145	20
16420585	-24	136	14
16420913	-41	150	7
16421241	-49	156	7
16421569	-37	127	10
16421897	-39	121	9
16422225	-63	125	-1
16422553	-60	123	9
16422881	-35	112	4
16423209	-34	108	11
16423537	-32	116	15
16423865	-18	95	29
16424193	-17	126	11
16424521	-24	129	8
16424849	-23	132	11
16425177	-32	124	1
16425505	-72	121	-10
16425833	-83	123	1
16426161	-85	124	-7
16426489	-65	125	-16
16426817	-78	119	-15
16427145	-81	101	-4
16427473	-85	117	-9
16427801	-80	125	-19
16428129	-58	114	-2
16428457	-24	128	-25
16428785	-30	122	-32
16429113	-50	107	-22
16429441	-57	97	-4
16429769	-52	135	-15
16430097	-14	155	-50
16430425	-22	124	-35
16430753	7	149	-57
16431081	-23	150	-54
16431409	-72	164	-27
16431737	-67	119	-7
16432065	-35	136	-19
16432393	-7	146	-60
16432721	28	116	-42
16433049	30	127	-36
16433377	26	171	-52
16433705	75	184	-87
16434033	104	209	-115
16434361	104	212	-151
16434689	62	213	-173
16435017	21	217	-168
16435345	-41	230	-213
16435673	-124	212	-237
16436001	-150	228	-284
16436329	-172	188	-299
16436657	-241	202	-333
16436985	-351	150	-317
16437313	-430	143	-308
16437641	-514	141	-312
16437969	-549	160	-345
16438297	-565	102	-381
16438625	-632	54	-359
16438953	-770	-4	-341
16439281	-900	14	-321
16439609	-990	17	-355
16439937	-1055	18	-374
16440265	-1164	-54	-356
16440593	-1218	-104	-335
16440921	-1238	-124	-333
16441249	-1265	-106	-372
16441577	-1246	-77	-407
16441905	-1230	-97	-405
16442233	-1276	-106	-397
16442561	-1306	-121	-348
16442889	-1325	-144	-328
16443217	-1335	-137	-354
16443545	-1334	-108	-379
16443873	-1293	-110	-404
16444201	-1233	-110	-426
16444529	-1216	-95	-439
16444857	-1231	-89	-439
16445185	-1279	-140	-411
16445513	-1335	-158	-373
16445841	-1326	-164	-365
16446169	-1272	-109	-372
16446497	-1223	-90	-379
16446825	-1226	-122	-390
16447153	-1244	-172	-382
16447481	-1268	-174	-326
16447809	-1311	-215	-305
16448137	-1315	-157	-318
16448465	-1249	-128	-339
16448793	-1203	-132	-356
16449121	-1199	-133	-367
16449449	-1213	-147	-307
16449777	-1216	-173	-278
16450105	-1185	-166	-265
16450433	-1124	-148	-273
16450761	-1096	-125	-297
16451089	-1031	-107	-310
16451417	-980	-97	-302
16451745	-987	-131	-264
16452073	-972	-139	-214
16452401	-890	-50	-231
16452729	-792	-3	-259
16453057	-671	-3	-257
16453385	-549	27	-280
16453713	-454	33	-258
16454041	-406	40	-221
16454369	-389	56	-213
16454697	-342	60	-221
16455025	-251	107	-235
16455353	-185	111	-236
16455681	-163	122	-221
16456009	-116	128	-200
16456337	-78	164	-194
16456665	-24	166	-200
16456993	20	195	-188
16457321	67	182	-175
16457649	45	170	-152
16457977	49	208	-138
16458305	58	187	-114
16458633	74	212	-104
16458961	108	197	-96
16459289	135	201	-81
16459617	113	214	-87
16459945	121	202	-71
16460273	92	191	-62
16460601	80	182	-34
16460929	82	185	-16
16461257	95	216	-28
16461585	118	207	-29
16461913	116	219	-20
16462241	136	230	-10
16462569	118	201	15
16462897	128	215	13
16463225	126	201	26
16463553	151	213	28
16463881	164	203	30
16464209	182	211	48
16464537	195	221	58
16464865	193	221	60
16465193	203	218	63
16465521	217	220	86
16465849	225	240	76
16466177	242	256	64
16466505	256	227	76
16466833	242	232	93
16467161	261	242	85
16467489	278	245	111
16467817	294	232	107
16468145	262	196	139
16468473	192	171	169
16468801	137	172	218
16469129	31	132	233
16469457	3	145	243
16469785	-14	159	230
16470113	21	161	232
16470441	31	142	241
16470769	44	139	263
16471097	29	142	261
16471425	33	136	268
16471753	52	128	246
16472081	87	151	266
16472409	94	147	264
16472737	70	133	292
16473065	111	157	280
16473393	131	211	260
16473721	176	214	257
16474049	193	214	227
16474377	164	185	243
16474705	117	188	258
16475033	80	194	254
16475361	93	221	247
16475689	110	194	237
16476017	109	199	235
16476345	90	188	251
16476673	58	181	259
16477001	15	159	276
16477329	-17	156	265
16477657	-8	148	267
16477985	-4	147	251
16478313	-13	157	255
16478641	36	127	256
16478969	27	127	271
16479297	33	134	255
16479625	24	161	250
16479953	41	170	250
16480281	56	151	246
16480609	49	138	247
16480937	33	121	265
16481265	10	113	285
16481593	11	145	275
16481921	2	142	256
16482249	4	143	238
16482577	-26	141	255
16482905	-12	113	259
16483233	-10	103	215
16483561	12	133	227
16483889	27	105	234
16484217	5	121	237
16484545	-21	130	225
16484873	-4	138	234
16485201	26	153	227
16485529	46	119	220
16485857	65	112	211
16486185	31	102	222
16486513	13	111	227
16486841	-6	116	232
16487169	-26	121	211
16487497	-7	108	230
16487825	17	123	220
16488153	53	115	226
16488481	63	101	248
16488809	112	83	249
16489137	109	101	240
16489465	110	129	242
16489793	105	123	222
16490121	129	142	230
16490449	142	143	223
16490777	171	153	221
16491105	207	163	222
16491433	263	185	213
16491761	307	177	212
16492089	348	190	212
16492417	363	189	233
16492745	364	199	223
16493073	384	191	228
16493401	388	179	227
16493729	396	162	243
16494057	401	184	249
16494385	389	179	252
16494713	392	177	266
16495041	426	181	258
16495369	458	190	246
16495697	486	185	256
16496025	466	199	260
16496353	475	194	250
16496681	460	169	247
16497009	445	192	236
16497337	453	200	226
16497665	471	216	210
16497993	499	230	187
16498321	518	187	193
16498649	506	205	191
16498977	467	201	191
16499305	400	183	196
16499633	342	209	178
16499961	332	186	165
16500289	328	189	158
16500617	322	185	138
16500945	330	191	124
16501273	268	157	125
16501601	212	155	143
16501929	156	152	138
16502257	99	150	127
16502585	81	156	115
16502913	86	164	111
16503241	96	165	99
16503569	115	143	101
16503897	114	141	88
16504225	99	139	83
16504553	49	142	86
16504881	11	138	71
16505209	-43	100	63
16505537	-108	127	55
16505865	-130	94	101
16506193	-124	110	73
16506521	-89	130	70
16506849	-80	142	38
16507177	-34	117	35
16507505	-53	130	22
16507833	-85	130	13
16508161	-124	140	4
16508489	-120	135	-8
16508817	-133	153	-24
16509145	-128	147	-32
16509473	-115	133	-15
16509801	-104	149	-17
16510129	-104	138	-36
16510457	-95	131	-32
16510785	-115	132	-53
16511113	-145	146	-35
16511441	-138	125	-37
16511769	-162	133	-35
16512097	-159	131	-45
16512425	-172	144	-45
16512753	-140	138	-51
16513081	-124	149	-52
16513409	-144	153	-60
16513737	-159	132	-58
16514065	-147	120	-52
16514393	-167	145	-51
16514721	-156	140	-64
16515049	-151	139	-74
16515377	-177	139	-60
16515705	-180	134	-59
16516033	-178	131	-58
16516361	-159	135	-74
16516689	-137	131	-59
16517017	-90	130	-76
16517345	-86	142	-75
16517673	-85	140	-75
16518001	-101	145	-72
16518329	-122	134	-50
16518657	-122	134	-57
16518985	-122	148	-64
16519313	-136	138	-58
16519641	-120	152	-58
16519969	-106	138	-36
16520297	-105	137	-50
16520625	-101	147	-51
16520953	-114	142	-51
16521281	-104	138	-62
16521609	-115	135	-51
16521937	-103	134	-56
16522265	-108	131	-55
16522593	-140	130	-45
16522921	-157	137	-34
16523249	-155	131	-36
16523577	-163	131	-39
16523905	-146	132	-50
16524233	-122	142	-41
16524561	-131	133	-52
16524889	-137	130	-52
16525217	-128	130	-41
16525545	-134	142	-59
16525873	-151	147	-54
16526201	-122	149	-47
16526529	-114	167	-64
16526857	-105	153	-69
16527185	-104	156	-47
16527513	-114	149	-44
16527841	-117	137	-48
16528169	-138	138	-54
16528497	-119	135	-40
16528825	-119	152	-44
16529153	-121	139	-42
16529481	-120	139	-46
16529809	-123	157	-38
16530137	-122	135	-41
16530465	-142	142	-37
16530793	-146	109	-49
16531121	-172	142	-45
16531449	-166	135	-45
16531777	-155	131	-44
16532105	-175	142	-36
16532433	-151	133	-49
16532761	-132	150	-38
16533089	-121	133	-55
16533417	-126	155	-52
16533745	-120	149	-63
16534073	-111	146	-67
16534401	-94	147	-52
16534729	-81	129	-63
16535057	-66	160	-58
16535385	-55	136	-71
16535713	-57	159	-80
16536041	-59	157	-78
16536369	-50	157	-80
16536697	-52	121	-71
16537025	-67	166	-81
16537353	-104	127	-85
