Time Stamp	Gyroscope X	Gyroscope Y	Gyroscope Z
RAW	RAW	RAW	RAW
no units	no units	no units	no units
13090065	-74	124	-45
13090393	-60	132	-47
13090721	-75	106	-42
13091049	-85	144	-39
13091377	-70	145	-37
13091705	-81	125	-35
13092033	-49	133	-31
13092361	-65	137	-27
13092689	-67	125	-27
13093017	-66	138	-27
13093345	-69	138	-33
13093673	-54	132	-41
13094001	-54	142	-47
13094329	-55	141	-29
13094657	-47	134	-33
13094985	-46	125	-33
13095313	-29	135	-43
13095641	-29	135	-37
13095969	-8	124	-35
13096297	-4	136	-36
13096625	-12	119	-34
13096953	-13	125	-47
13097281	-18	118	-41
13097609	-48	134	-38
13097937	-33	130	-31
13098265	-49	118	-34
13098593	-35	127	-30
13098921	-31	120	-26
13099249	-31	117	-43
13099577	-21	113	-31
13099905	-24	124	-33
13100233	-22	130	-37
13100561	-34	122	-35
13100889	-25	121	-34
13101217	-46	121	-31
13101545	-44	119	-29
13101873	-52	125	-28
13102201	-52	138	-24
13102529	-50	132	-31
13102857	-57	128	-32
13103185	-55	122	-22
13103513	-50	128	-39
13103841	-50	124	-38
13104169	-55	144	-31
13104497	-58	125	-27
13104825	-47	124	-29
13105153	-55	134	-36
13105481	-42	138	-31
13105809	-51	143	-33
13106137	-39	122	-31
13106465	-51	126	-28
13106793	-40	120	-38
13107121	-57	126	-35
13107449	-51	137	-32
13107777	-63	119	-37
13108105	-68	128	-38
13108433	-74	119	-49
13108761	-79	141	-53
13109089	-81	115	-39
13109417	-67	123	-60
13109745	-71	128	-57
13110073	-59	125	-61
13110401	-71	128	-55
13110729	-66	122	-45
13111057	-49	138	-49
13111385	-56	126	-52
13111713	-38	124	-56
13112041	-39	118	-54
13112369	-40	121	-55
13112697	-51	124	-53
13113025	-54	124	-53
13113353	-75	126	-39
13113681	-88	121	-43
13114009	-70	123	-49
13114337	-67	125	-52
13114665	-57	109	-49
13114993	-63	120	-43
13115321	-63	117	-39
13115649	-69	99	-41
13115977	-68	117	-33
13116305	-52	122	-44
13116633	-59	118	-37
13116961	-46	125	-34
13117289	-40	126	-35
13117617	-46	140	-30
13117945	-58	136	-27
13118273	-71	137	-31
13118601	-66	153	-33
13118929	-59	126	-31
13119257	-53	150	-30
13119585	-51	139	-23
13119913	-52	143	-41
13120241	-71	140	-20
13120569	-68	139	-37
13120897	-51	135	-41
13121225	-45	138	-45
13121553	-49	128	-38
13121881	-51	146	-28
13122209	-57	138	-21
13122537	-80	141	-40
13122865	-61	134	-37
13123193	-73	131	-39
13123521	-59	130	-24
13123849	-67	129	-33
13124177	-56	140	-40
13124505	-66	139	-36
13124833	-50	120	-30
13125161	-75	134	-29
13125489	-42	140	-35
13125817	-44	132	-40
13126145	-50	135	-21
13126473	-41	131	-28
13126801	-48	145	-31
13127129	-64	137	-40
13127457	-73	133	-24
13127785	-73	133	-38
13128113	-69	141	-34
13128441	-71	137	-18
13128769	-69	136	-28
13129097	-52	152	-33
13129425	-41	143	-32
13129753	-40	140	-24
13130081	-52	140	-32
13130409	-45	130	-25
13130737	-63	148	-24
13131065	-80	148	-33
13131393	-73	152	-21
13131721	-71	154	-31
13132049	-62	138	-32
13132377	-100	142	-29
13132705	-78	121	-23
13133033	-78	153	-43
13133361	-58	139	-48
13133689	-71	150	-31
13134017	-50	128	-30
13134345	-51	152	-21
13134673	-37	138	-24
13135001	-45	143	-36
13135329	-46	141	-22
13135657	-29	145	-32
13135985	-28	131	-35
13136313	-41	140	-28
13136641	-33	134	-40
13136969	-51	129	-52
13137297	-58	132	-26
13137625	-68	135	-32
13137953	-70	121	-33
13138281	-62	128	-40
13138609	-67	132	-31
13138937	-61	124	-34
13139265	-48	139	-25
13139593	-35	126	-27
13139921	-27	127	-19
13140249	-27	134	-33
13140577	-42	145	-26
13140905	-30	156	-34
13141233	-41	155	-18
13141561	-61	145	-21
13141889	-50	150	-19
13142217	-66	152	-15
13142545	-50	151	-26
13142873	-57	165	-20
13143201	-54	164	-14
13143529	-62	155	-15
13143857	-53	154	-28
13144185	-47	155	-15
13144513	-61	157	-25
13144841	-51	158	-22
13145169	-42	143	-31
13145497	-40	169	-23
13145825	-59	149	-8
13146153	-52	160	-16
13146481	-52	154	-23
13146809	-56	154	-20
13147137	-66	143	-5
13147465	-86	166	-1
13147793	-54	164	-11
13148121	-55	175	16
13148449	-72	162	5
13148777	-69	156	16
13149105	-41	185	8
13149433	-31	136	6
13149761	-38	163	11
13150089	-40	169	8
13150417	-51	160	13
13150745	-35	158	12
13151073	-61	151	8
13151401	-52	183	-5
13151729	-31	136	-3
13152057	-58	149	9
13152385	-55	149	-6
13152713	-52	164	12
13153041	-47	144	6
13153369	-34	160	-1
13153697	-37	156	-11
13154025	-41	144	-8
13154353	-55	150	-11
13154681	-61	153	-12
13155009	-81	150	-15
13155337	-74	161	-12
13155665	-86	158	-12
13155993	-83	154	-2
13156321	-83	168	-16
13156649	-78	161	-19
13156977	-74	146	-27
13157305	-61	157	-11
13157633	-58	160	-6
13157961	-32	156	-22
13158289	-40	142	-11
13158617	-38	155	-9
13158945	-35	151	-16
13159273	-45	154	-22
13159601	-36	148	-4
13159929	-61	159	-12
13160257	-67	154	-13
13160585	-73	159	-23
13160913	-64	148	-18
13161241	-74	155	-19
13161569	-69	150	-5
13161897	-82	153	-9
13162225	-69	150	-30
13162553	-53	148	-22
13162881	-28	135	-20
13163209	-39	129	-24
13163537	-45	138	-24
13163865	-42	136	-24
13164193	-47	146	-22
13164521	-49	126	-33
13164849	-48	135	-20
13165177	-41	129	-19
13165505	-52	147	-14
13165833	-61	136	-12
13166161	-51	137	-11
13166489	-52	153	-7
13166817	-50	150	-6
13167145	-34	146	-10
13167473	-31	157	-12
13167801	-34	142	-8
13168129	-30	155	-13
13168457	-36	161	-7
13168785	-43	160	-13
13169113	-43	164	-21
13169441	-30	159	-22
13169769	-52	159	-6
13170097	-38	172	-13
13170425	-66	146	-10
13170753	-53	143	-7
13171081	-59	159	-11
13171409	-54	155	-9
13171737	-47	155	-31
13172065	-37	149	-12
13172393	-39	147	-19
13172721	-42	146	-18
13173049	-37	150	-26
13173377	-46	155	-23
13173705	-51	152	-30
13174033	-59	143	-14
13174361	-66	157	-9
13174689	-86	152	-27
13175017	-73	160	-15
13175345	-55	154	-19
13175673	-62	150	-23
13176001	-50	140	-13
13176329	-60	156	-20
13176657	-70	147	-28
13176985	-68	140	-26
13177313	-64	155	-29
13177641	-59	147	-20
13177969	-61	142	-31
13178297	-67	142	-21
13178625	-66	146	-26
13178953	-76	146	-31
13179281	-67	146	-19
13179609	-59	143	-24
13179937	-67	161	-25
13180265	-60	147	-24
13180593	-57	148	-12
13180921	-39	139	-28
13181249	-48	149	-25
13181577	-49	138	-20
13181905	-53	147	-13
13182233	-43	153	-18
13182561	-46	158	-23
13182889	-35	151	-21
13183217	-45	145	-26
13183545	-62	143	-22
13183873	-56	158	-20
13184201	-58	158	-31
13184529	-67	139	-31
13184857	-62	138	-39
13185185	-51	133	-30
13185513	-60	142	-31
13185841	-59	141	-37
13186169	-54	117	-32
13186497	-53	112	-32
13186825	-48	120	-35
13187153	-41	140	-33
13187481	-44	120	-39
13187809	-45	131	-49
13188137	-35	134	-41
13188465	-36	126	-34
13188793	-47	138	-44
13189121	-41	132	-35
13189449	-36	133	-37
13189777	-38	142	-34
13190105	-49	126	-34
13190433	-30	129	-33
13190761	-54	143	-30
13191089	-40	124	-32
13191417	-44	145	-34
13191745	-39	140	-35
13192073	-41	143	-37
13192401	-37	136	-46
13192729	-38	161	-44
13193057	-17	119	-47
13193385	-41	146	-47
13193713	-23	135	-51
13194041	-34	142	-57
13194369	-21	132	-50
13194697	-50	137	-52
13195025	-64	149	-51
13195353	-72	133	-53
13195681	-45	137	-52
13196009	-43	138	-49
13196337	-43	143	-44
13196665	-37	132	-45
13196993	-43	145	-48
13197321	-31	134	-38
13197649	-41	143	-35
13197977	-45	138	-35
13198305	-57	145	-42
13198633	-58	152	-38
13198961	-56	128	-47
13199289	-49	137	-44
13199617	-48	129	-42
13199945	-56	144	-47
13200273	-45	149	-39
13200601	-50	130	-47
13200929	-37	138	-44
13201257	-49	148	-43
13201585	-57	139	-37
13201913	-49	156	-39
13202241	-48	146	-37
13202569	-40	150	-31
13202897	-30	145	-47
13203225	-59	155	-49
13203553	-55	147	-39
13203881	-51	152	-49
13204209	-73	121	-51
13204537	-52	151	-38
13204865	-58	156	-36
13205193	-57	148	-40
13205521	-53	154	-42
13205849	-62	137	-52
13206177	-52	143	-37
13206505	-51	133	-38
13206833	-45	139	-63
13207161	-35	152	-50
13207489	-45	157	-50
13207817	-62	155	-45
13208145	-62	136	-46
13208473	-64	158	-48
13208801	-68	159	-35
13209129	-67	166	-34
13209457	-68	156	-31
13209785	-73	148	-44
13210113	-61	162	-54
13210441	-44	151	-48
13210769	-42	147	-46
13211097	-63	135	-49
13211425	-62	137	-44
13211753	-40	143	-43
13212081	-43	132	-56
13212409	-39	135	-53
13212737	-47	138	-50
13213065	-58	128	-50
13213393	-58	138	-39
13213721	-56	135	-36
13214049	-26	133	-37
13214377	-15	142	-45
13214705	-12	148	-32
13215033	-29	147	-32
13215361	-35	148	-33
13215689	-35	147	-40
13216017	-39	155	-33
13216345	-46	157	-27
13216673	-41	162	-35
13217001	-57	148	-26
13217329	-37	146	-24
13217657	-46	164	-41
13217985	-26	158	-40
13218313	-38	166	-35
13218641	-51	162	-31
13218969	-55	162	-40
13219297	-43	158	-32
13219625	-61	156	-34
13219953	-53	166	-30
13220281	-66	168	-33
13220609	-62	156	-36
13220937	-59	170	-41
13221265	-67	152	-33
13221593	-64	159	-48
13221921	-57	164	-40
13222249	-49	152	-32
13222577	-58	157	-44
13222905	-58	162	-41
13223233	-47	159	-40
13223561	-61	166	-35
13223889	-61	159	-52
13224217	-59	164	-43
13224545	-55	151	-31
13224873	-42	159	-26
13225201	-50	166	-34
13225529	-41	147	-30
13225857	-53	163	-38
13226185	-57	145	-32
13226513	-68	140	-16
13226841	-76	156	-27
13227169	-66	161	-47
13227497	-68	164	-27
13227825	-83	165	-31
13228153	-62	157	-27
13228481	-68	145	-33
13228809	-65	167	-31
13229137	-58	159	-28
13229465	-28	163	-25
13229793	-51	146	-23
13230121	-69	163	-37
13230449	-56	159	-34
13230777	-58	151	-32
13231105	-48	149	-46
13231433	-71	140	-42
13231761	-58	146	-36
13232089	-56	150	-33
13232417	-50	158	-42
13232745	-62	161	-37
13233073	-71	156	-29
13233401	-44	148	-34
13233729	-40	165	-34
13234057	-23	146	-35
13234385	-8	163	-22
13234713	-35	170	-31
13235041	-35	149	-31
13235369	-39	165	-35
13235697	-40	162	-31
13236025	-44	144	-39
13236353	-67	152	-23
13236681	-62	149	-35
13237009	-67	153	-40
13237337	-54	144	-30
13237665	-53	153	-21
13237993	-59	151	-36
13238321	-52	135	-38
13238649	-55	142	-27
13238977	-51	139	-18
13239305	-45	155	-29
13239633	-38	152	-22
13239961	-6	161	-24
13240289	-27	154	-34
13240617	-37	165	-15
13240945	-60	167	-8
13241273	-70	162	-7
13241601	-59	163	-13
13241929	-62	164	-15
13242257	-50	163	-7
13242585	-29	170	-12
13242913	-27	170	-7
13243241	-25	169	-7
13243569	-29	165	-1
13243897	-38	174	-6
13244225	-50	161	5
13244553	-35	158	17
13244881	-36	178	9
13245209	-9	156	9
13245537	-34	179	22
13245865	-11	158	15
13246193	-46	172	6
13246521	-8	161	-3
13246849	-34	169	6
13247177	-36	162	13
13247505	-45	180	13
13247833	-50	169	3
13248161	-32	175	-11
13248489	-43	164	-4
13248817	-76	167	3
13249145	-102	167	8
13249473	-86	159	-10
13249801	-83	153	-3
13250129	-72	145	-9
13250457	-79	175	-17
13250785	-56	158	-12
13251113	-68	159	-27
13251441	-68	162	-13
13251769	-77	150	-23
13252097	-75	169	-27
13252425	-62	171	-33
13252753	-70	159	-36
13253081	-55	170	-28
13253409	-70	167	-24
13253737	-81	147	-29
13254065	-66	176	-34
13254393	-53	150	-35
13254721	-53	160	-33
13255049	-84	167	-31
13255377	-72	154	-37
13255705	-54	161	-26
13256033	-78	170	-35
13256361	-85	156	-37
13256689	-76	152	-30
13257017	-83	170	-31
13257345	-88	151	-27
13257673	-92	172	-27
13258001	-100	164	-38
13258329	-102	175	-30
13258657	-83	168	-26
13258985	-87	156	-29
13259313	-69	167	-20
13259641	-66	159	-23
13259969	-59	163	-29
13260297	-45	164	-24
13260625	-49	144	-28
13260953	-50	164	-18
13261281	-68	166	-18
13261609	-52	158	-28
13261937	-55	149	-26
13262265	-56	153	-19
13262593	-54	157	-10
13262921	-59	163	-1
13263249	-61	155	-21
13263577	-54	151	-25
13263905	-42	155	-21
13264233	-42	147	-16
13264561	-30	144	-14
13264889	-24	143	-14
13265217	-25	148	-14
13265545	-40	146	-16
13265873	-38	154	-18
13266201	-30	140	-20
13266529	-16	162	-27
13266857	-32	166	-19
13267185	-39	158	-24
13267513	-45	159	-29
13267841	-50	176	-24
13268169	-71	173	-28
13268497	-63	165	-26
13268825	-77	170	-36
13269153	-84	173	-41
13269481	-83	176	-31
13269809	-93	167	-40
13270137	-86	180	-42
13270465	-53	166	-41
13270793	-55	167	-45
13271121	-76	174	-53
13271449	-89	169	-38
13271777	-100	174	-48
13272105	-97	172	-46
13272433	-79	169	-43
13272761	-78	180	-43
13273089	-58	159	-54
13273417	-60	170	-39
13273745	-72	175	-41
13274073	-86	178	-41
13274401	-75	182	-32
13274729	-72	162	-44
13275057	-65	160	-35
13275385	-84	162	-36
13275713	-76	160	-45
13276041	-64	158	-39
13276369	-60	169	-43
13276697	-77	163	-45
13277025	-61	173	-41
13277353	-55	162	-41
13277681	-39	162	-31
13278009	-42	166	-38
13278337	-38	155	-40
13278665	-17	175	-34
13278993	-25	159	-31
13279321	-23	161	-44
13279649	-14	150	-52
13279977	-8	154	-33
13280305	2	162	-49
13280633	-3	157	-54
13280961	-4	159	-39
13281289	21	161	-29
13281617	15	163	-41
13281945	1	152	-45
13282273	3	151	-36
13282601	12	158	-37
13282929	-4	171	-49
13283257	4	160	-53
13283585	27	158	-56
13283913	-2	174	-37
13284241	-16	152	-43
13284569	-26	160	-48
13284897	-31	159	-52
13285225	-31	159	-55
13285553	-36	166	-53
13285881	-47	150	-48
13286209	-60	160	-46
13286537	-56	165	-52
13286865	-56	165	-56
13287193	-51	166	-49
13287521	-52	154	-44
13287849	-52	157	-55
13288177	-52	158	-32
13288505	-52	160	-54
13288833	-64	169	-47
13289161	-63	161	-43
13289489	-70	152	-38
13289817	-82	166	-43
13290145	-76	157	-43
13290473	-63	165	-33
13290801	-76	156	-18
13291129	-52	168	-25
13291457	-47	171	-15
13291785	-52	175	-20
13292113	-25	173	-27
13292441	-32	174	-44
13292769	-26	170	-18
13293097	-29	180	-11
13293425	-50	168	-29
13293753	-35	174	-30
13294081	-31	172	-27
13294409	-9	173	-32
13294737	3	145	-29
13295065	-5	167	-25
13295393	7	149	-5
13295721	15	169	2
13296049	9	133	13
13296377	25	98	34
13296705	72	163	47
13297033	105	1	73
13297361	202	-355	44
13297689	262	-195	10
13298017	108	-13	26
13298345	364	-83	65
13298673	274	63	64
13299001	276	38	154
13299329	229	-177	182
13299657	168	-12	205
13299985	134	191	320
13300313	151	193	390
13300641	123	277	372
13300969	255	221	529
13301297	-123	368	597
13301625	-215	501	706
13301953	-459	513	820
13302281	-627	556	887
13302609	-803	575	1083
13302937	-851	695	1313
13303265	-787	861	1312
13303593	-855	1004	1436
13303921	-1082	1032	1520
13304249	-1016	1125	1738
13304577	-1148	1434	2052
13304905	-1157	1819	2219
13305233	-1115	1699	2415
13305561	-941	1442	2502
13305889	-945	1721	2788
13306217	-753	1985	3282
13306545	-376	2028	3625
13306873	282	1840	3894
13307201	1058	1818	3898
13307529	1509	1501	4116
13307857	1434	1675	3999
13308185	1077	1600	4314
13308513	509	1498	4457
13308841	81	1288	4579
13309169	-123	1491	4525
13309497	31	1342	4143
13309825	16	1680	3885
13310153	415	1697	3515
13310481	1149	1181	3499
13310809	1984	495	3203
13311137	2033	379	2712
13311465	1490	615	1935
13311793	973	1187	909
13312121	453	862	495
13312449	494	443	-340
13312777	801	249	-863
13313105	1005	-322	-1743
13313433	1792	-708	-2467
13313761	2185	-482	-2741
13314089	1936	154	-3104
13314417	349	-193	-3419
13314745	-932	-1272	-3743
13315073	-1348	-2595	-4371
13315401	-1449	-4738	-4406
13315729	-2242	-6216	-4191
13316057	-2625	-5814	-3693
13316385	-3496	-5134	-3988
13316713	-4756	-4811	-4257
13317041	-7297	-634	-5824
13317369	-7421	-1203	-6283
13317697	-2516	-3921	-4511
13318025	-2202	-4723	-3242
13318353	1816	-5779	-451
13318681	2569	-4538	1062
13319009	2496	-3154	1943
13319337	2374	-2676	2805
13319665	2147	-1753	3674
13319993	1561	-434	2338
13320321	1082	335	1706
13320649	521	225	644
13320977	412	-406	-67
13321305	-115	-640	-713
13321633	-716	-825	-1415
13321961	-1145	-645	-1782
13322289	-1175	-134	-1966
13322617	-1205	376	-2264
13322945	-1163	565	-2130
13323273	-676	418	-1723
13323601	-1279	50	-1346
13323929	-1435	-50	-910
13324257	-1807	609	-292
13324585	-1743	1185	243
13324913	-1762	1337	938
13325241	361	1663	1686
13325569	3002	3653	754
13325897	13041	9659	5065
13326225	8773	13130	1888
13326553	4636	6928	-6513
13326881	6393	-7418	-920
13327209	2984	-4512	-2792
13327537	4468	5100	-258
13327865	13136	-2368	2023
13328193	-14372	4316	-2172
13328521	3956	1157	4021
13328849	2551	-7353	1858
13329177	5972	-4410	1107
13329505	3002	374	-2636
13329833	4528	3921	-2334
13330161	-2985	752	1866
13330489	-5501	-5810	46
13330817	-4394	-3845	-1682
13331145	778	1569	-4075
13331473	2319	3035	-3567
13331801	3153	2568	-3121
13332129	1834	-2310	-2780
13332457	72	-4527	-1654
13332785	-201	-3062	-1233
13333113	-194	32	-1477
13333441	58	1194	-1263
13333769	916	530	-1219
13334097	1032	-131	-1223
13334425	1484	-850	-1255
13334753	1390	-305	-988
13335081	1382	191	-1202
13335409	800	-45	-1563
13335737	643	-861	-1406
13336065	661	-989	-1475
13336393	894	-691	-1392
13336721	1055	-349	-1224
13337049	1044	-391	-1251
13337377	940	-401	-1248
13337705	607	-318	-1161
13338033	116	-286	-1022
13338361	-564	-536	-964
13338689	-886	-704	-940
13339017	-909	-471	-916
13339345	-657	-343	-852
13339673	-495	-398	-893
13340001	-175	-586	-991
13340329	124	-617	-1004
13340657	338	-478	-936
13340985	625	-179	-950
13341313	668	-58	-987
13341641	617	-197	-1015
13341969	654	-359	-981
13342297	619	-346	-927
13342625	665	-249	-864
13342953	610	-130	-835
13343281	483	-72	-860
13343609	416	-181	-746
13343937	201	-110	-677
13344265	74	-63	-571
13344593	-111	-184	-500
13344921	-269	-245	-430
13345249	-350	-52	-444
13345577	-333	28	-330
13345905	-329	114	-237
13346233	-313	139	-257
13346561	-426	31	-244
13346889	-241	44	-183
13347217	-125	197	-133
13347545	-42	263	-127
13347873	60	207	-112
13348201	240	189	-128
13348529	366	214	-157
13348857	449	239	-126
13349185	466	314	-121
13349513	410	271	-95
13349841	365	211	-75
13350169	295	292	-57
13350497	281	278	-42
13350825	227	248	-14
13351153	194	216	7
13351481	149	256	-11
13351809	132	236	-8
13352137	-1	184	23
13352465	-101	238	65
13352793	-242	291	67
13353121	-218	197	57
13353449	-231	151	33
13353777	-196	179	30
13354105	-164	231	33
13354433	-140	261	-31
13354761	-170	330	-28
13355089	-240	284	-43
13355417	-58	298	-9
13355745	-158	379	-34
13356073	-12	304	-29
13356401	-126	255	-85
13356729	-104	307	-49
13357057	-211	330	-10
13357385	-417	439	-4
13357713	-420	498	-10
13358041	-402	437	5
13358369	-430	389	-15
13358697	-393	385	7
13359025	-288	364	18
13359353	-296	268	35
13359681	-294	308	31
13360009	-343	369	35
13360337	-289	321	38
13360665	-282	267	36
13360993	-200	293	34
13361321	-159	276	25
13361649	-122	192	8
13361977	-19	169	16
13362305	-31	193	22
13362633	-8	219	44
13362961	-12	208	16
13363289	-4	131	15
13363617	-114	53	2
13363945	-81	63	7
13364273	-94	146	12
13364601	-121	163	14
13364929	-89	30	8
13365257	-88	13	-30
13365585	-143	17	-43
13365913	-108	-37	-53
13366241	-315	-123	-60
13366569	-64	29	-25
13366897	-161	209	-30
13367225	-244	118	-57
13367553	-89	90	-65
13367881	-126	149	-69
13368209	-58	90	-53
13368537	-50	148	-51
13368865	-68	188	-57
13369193	-77	143	-47
13369521	-93	167	-51
13369849	-96	147	-48
13370177	-93	135	-30
13370505	-107	202	-50
13370833	-52	189	-59
13371161	-61	132	-63
13371489	-55	136	-56
13371817	-15	181	-42
13372145	-35	213	-50
13372473	-21	156	-47
13372801	-5	146	-36
13373129	-19	195	-57
13373457	1	204	-47
13373785	-27	168	-41
13374113	-19	157	-54
13374441	20	144	-60
13374769	-30	160	-52
13375097	26	165	-53
13375425	-63	133	-49
13375753	-29	126	-40
13376081	-7	126	-42
13376409	-56	105	-44
13376737	-8	167	-41
13377065	-17	174	-32
13377393	-25	149	-61
13377721	-20	152	-47
13378049	-27	148	-34
13378377	-31	147	-25
13378705	-47	177	-27
13379033	-12	151	-20
13379361	-83	173	-42
13379689	-21	159	-25
13380017	-11	91	-39
13380345	-49	111	-49
13380673	-36	101	-31
13381001	-51	147	-29
13381329	-90	179	-22
13381657	-110	121	-18
13381985	-87	139	-25
13382313	-71	155	-32
13382641	-56	100	-40
13382969	-49	98	-20
13383297	-60	119	-26
13383625	-67	105	-20
13383953	-123	83	-21
13384281	-59	86	-35
13384609	-104	114	-19
13384937	-6	119	-23
13385265	-70	134	-32
13385593	-48	119	-32
13385921	-60	126	-22
13386249	-74	187	-16
13386577	-75	158	-28
13386905	-81	164	-16
13387233	-88	181	-18
13387561	-134	154	-43
13387889	-164	67	-27
13388217	-150	76	-44
13388545	-122	126	-28
13388873	-126	107	-41
13389201	-108	67	-47
13389529	-104	92	-54
13389857	-10	101	-49
13390185	-121	160	-44
13390513	-49	126	-24
13390841	-72	134	-15
13391169	-61	144	-31
13391497	-87	143	-23
13391825	-78	163	-34
13392153	-128	143	-11
13392481	-107	150	-19
13392809	-121	161	-22
13393137	-137	120	-41
13393465	-56	98	-19
13393793	-47	174	-32
13394121	-70	125	-42
13394449	-56	85	-20
13394777	-65	173	-21
13395105	-85	158	-24
13395433	-104	120	-16
13395761	-86	118	-1
13396089	-81	146	-16
13396417	-84	137	-19
13396745	-65	123	-6
13397073	-51	121	-12
13397401	-58	130	-16
13397729	-74	108	-24
13398057	-54	93	-10
13398385	-17	143	-21
13398713	-96	160	-19
13399041	-28	77	-12
13399369	-94	107	-22
13399697	-99	168	-21
13400025	-105	148	3
13400353	-122	128	1
13400681	-108	110	-7
13401009	-86	124	-5
13401337	-19	198	-20
13401665	-107	118	-18
13401993	-14	13	-11
13402321	-63	97	-2
13402649	-40	95	0
13402977	-41	80	-10
13403305	-43	117	-14
13403633	-43	98	10
13403961	-87	107	3
13404289	-66	119	13
13404617	-64	114	10
13404945	-68	120	-7
13405273	-46	124	-7
13405601	-64	145	4
13405929	-66	198	5
13406257	-78	126	5
13406585	-100	99	-9
13406913	-94	152	3
13407241	-126	176	-24
13407569	-37	108	-22
13407897	-189	63	-25
13408225	-126	104	-10
13408553	-147	137	2
13408881	-174	57	-10
13409209	-152	98	-18
13409537	-129	123	-7
13409865	-114	83	-26
13410193	19	29	-7
13410521	25	166	-28
13410849	21	124	-26
13411177	-37	40	-26
13411505	-34	64	-30
13411833	-114	150	-46
13412161	-46	74	-19
13412489	-93	82	-39
13412817	-82	110	-21
13413145	-96	95	-36
13413473	-129	84	-23
13413801	-133	80	-36
13414129	-71	33	-29
13414457	11	23	-25
13414785	-88	123	-46
13415113	-10	105	-26
13415441	-46	48	-27
13415769	-31	100	-35
13416097	-42	106	-17
13416425	-61	98	-28
13416753	-74	92	-30
13417081	-57	109	-13
13417409	-58	139	-19
13417737	-79	123	-34
13418065	-17	76	-21
13418393	-100	130	-36
13418721	-7	114	-33
13419049	-80	87	-20
13419377	-87	114	-29
13419705	-88	117	-17
13420033	-72	136	-18
13420361	-97	159	-11
13420689	-98	141	-25
13421017	-104	113	-25
13421345	-108	146	-22
13421673	-149	125	-35
13422001	-128	148	-35
13422329	-159	128	-36
13422657	-144	107	-32
13422985	-189	140	-23
13423313	-101	96	-28
13423641	-2	88	-33
13423969	-86	91	-30
13424297	-17	112	-22
13424625	-41	86	-33
13424953	-33	97	-40
13425281	-24	100	-12
13425609	-18	112	-33
13425937	-52	97	-20
13426265	-35	96	-11
13426593	-42	100	-31
13426921	-80	92	-34
13427249	-122	116	-40
13427577	-118	97	-18
13427905	-13	97	-14
13428233	-55	92	-23
13428561	77	47	-5
13428889	15	118	-34
13429217	16	117	-21
13429545	-24	65	-15
13429873	-19	120	-2
13430201	-42	132	-13
13430529	-22	121	-11
13430857	-38	120	-13
13431185	-58	134	-19
13431513	-97	123	-17
13431841	-81	44	-11
13432169	-22	107	-16
13432497	-78	137	-14
13432825	-48	86	-11
13433153	-35	103	-4
13433481	-59	96	-6
13433809	-78	66	-1
13434137	-68	127	7
13434465	-91	136	1
13434793	-72	108	-10
13435121	-94	103	-9
13435449	-81	114	-3
13435777	-98	118	-13
13436105	-99	68	-12
13436433	-100	84	-13
13436761	-65	141	-17
13437089	-126	95	-1
13437417	-72	83	-10
13437745	-126	96	-8
13438073	-106	93	6
13438401	-99	57	-14
13438729	-33	54	-2
13439057	-63	87	-3
13439385	-56	52	16
13439713	-43	57	-5
13440041	-58	104	3
13440369	-66	80	9
13440697	-32	90	28
13441025	-27	127	39
13441353	-23	144	33
13441681	-29	93	19
13442009	-66	107	21
13442337	-86	153	28
13442665	-104	134	27
13442993	-93	120	23
13443321	-79	112	20
13443649	-101	86	24
13443977	-110	105	20
13444305	-77	148	22
13444633	-85	78	40
13444961	-74	94	27
13445289	-68	132	45
13445617	-89	101	36
13445945	-92	104	30
13446273	-103	126	31
13446601	-211	89	32
13446929	-197	110	52
13447257	-137	115	47
13447585	-183	104	45
13447913	-191	72	31
13448241	-186	74	20
13448569	-175	107	22
13448897	-133	88	47
13449225	-124	103	36
13449553	-122	136	38
13449881	-117	150	31
13450209	-128	113	31
13450537	-151	27	39
13450865	-149	174	18
13451193	-78	214	25
13451521	-130	80	26
13451849	-63	97	51
13452177	-118	207	36
13452505	-117	91	28
13452833	-120	62	43
13453161	-119	159	32
13453489	-129	151	41
13453817	-154	101	54
13454145	-143	104	54
13454473	-122	114	35
13454801	-105	114	47
13455129	-158	102	54
13455457	-39	84	44
13455785	-125	213	20
13456113	-55	125	51
13456441	-46	90	54
13456769	-99	188	46
13457097	-55	154	39
13457425	-83	136	53
13457753	-46	179	42
13458081	-60	184	29
13458409	-88	146	19
13458737	-124	149	8
13459065	-126	113	14
13459393	-128	116	24
13459721	-178	147	17
13460049	-74	174	11
13460377	-127	190	15
13460705	-103	121	6
13461033	-84	106	-9
13461361	-121	170	-10
13461689	-54	146	-2
13462017	-92	115	2
13462345	-93	107	-15
13462673	-95	111	-18
13463001	-89	88	-16
13463329	-78	60	-44
13463657	-109	153	-45
13463985	-89	154	-27
13464313	-90	130	-30
13464641	-71	166	-23
13464969	-115	127	-17
13465297	-100	117	-10
13465625	-86	171	11
13465953	-69	158	-8
13466281	-69	147	-11
13466609	-73	122	-12
13466937	-88	147	-14
13467265	-145	127	-20
13467593	-183	198	-38
13467921	-82	213	-3
13468249	-80	147	-14
13468577	-117	180	-22
13468905	-96	171	-21
13469233	-110	172	-31
13469561	-94	162	-28
13469889	-126	179	-7
13470217	-114	188	-6
13470545	-83	167	-22
13470873	-102	167	-28
13471201	-53	163	-24
13471529	-119	188	-24
13471857	-96	173	-13
13472185	-87	208	-24
13472513	-32	145	-17
13472841	-84	162	-35
13473169	-30	155	-34
13473497	-38	124	-39
13473825	-60	189	-33
13474153	-89	172	-24
13474481	-98	132	-24
13474809	-91	195	-27
13475137	-77	195	-8
13475465	-118	161	-26
13475793	-121	152	-30
13476121	-27	112	-41
13476449	-81	223	-77
13476777	-40	198	-51
13477105	-40	89	-50
13477433	-67	180	-53
13477761	31	172	-48
13478089	-59	132	-57
13478417	75	135	-51
13478745	2	226	-78
13479073	1	115	-58
13479401	51	112	-67
13479729	-27	227	-73
13480057	13	135	-59
13480385	10	102	-62
13480713	-18	169	-63
13481041	-18	192	-71
13481369	4	152	-64
13481697	-70	181	-77
13482025	3	202	-59
13482353	16	211	-71
13482681	12	217	-66
13483009	10	178	-63
13483337	-9	169	-67
13483665	-74	176	-68
13483993	-72	100	-64
13484321	-111	188	-74
13484649	-3	211	-63
13484977	-63	244	-68
13485305	-71	269	-49
13485633	-63	184	-50
13485961	-43	169	-66
13486289	-87	160	-59
13486617	-76	110	-74
13486945	-71	71	-66
13487273	-35	141	-84
13487601	0	127	-60
13487929	-56	130	-65
13488257	-32	131	-46
13488585	-44	138	-48
13488913	-64	158	-35
13489241	-48	141	-35
13489569	-70	141	-47
13489897	-70	116	-45
13490225	-85	135	-51
13490553	9	101	-40
13490881	-100	101	-35
13491209	-20	148	-43
13491537	-93	125	-30
13491865	-108	144	-28
13492193	-82	208	-26
13492521	-141	248	-41
13492849	-87	162	-18
13493177	-77	183	-17
13493505	-56	255	-40
13493833	-66	213	-22
13494161	-76	171	-29
13494489	-49	202	-10
13494817	-67	233	-6
13495145	-60	211	-3
13495473	-72	180	-10
13495801	-78	192	-28
13496129	-103	191	-31
13496457	-113	190	-32
13496785	-159	145	-29
13497113	-146	112	-28
13497441	-155	151	-36
13497769	-96	161	-43
13498097	-103	134	-41
13498425	-81	153	-54
13498753	-76	163	-29
13499081	-67	177	-40
13499409	-63	162	-35
13499737	-81	171	-66
13500065	-87	175	-63
13500393	-103	164	-50
13500721	-102	151	-52
13501049	-89	145	-48
13501377	-115	143	-44
13501705	-103	119	-35
13502033	-77	67	-50
13502361	-76	83	-42
13502689	-22	189	-60
13503017	-28	153	-35
13503345	-49	123	-38
13503673	-55	157	-51
13504001	-65	170	-42
13504329	-85	144	-57
13504657	-81	142	-51
13504985	-61	165	-60
13505313	-99	119	-56
13505641	-101	145	-63
13505969	-81	149	-54
13506297	-80	105	-63
13506625	-104	115	-61
13506953	-118	183	-63
13507281	-98	155	-64
13507609	-91	148	-68
13507937	-38	86	-80
13508265	-42	20	-66
13508593	-44	124	-74
13508921	-14	132	-53
13509249	-21	111	-64
13509577	-10	160	-67
13509905	-20	138	-81
13510233	-53	116	-76
13510561	-44	185	-66
13510889	-109	165	-75
13511217	-154	76	-61
13511545	-117	60	-69
13511873	-135	170	-74
13512201	-137	184	-66
13512529	-106	81	-70
13512857	-75	136	-80
13513185	-83	158	-76
13513513	-108	110	-69
13513841	-74	131	-71
13514169	-54	170	-54
13514497	-86	135	-69
13514825	-123	116	-70
13515153	-144	141	-75
13515481	-80	177	-63
13515809	-124	120	-78
13516137	-134	120	-76
13516465	-123	208	-69
13516793	-121	186	-76
13517121	-135	105	-76
13517449	-83	179	-54
13517777	-112	228	-74
13518105	-76	138	-67
13518433	-60	214	-80
13518761	-81	237	-67
13519089	-73	157	-74
13519417	-57	200	-63
13519745	-101	238	-73
13520073	-21	120	-59
13520401	-47	115	-59
13520729	-12	213	-71
13521057	-51	147	-73
13521385	-21	98	-69
13521713	-34	199	-73
13522041	-33	180	-53
13522369	-33	125	-54
13522697	-57	204	-72
13523025	-37	170	-53
13523353	-18	172	-46
13523681	-41	197	-43
13524009	0	183	-36
13524337	75	118	-59
13524665	-10	197	-62
13524993	54	143	-48
13525321	-34	123	-69
13525649	-10	177	-51
13525977	-9	152	-41
13526305	-49	162	-48
13526633	-41	192	-44
13526961	-75	156	-41
13527289	-93	161	-41
13527617	-102	194	-29
13527945	-88	197	-17
13528273	-96	225	-27
13528601	-66	190	-33
13528929	-5	95	-29
13529257	-5	165	-28
13529585	-12	173	-27
13529913	-57	138	-24
13530241	-46	174	-23
13530569	-77	175	-21
13530897	-105	177	-20
13531225	-37	198	-23
13531553	-85	221	-25
13531881	-59	194	-29
13532209	-80	175	-40
13532537	-89	171	-42
13532865	-89	174	-25
13533193	-69	192	-21
13533521	-79	195	-26
13533849	-27	157	-37
13534177	-96	142	-39
13534505	-46	200	-36
13534833	-53	153	-51
13535161	-94	110	-59
13535489	-48	180	-50
13535817	-87	185	-50
13536145	-69	113	-44
13536473	-82	160	-54
13536801	-41	143	-36
13537129	-36	142	-43
13537457	-2	159	-53
13537785	-11	139	-53
13538113	-13	143	-44
13538441	-12	169	-37
13538769	-31	155	-35
13539097	6	135	-36
13539425	1	133	-31
13539753	10	124	-44
13540081	63	159	-33
13540409	30	173	-35
13540737	43	132	-17
13541065	47	204	-29
13541393	19	228	-37
13541721	22	158	-24
13542049	9	178	-3
13542377	39	226	-7
13542705	33	198	-15
13543033	57	188	-8
13543361	154	142	8
13543689	79	148	-19
13544017	91	163	-19
13544345	26	181	-19
13544673	100	216	-15
13545001	69	211	-20
13545329	84	147	-22
13545657	78	184	-25
13545985	144	223	-10
13546313	157	203	-13
13546641	155	230	-32
13546969	169	198	-32
13547297	164	182	-28
13547625	149	186	-19
13547953	126	168	-13
13548281	99	208	-14
13548609	66	180	-26
13548937	73	209	-38
13549265	73	273	-43
13549593	66	264	-48
13549921	30	160	-59
13550249	14	166	-66
13550577	-24	272	-59
13550905	-8	209	-62
13551233	-71	164	-61
13551561	-49	212	-81
13551889	-75	217	-62
13552217	-31	215	-68
13552545	-56	235	-63
13552873	-79	243	-79
13553201	-88	256	-70
13553529	-42	251	-53
13553857	-31	163	-55
13554185	-56	245	-64
13554513	-24	315	-66
13554841	-38	261	-60
13555169	-48	244	-54
13555497	-65	306	-45
13555825	-19	341	-27
13556153	-19	330	-34
13556481	-8	325	-41
13556809	-21	350	-14
13557137	-3	342	3
13557465	-51	345	26
13557793	-47	385	17
13558121	-23	366	20
13558449	19	356	16
13558777	31	376	29
13559105	-30	371	41
13559433	-56	376	60
13559761	-39	395	57
13560089	-27	389	45
13560417	-14	361	14
13560745	28	335	-14
13561073	-17	428	2
13561401	-33	468	-9
13561729	-157	317	-45
13562057	-195	330	-45
13562385	-228	438	-48
13562713	-218	439	-76
13563041	-212	315	-74
13563369	-230	310	-87
13563697	-167	432	-82
13564025	-162	434	-97
13564353	-57	325	-130
13564681	-38	291	-190
13565009	14	364	-200
13565337	32	382	-233
13565665	50	297	-249
13565993	57	267	-268
13566321	61	223	-304
13566649	32	149	-331
13566977	55	154	-334
13567305	33	223	-357
13567633	-23	190	-368
13567961	-80	188	-370
13568289	-147	144	-383
13568617	-159	75	-433
13568945	-170	78	-488
13569273	-179	125	-478
13569601	-185	144	-465
13569929	-226	112	-470
13570257	-269	78	-491
13570585	-268	114	-501
13570913	-280	47	-517
13571241	-247	-12	-498
13571569	-226	64	-533
13571897	-159	248	-574
13572225	-222	221	-535
13572553	-238	94	-533
13572881	-363	17	-545
13573209	-406	23	-537
13573537	-443	88	-527
13573865	-377	45	-522
13574193	-390	-92	-524
13574521	-458	-175	-474
13574849	-385	-155	-451
13575177	-410	-89	-440
13575505	-393	19	-472
13575833	-366	84	-480
13576161	-104	-28	-397
13576489	46	-40	-367
13576817	197	-32	-386
13577145	253	-88	-426
13577473	364	-351	-387
13577801	298	-268	-287
13578129	30	369	-228
13578457	359	623	-153
13578785	552	127	-20
13579113	505	266	63
13579441	643	706	96
13579769	589	611	191
13580097	650	412	308
13580425	403	352	332
13580753	435	258	386
13581081	285	242	467
13581409	231	303	480
13581737	234	304	502
13582065	366	228	503
13582393	405	237	501
13582721	437	269	472
13583049	494	232	513
13583377	458	360	505
13583705	445	320	510
13584033	377	242	469
13584361	363	172	471
13584689	348	243	471
13585017	354	345	424
13585345	429	306	387
13585673	468	186	418
13586001	314	128	407
13586329	334	163	483
13586657	302	258	558
13586985	409	264	542
13587313	473	212	554
13587641	421	169	626
13587969	369	174	677
13588297	256	202	732
13588625	113	285	816
13588953	92	406	859
13589281	39	378	872
13589609	-20	275	852
13589937	27	368	863
13590265	25	407	874
13590593	39	324	862
13590921	43	257	835
13591249	-24	250	832
13591577	-84	261	845
13591905	-147	192	805
13592233	-112	99	779
13592561	-62	52	808
13592889	-51	-48	757
13593217	-21	-68	717
13593545	-82	-63	783
13593873	-146	63	736
13594201	-188	64	672
13594529	-240	-116	756
13594857	-312	-92	745
13595185	-172	-146	807
13595513	-291	-239	804
13595841	-208	-176	728
13596169	-126	-172	702
13596497	-83	-371	704
13596825	-161	-455	711
13597153	-34	-379	746
13597481	-227	-442	736
13597809	-260	-632	695
13598137	-167	-756	696
13598465	-114	-684	738
13598793	-134	-664	763
13599121	-159	-607	817
13599449	-109	-598	851
13599777	-249	-524	867
13600105	-289	-456	936
13600433	-269	-453	982
13600761	-510	-428	1040
13601089	-639	-439	1083
13601417	-747	-561	1131
13601745	-895	-498	1128
13602073	-1097	-400	1186
13602401	-1147	-352	1242
13602729	-1220	-433	1245
13603057	-1389	-470	1255
13603385	-1261	-364	1349
13603713	-1386	-297	1326
13604041	-1519	-500	1311
13604369	-1565	-704	1399
13604697	-1602	-712	1472
13605025	-1814	-720	1501
13605353	-1862	-854	1569
13605681	-2040	-904	1642
13606009	-2330	-872	1820
13606337	-2539	-631	2083
13606665	-2526	-455	2403
13606993	-2291	-353	2544
13607321	-1641	-506	2556
13607649	-1041	-733	2388
13607977	-743	-990	2176
13608305	-659	-898	2102
13608633	-618	-316	2222
13608961	-814	54	2360
13609289	-1075	-287	2432
13609617	-982	-740	2275
13609945	-584	-589	2157
13610273	252	-615	2370
13610601	683	-1220	2699
13610929	1365	-1614	2889
13611257	1513	-1416	3047
13611585	1571	-1302	3003
13611913	1635	-1393	3113
13612241	1551	-1207	3250
13612569	1708	-1544	3332
13612897	1686	-1369	3378
13613225	2056	-1350	3568
13613553	3246	-2053	3594
13613881	3687	-2413	3500
13614209	4145	-2597	3252
13614537	4332	-2839	3048
13614865	4722	-3021	2830
13615193	4742	-3024	2626
13615521	5084	-3397	2138
13615849	5272	-3609	1734
13616177	4901	-3723	1410
13616505	4470	-3838	1178
13616833	3642	-3937	937
13617161	3196	-4030	702
13617489	2498	-4081	554
13617817	2115	-3981	429
13618145	1757	-3818	367
13618473	1272	-3819	273
13618801	1089	-3524	133
13619129	1525	-3087	31
13619457	2271	-3025	72
13619785	3000	-2364	301
13620113	2746	-1960	307
13620441	1390	-1752	208
13620769	1128	-1598	22
13621097	-59	-1519	-186
13621425	-1543	-1068	-321
13621753	-2384	-290	-573
13622081	-2479	-179	-720
13622409	-2644	-366	-801
13622737	-3271	233	-867
13623065	-3758	1386	-936
13623393	-3882	1066	-1095
13623721	-3303	1436	-1252
13624049	-3456	2117	-1433
13624377	-2801	2098	-1513
13624705	-2632	2574	-1513
13625033	-2674	2414	-1375
13625361	-2662	2630	-1162
13625689	-2507	2573	-1020
13626017	-2067	2318	-709
13626345	-1760	2184	-718
13626673	-1423	2119	-653
13627001	-845	1791	-506
13627329	-500	1821	-442
13627657	-202	1725	-385
13627985	119	1596	-423
13628313	252	1534	-451
13628641	629	1322	-445
13628969	944	1127	-475
13629297	1345	982	-484
13629625	1661	752	-500
13629953	1994	642	-436
13630281	2206	577	-475
13630609	2192	474	-478
13630937	2038	568	-508
13631265	1671	612	-540
13631593	1316	581	-520
13631921	1074	523	-525
13632249	724	480	-491
13632577	615	440	-451
13632905	588	330	-397
13633233	541	222	-344
13633561	464	264	-357
13633889	554	224	-337
13634217	562	220	-303
13634545	322	214	-225
13634873	183	170	-170
13635201	115	104	-124
13635529	104	81	-78
13635857	75	100	-29
13636185	40	95	34
13636513	-33	141	72
13636841	-138	79	179
13637169	-148	55	265
13637497	-94	25	344
13637825	-28	-50	410
13638153	-47	-115	480
13638481	16	-134	555
13638809	49	-122	595
13639137	61	-70	697
13639465	165	-148	789
13639793	161	-168	915
13640121	250	-199	1089
13640449	380	-161	1225
13640777	542	-65	1361
13641105	738	41	1511
13641433	950	34	1794
13641761	1037	104	2101
13642089	1336	85	2345
13642417	1766	74	2647
13642745	2105	-133	3059
13643073	2496	-452	3352
13643401	2480	-105	3730
13643729	2272	-172	3952
13644057	2733	246	3987
13644385	3575	373	3991
13644713	4284	-234	4063
13645041	4546	-690	4226
13645369	4740	-1351	4331
13645697	5026	-2216	4130
13646025	5249	-3190	3672
13646353	5097	-3435	3315
13646681	5061	-3597	3022
13647009	4607	-3946	2709
13647337	4233	-3918	2582
13647665	3936	-3801	2479
13647993	3933	-4476	2313
13648321	3772	-5162	2263
13648649	3631	-5422	2184
13648977	3169	-5480	2037
13649305	3261	-5738	1855
13649633	2767	-5032	1394
13649961	3026	-4470	1159
13650289	3159	-3985	806
13650617	3277	-3509	520
13650945	3331	-3652	292
13651273	3906	-3520	217
13651601	3884	-2790	-196
13651929	3457	-2233	-372
13652257	1678	-2255	-688
13652585	2259	-2332	-954
13652913	268	-706	-1558
13653241	-683	650	-2489
13653569	-419	907	-3035
13653897	-1745	1808	-3205
13654225	-2336	2476	-3467
13654553	-2599	3662	-4098
13654881	-2660	5253	-4348
13655209	-1683	5601	-4109
13655537	-938	5131	-4032
13655865	309	4463	-3554
13656193	1777	3611	-2926
13656521	2666	2751	-2330
13656849	4103	2043	-1850
13657177	5259	1414	-1551
13657505	5572	1134	-1436
13657833	6712	1880	-1032
13658161	6806	-118	726
13658489	6916	-1607	1119
13658817	6829	1035	-77
13659145	6407	1780	-1030
13659473	4171	2399	-1144
13659801	355	4621	-619
13660129	-1115	4037	64
13660457	-1553	228	-243
13660785	-416	-1445	-1212
13661113	1302	787	-1487
13661441	3112	2918	-1098
13661769	3839	2217	-799
13662097	3511	713	-516
13662425	2542	238	-499
13662753	1374	406	-713
13663081	217	803	-762
13663409	171	533	-864
13663737	180	409	-909
13664065	183	779	-995
13664393	-147	968	-891
13664721	-324	710	-975
13665049	-499	643	-1029
13665377	-687	737	-996
13665705	-803	473	-933
13666033	-740	41	-898
13666361	-570	-21	-931
13666689	-237	278	-777
13667017	-77	326	-760
13667345	0	121	-787
13667673	-105	-26	-807
13668001	-417	-157	-783
13668329	-526	-359	-835
13668657	-509	-400	-855
13668985	-341	-337	-857
13669313	-132	-473	-858
13669641	-62	-632	-871
13669969	2	-549	-805
13670297	-208	-490	-740
13670625	-508	-456	-664
13670953	-752	-454	-602
13671281	-901	-562	-564
13671609	-984	-726	-453
13671937	-985	-778	-378
13672265	-993	-593	-214
13672593	-661	-474	-3
13672921	-18	-886	175
13673249	92	-1707	366
13673577	181	-2507	524
13673905	-4	-2799	641
13674233	-107	-2550	646
13674561	-159	-2216	685
13674889	-71	-2220	796
13675217	-129	-2528	835
13675545	-310	-2799	848
13675873	-268	-2661	933
13676201	-349	-2174	1091
13676529	-346	-1811	1220
13676857	-474	-1964	1393
13677185	-313	-2258	1594
13677513	211	-2506	1880
13677841	862	-2886	2227
13678169	1232	-3103	2563
13678497	1532	-2991	2747
13678825	1725	-2546	3015
13679153	1648	-2067	3355
13679481	1155	-1897	3825
13679809	346	-2277	4355
13680137	-104	-2795	4961
13680465	-166	-2778	5764
13680793	194	-2741	6452
13681121	881	-2283	7098
13681449	3016	-1631	7869
13681777	5684	-1100	8540
13682105	7360	-1618	9139
13682433	11218	-2991	9426
13682761	15066	-1325	9012
13683089	14233	-316	8074
13683417	11575	-2394	6263
13683745	14843	-4082	4408
13684073	15521	-2902	3295
13684401	14520	-833	2482
13684729	10685	1744	1908
13685057	10611	273	745
13685385	10260	-2732	-1202
13685713	8630	-2943	-3249
13686041	7773	-1081	-5563
13686369	6103	-329	-7190
13686697	4440	-2103	-8238
13687025	3851	-4387	-9602
13687353	3379	-5206	-10009
13687681	3219	-5832	-10783
13688009	3043	-6906	-11274
13688337	3289	-8451	-11594
13688665	3892	-10322	-12363
13688993	4792	-11501	-12674
13689321	5881	-11676	-13356
13689649	7053	-12113	-13937
13689977	8469	-12623	-14307
13690305	10506	-13446	-14477
13690633	12371	-14635	-14704
13690961	12922	-15313	-14252
13691289	13584	-15919	-13651
13691617	13174	-15934	-13237
13691945	10944	-15546	-12586
13692273	9012	-15385	-11689
13692601	8375	-14068	-10173
13692929	7719	-13262	-8720
13693257	6356	-12640	-7422
13693585	6048	-12835	-5814
13693913	5538	-12745	-5276
13694241	5579	-11248	-5359
13694569	6004	-10579	-5433
13694897	6145	-9474	-4771
13695225	6919	-7743	-3699
13695553	7168	-5778	-1910
13695881	6775	-3192	-46
13696209	6428	-1628	995
13696537	6151	-978	1589
13696865	4821	13	2602
13697193	4772	1730	3090
13697521	4560	2832	3115
13697849	4195	3276	3116
13698177	3730	2742	3183
13698505	2968	3233	3295
13698833	2378	4594	3085
13699161	1663	4983	3218
13699489	1481	5475	2683
13699817	753	7785	1784
13700145	405	10624	1957
13700473	1037	8555	3874
13700801	2766	3071	4756
13701129	3158	-513	3825
13701457	4005	1442	2950
13701785	4156	4866	2370
13702113	5569	3506	2432
13702441	6165	1303	2837
13702769	5641	314	2990
13703097	5406	-469	2871
13703425	5830	-45	2334
13703753	5689	636	1902
13704081	5211	1203	1668
13704409	4054	2261	982
13704737	2865	4083	-207
13705065	2121	4872	-550
13705393	895	911	1428
13705721	1194	-1341	2035
13706049	1487	-827	1614
13706377	1973	1316	1246
13706705	2216	1755	1187
13707033	2079	1237	998
13707361	1338	1542	674
13707689	564	2331	388
13708017	-2	2874	242
13708345	-254	3028	85
13708673	-387	2730	41
13709001	72	1188	630
13709329	-121	-500	1233
13709657	54	27	1263
13709985	-177	1583	894
13710313	-290	1287	531
13710641	-727	346	446
13710969	-694	-17	452
13711297	-1177	-228	537
13711625	-1266	-403	529
13711953	-1561	-477	469
13712281	-1954	-515	368
13712609	-1734	-713	178
13712937	-1934	-869	75
13713265	-1749	-889	-57
13713593	-1782	-927	-236
13713921	-1386	-941	-344
13714249	-1142	-1069	-466
13714577	-1159	-1355	-502
13714905	-530	-1769	-528
13715233	-602	-1621	-581
13715561	-502	-1548	-663
13715889	-365	-2151	-763
13716217	-448	-2285	-848
13716545	-622	-2323	-873
13716873	-836	-2596	-902
13717201	-974	-2783	-951
13717529	-1048	-2940	-1078
13717857	-983	-3266	-1242
13718185	-1077	-3380	-1349
13718513	-1127	-3411	-1505
13718841	-961	-3589	-1630
13719169	-1248	-3657	-1701
13719497	-1294	-3520	-1834
13719825	-1305	-3651	-2055
13720153	-1348	-3803	-2270
13720481	-1547	-3786	-2628
13720809	-1368	-4035	-3076
13721137	-1646	-4377	-3422
13721465	-1772	-4500	-3702
13721793	-2217	-4914	-3995
13722121	-2591	-5436	-4357
13722449	-2927	-6163	-4683
13722777	-3388	-6810	-5271
13723105	-3829	-7364	-5372
13723433	-4293	-7853	-5475
13723761	-5187	-8508	-5673
13724089	-6285	-8948	-5780
13724417	-7251	-8800	-5643
13724745	-10232	-6616	-5913
13725073	-11763	-5151	-5251
13725401	-9367	-5866	-3568
13725729	-8210	-2974	-1097
13726057	-5541	2524	2851
13726385	-1528	4459	6104
13726713	2215	6137	8556
13727041	5101	6915	11497
13727369	5193	8183	13551
13727697	4199	8828	13859
13728025	3407	10184	13138
13728353	1395	11861	12781
13728681	23	14221	12801
13729009	-2941	16862	13223
13729337	-6660	18009	13068
13729665	-9231	18492	12967
13729993	-10411	16229	13105
13730321	-11423	12005	12349
13730649	-10760	9536	12662
13730977	-9680	9243	13295
13731305	-7786	10088	13099
13731633	-6235	10858	12127
13731961	-5223	11384	11386
13732289	-5585	11580	10265
13732617	-5068	11568	8911
13732945	-5933	11910	7973
13733273	-6019	12800	6355
13733601	-7211	13187	5505
13733929	-9092	13507	4894
13734257	-10103	13434	4172
13734585	-11791	13559	3664
13734913	-12974	13859	3737
13735241	-14422	13396	3763
13735569	-14032	12625	4207
13735897	-14088	12634	4333
13736225	-14254	13439	4292
13736553	-12984	14123	4107
13736881	-13222	14659	3968
13737209	-12104	13171	3210
13737537	-12545	10711	3314
13737865	-12232	9384	3048
13738193	-10339	8471	2523
13738521	-11540	9072	1594
13738849	-11327	11776	358
13739177	-11713	13967	-876
13739505	-13392	14103	-2054
13739833	-14680	12453	-3324
13740161	-16357	10757	-4574
13740489	-18523	10731	-5971
13740817	-19714	11587	-7268
13741145	-21258	11923	-7801
13741473	-22748	11590	-8438
13741801	-24576	8929	-8679
13742129	-26178	4812	-8348
13742457	-23659	5044	-7182
13742785	-22066	8339	-5722
13743113	-19881	9838	-4844
13743441	-17590	9298	-4398
13743769	-15493	8197	-4213
13744097	-11059	7372	-4045
13744425	-7401	6353	-3964
13744753	-5372	5753	-3566
13745081	-3714	5141	-2710
13745409	-2680	4704	-1927
13745737	-2547	5049	-1435
13746065	-3085	5424	-652
13746393	-4105	5930	-331
13746721	-5194	6896	-312
13747049	-7583	7484	-2916
13747377	-8709	7062	-3471
13747705	-8232	6908	-3637
13748033	-8406	7049	-3227
13748361	-7462	4595	-2293
13748689	-6109	1503	-610
13749017	-4491	-401	-151
13749345	-2919	752	-221
13749673	-1733	3543	-735
13750001	-837	5187	-1272
13750329	-599	4891	-1371
13750657	-1120	4036	-1053
13750985	-1675	3430	-819
13751313	-3549	2414	-495
13751641	-3616	1689	-496
13751969	-3996	1157	-466
13752297	-3492	1003	-509
13752625	-2414	1199	-369
13752953	-1506	1245	-263
13753281	-732	975	-79
13753609	-229	695	-6
13753937	135	433	152
13754265	436	-299	184
13754593	731	-801	125
13754921	856	-921	85
13755249	1133	-1183	-81
13755577	1282	-1140	-181
13755905	1196	-1397	-176
13756233	712	-1750	-189
13756561	511	-1642	-297
13756889	-26	-1489	-372
13757217	-238	-1703	-407
13757545	-431	-1783	-472
13757873	-377	-2041	-430
13758201	-506	-1957	-370
13758529	-226	-1373	-331
13758857	353	-1319	-247
13759185	664	-1557	-287
13759513	604	-1573	-278
13759841	485	-1677	-289
13760169	454	-1816	-301
13760497	249	-2005	-216
13760825	126	-1950	-96
13761153	-55	-1736	-13
13761481	-232	-1623	44
13761809	-426	-1645	108
13762137	-566	-1542	179
13762465	-280	-1540	232
13762793	-75	-1614	307
13763121	202	-1714	332
13763449	-244	-2204	340
13763777	324	-2718	347
13764105	105	-2361	343
13764433	235	-2162	340
13764761	-7	-2612	336
13765089	-92	-2842	314
13765417	-376	-2943	242
13765745	-384	-3233	156
13766073	-409	-3846	93
13766401	-293	-4370	-61
13766729	84	-4326	-143
13767057	-13	-4044	-198
13767385	-207	-4086	-505
13767713	-265	-4552	-729
13768041	-535	-4871	-857
13768369	-225	-4907	-1054
13768697	-367	-5038	-1410
13769025	-463	-5521	-1783
13769353	-940	-6287	-2404
13769681	-1386	-7414	-2810
13770009	-2276	-8457	-2925
13770337	-2405	-8189	-3553
13770665	-2941	-7232	-3610
13770993	-3229	-5933	-3634
13771321	-3319	-5294	-3380
13771649	-6206	-5892	-3102
13771977	-7051	-5830	-2692
13772305	-8736	-1930	-2201
13772633	-11000	1478	-2711
13772961	-8540	364	-2691
13773289	-8359	-93	-1803
13773617	-5231	1744	337
13773945	-3639	3522	2402
13774273	-3050	4678	4345
13774601	-2453	6990	5736
13774929	-2179	9237	6647
13775257	-1737	10908	7037
13775585	-2726	11120	6833
13775913	-3922	10765	6547
13776241	-4937	11534	6305
13776569	-3912	12800	6441
13776897	-4075	13460	6397
13777225	-3288	14506	5374
13777553	-4360	14341	5276
13777881	-6061	13890	6215
13778209	-6498	13650	6976
13778537	-6635	13545	7197
13778865	-7493	12705	7721
13779193	-6744	12379	7920
13779521	-7386	12736	7983
13779849	-6629	12799	8665
13780177	-6654	12182	9052
13780505	-6170	11337	8875
13780833	-5105	10469	8609
13781161	-4690	10583	8544
13781489	-4442	10510	8456
13781817	-3860	9819	7929
13782145	-4573	8959	7431
13782473	-3897	8686	6698
13782801	-3506	8137	6007
13783129	-3926	7489	5179
13783457	-4186	6753	4397
13783785	-4674	6337	3481
13784113	-5140	6126	2374
13784441	-5687	5612	1346
13784769	-6580	5116	433
13785097	-6909	4378	-496
13785425	-7239	3891	-1597
13785753	-7834	3989	-2837
13786081	-7946	4124	-3739
13786409	-7427	3259	-5411
13786737	-6703	2902	-5762
13787065	-6175	2935	-5539
13787393	-5516	2775	-4760
13787721	-5298	2405	-3968
13788049	-5155	1975	-2858
13788377	-4425	1261	-2128
13788705	-2547	652	-975
13789033	680	107	388
13789361	611	-1946	1362
13789689	1321	-5394	1370
13790017	2987	-5454	485
13790345	4408	-1617	-1022
13790673	6207	3545	-2040
13791001	6880	7669	-2182
13791329	6104	8696	-2337
13791657	4451	6370	-1913
13791985	1845	2363	-327
13792313	-261	-1180	-92
13792641	-1880	-2642	128
13792969	-2053	-1688	-23
13793297	-1225	395	-194
13793625	535	1749	-347
13793953	1865	2083	-146
13794281	3156	1277	127
13794609	3441	546	332
13794937	3360	531	173
13795265	2803	440	185
13795593	1843	316	272
13795921	858	247	286
13796249	109	58	432
13796577	-272	96	583
13796905	-429	412	628
13797233	-483	784	721
13797561	-530	1082	818
13797889	-655	1183	950
13798217	-947	1136	1008
13798545	-1132	1235	1115
13798873	-1198	1444	1090
13799201	-1509	1394	1039
13799529	-1699	1174	1081
13799857	-1904	1029	1201
13800185	-2271	1098	1248
13800513	-2440	1455	1272
13800841	-2593	1823	1311
13801169	-2791	1637	1345
13801497	-2890	1283	1330
13801825	-3024	1111	1301
13802153	-3366	1115	1424
13802481	-3599	999	1520
13802809	-3914	837	1720
13803137	-3968	697	1929
13803465	-4203	624	2049
13803793	-4585	565	2135
13804121	-4698	436	2187
13804449	-5312	559	2324
13804777	-5745	970	2388
13805105	-5879	1293	2478
13805433	-6764	1226	2808
13805761	-8002	1322	3056
13806089	-8692	1744	3041
13806417	-8429	2271	3241
13806745	-9172	2026	3930
13807073	-8686	1237	4570
13807401	-7767	1126	5316
13807729	-5843	2437	5945
13808057	-3872	3390	6637
13808385	-3529	3110	6961
13808713	-3499	1951	6810
13809041	-3678	1006	6197
13809369	-4327	430	5774
13809697	-4841	661	5075
13810025	-4313	959	4108
13810353	-4320	-508	2891
13810681	-5433	-3833	1698
13811009	-6378	-7310	589
13811337	-8298	-8708	-799
13811665	-8708	-6431	-2364
13811993	-9352	-2414	-3780
13812321	-8583	-635	-5303
13812649	-8532	-917	-6298
13812977	-7039	-1140	-6239
13813305	-4158	-1473	-5482
13813633	-1367	-46	-3019
13813961	2812	799	398
13814289	3350	-1798	1956
13814617	2627	-3707	3227
13814945	-182	-3598	2488
13815273	-1799	-1128	835
13815601	-2281	269	-431
13815929	-1136	-900	-919
13816257	-880	-2949	-1408
13816585	247	-2281	-1116
13816913	848	797	-336
13817241	480	2173	588
13817569	-620	953	456
13817897	-828	-962	621
13818225	-685	-2364	453
13818553	-27	-2064	371
13818881	302	-1100	282
13819209	138	-1351	156
13819537	-141	-1624	11
13819865	199	-1053	-168
13820193	500	-62	-186
13820521	523	338	-143
13820849	-243	24	-158
13821177	-1027	-102	-189
13821505	-1185	262	-144
13821833	-890	469	-156
13822161	-210	378	-272
13822489	294	-50	-398
13822817	511	-436	-429
13823145	732	-189	-293
13823473	1279	-31	-252
13823801	1941	-680	-244
13824129	2426	-1076	-189
13824457	2773	-773	-146
13824785	3096	-476	-190
13825113	2877	-630	-311
13825441	2668	-516	-328
13825769	2715	-190	-330
13826097	2654	-44	-367
13826425	2836	-81	-451
13826753	3152	-259	-526
13827081	3161	-375	-591
13827409	3229	-241	-637
13827737	2998	22	-728
13828065	2388	253	-809
13828393	2302	328	-869
13828721	2183	326	-968
13829049	2213	331	-1045
13829377	2483	351	-1117
13829705	2728	403	-1197
13830033	2862	463	-1316
13830361	2822	654	-1436
13830689	2842	1079	-1453
13831017	2858	1412	-1565
13831345	2883	1329	-1758
13831673	2537	1144	-2018
13832001	1853	1458	-2257
13832329	1054	2176	-2344
13832657	153	2909	-2403
13832985	-600	3074	-2376
13833313	-749	2829	-2302
13833641	-590	2501	-2188
13833969	436	2029	-2086
13834297	1809	1289	-2310
13834625	3246	1265	-2439
13834953	4804	2118	-2283
13835281	4243	2762	-2211
13835609	3202	2478	-2426
13835937	1868	1695	-2679
13836265	827	790	-2766
13836593	-319	359	-2612
13836921	-519	516	-2398
13837249	-87	1216	-2255
13837577	655	2182	-2169
13837905	1418	2982	-2128
13838233	1837	3106	-1887
13838561	1643	2271	-1528
13838889	812	720	-1372
13839217	-17	-311	-1376
13839545	-106	-457	-1245
13839873	325	-52	-1169
13840201	877	382	-1231
13840529	1210	678	-1209
13840857	1446	825	-1204
13841185	1815	757	-1205
13841513	1781	376	-1133
13841841	1708	243	-1105
13842169	1484	177	-921
13842497	1253	-33	-768
13842825	1258	-181	-731
13843153	1442	-378	-626
13843481	1598	-718	-517
13843809	1756	-1002	-460
13844137	1817	-1079	-359
13844465	1796	-1087	-259
13844793	1911	-1324	-146
13845121	2025	-1780	-48
13845449	2241	-1914	6
13845777	2460	-1909	111
13846105	2253	-2035	198
13846433	2287	-2217	309
13846761	2247	-2188	397
13847089	2156	-2278	509
13847417	1906	-2546	576
13847745	1515	-2933	533
13848073	1532	-2901	555
13848401	1940	-2861	627
13848729	2677	-3727	817
13849057	3080	-4959	1138
13849385	3984	-5646	1375
13849713	4784	-6119	1519
13850041	5911	-6573	1663
13850369	6834	-6797	1898
13850697	7522	-6875	2057
13851025	7980	-6884	2155
13851353	8161	-6990	2439
13851681	8040	-7163	2768
13852009	8046	-7411	3228
13852337	7996	-7675	3558
13852665	8398	-7931	3921
13852993	8551	-8029	4357
13853321	8820	-7719	4819
13853649	9307	-7774	5391
13853977	9415	-8234	5935
13854305	9762	-8402	6439
13854633	9899	-7985	6645
13854961	9938	-7280	6634
13855289	11000	-6219	6472
13855617	12750	-5933	6731
13855945	14764	-4571	7247
13856273	15761	-4800	7844
13856601	17734	-7435	7923
13856929	17741	-9206	7249
13857257	16424	-9829	5673
13857585	19235	-7984	4215
13857913	19097	-4143	3061
13858241	16119	-1612	2744
13858569	15080	-2181	1480
13858897	14207	-5560	781
13859225	14034	-7890	-932
13859553	11759	-7764	-2855
13859881	11218	-5602	-4483
13860209	9219	-4415	-4338
13860537	7986	-7044	-4861
13860865	7214	-10225	-6004
13861193	6214	-13086	-6581
13861521	6294	-14440	-6763
13861849	6068	-14335	-7271
13862177	6511	-14399	-7740
13862505	6963	-15155	-7946
13862833	7287	-15652	-8397
13863161	8212	-15786	-8582
13863489	9657	-15812	-8718
13863817	11266	-16450	-8944
13864145	12192	-17019	-9029
13864473	12337	-17053	-9558
13864801	11666	-16808	-9284
13865129	10966	-16554	-9315
13865457	9597	-16496	-9104
13865785	8980	-16274	-8765
13866113	7617	-16333	-8029
13866441	5478	-16489	-7157
13866769	3254	-16630	-6384
13867097	2158	-16939	-6408
13867425	1625	-16613	-6356
13867753	1906	-15632	-5922
13868081	2384	-13118	-4603
13868409	1893	-9052	-3709
13868737	2481	-7378	-3058
13869065	3308	-7629	-2258
13869393	4643	-6372	-1749
13869721	5596	-4972	-907
13870049	6642	-3588	234
13870377	6952	-2672	1452
13870705	6575	-2104	2128
13871033	5795	-869	2464
13871361	5521	217	2460
13871689	4933	736	2355
13872017	4529	1635	2236
13872345	3916	2756	2256
13872673	3346	3419	2336
13873001	2504	3455	2524
13873329	1529	3761	2486
13873657	1406	4483	2266
13873985	1426	4801	1712
13874313	967	4665	1489
13874641	572	4360	929
13874969	701	4559	765
13875297	871	5450	823
13875625	1028	5830	1490
13875953	1034	4250	2330
13876281	262	2709	2598
13876609	503	2852	2275
13876937	580	3340	1616
13877265	176	3465	1252
13877593	663	2908	902
13877921	1038	2164	664
13878249	1578	2202	459
13878577	1651	2398	411
13878905	1483	2772	278
13879233	1212	3190	94
13879561	857	3604	-216
13879889	482	3341	-95
13880217	-160	1755	738
13880545	-1031	-398	1337
13880873	-530	-408	1277
13881201	-718	1242	1103
13881529	-944	2149	852
13881857	-1320	1590	658
13882185	-1193	1363	584
13882513	-1174	1406	468
13882841	-910	1552	340
13883169	-954	1867	292
13883497	-573	2067	353
13883825	-672	2087	260
13884153	-1011	2015	221
13884481	-1592	1812	227
13884809	-1751	1473	5
13885137	-1982	1395	-63
13885465	-2112	1400	-9
13885793	-2007	1110	43
13886121	-1815	406	59
13886449	-1842	-321	195
13886777	-1455	-410	232
13887105	-1292	153	225
13887433	-1272	422	172
13887761	-1049	268	134
13888089	-1063	730	90
13888417	-1431	1610	70
13888745	-2651	2492	-86
13889073	-3791	3041	-469
13889401	-4380	3403	-991
13889729	-5348	4392	-1286
13890057	-6125	5627	-1396
13890385	-7131	5854	-1390
13890713	-7977	5001	-1687
13891041	-8455	4601	-1882
13891369	-9097	4734	-2052
13891697	-9599	6156	-2225
13892025	-9307	8019	-2003
13892353	-9204	8244	-1861
13892681	-8767	7558	-1768
13893009	-8045	6599	-1679
13893337	-7098	6098	-1540
13893665	-6038	5943	-1395
13893993	-4933	5592	-1141
13894321	-3747	4763	-847
13894649	-2824	3729	-410
13894977	-1231	2531	74
13895305	680	1155	739
13895633	2230	-332	1684
13895961	3535	-1562	2457
13896289	4434	-1906	2740
13896617	5509	-622	2195
13896945	6472	2086	1481
13897273	6214	3933	1022
13897601	5419	4484	701
13897929	4465	3336	402
13898257	3222	1518	259
13898585	1731	1300	703
13898913	161	2391	1369
13899241	-1162	2590	1707
13899569	-1718	1425	1493
13899897	-1567	596	973
13900225	-668	1269	346
13900553	987	2472	68
13900881	1391	3084	30
13901209	1879	3650	-123
13901537	1820	3955	-123
13901865	1314	3198	-54
13902193	1031	2495	-3
13902521	472	2329	199
13902849	-310	2093	348
13903177	-1194	1763	437
13903505	-1379	1329	417
13903833	-1688	1387	310
13904161	-1469	1666	288
13904489	-1558	2117	270
13904817	-1355	2583	301
13905145	-1334	2651	312
13905473	-1666	2437	302
13905801	-2336	2391	407
13906129	-2725	2849	499
13906457	-2711	3095	624
13906785	-2772	2888	724
13907113	-2816	2449	740
13907441	-2792	2444	799
13907769	-2658	2575	842
13908097	-2500	2433	999
13908425	-2474	1949	1108
13908753	-2674	1453	1309
13909081	-2516	1393	1438
13909409	-2540	1674	1530
13909737	-2628	2035	1588
13910065	-2581	2159	1595
13910393	-2511	1999	1589
13910721	-2507	1941	1574
13911049	-2592	2109	1646
13911377	-2666	2000	1821
13911705	-2696	1733	1874
13912033	-2666	1527	2012
13912361	-2297	1453	2030
13912689	-2180	1574	2118
13913017	-1870	1664	2238
13913345	-1632	1513	2325
13913673	-1539	1241	2446
13914001	-1597	1007	2604
13914329	-1558	794	2642
13914657	-1677	498	2739
13914985	-1732	334	2796
13915313	-1674	366	2773
13915641	-1640	173	2771
13915969	-1674	275	2810
13916297	-1699	754	2866
13916625	-1725	1034	2854
13916953	-1916	1247	2925
13917281	-2573	1255	2916
13917609	-2967	1084	2997
13917937	-3598	818	3227
13918265	-3915	530	3418
13918593	-3817	389	3669
13918921	-3832	467	4261
13919249	-3437	448	4878
13919577	-3043	119	5326
13919905	-2428	-469	5550
13920233	-1965	-184	5839
13920561	-1623	512	6127
13920889	-1733	548	6386
13921217	-1788	-8	6682
13921545	-1909	-347	7072
13921873	-2007	-190	7778
13922201	-1001	167	8083
13922529	478	934	8560
13922857	3041	553	9616
13923185	5465	-1382	9995
13923513	8907	590	9500
13923841	6427	3672	7977
13924169	4688	5501	6216
13924497	10568	2631	4601
13924825	7635	2510	3505
13925153	2754	4800	2871
13925481	2351	5599	1164
13925809	-769	3870	-164
13926137	321	1286	-1975
13926465	987	-3603	-3746
13926793	1804	-3716	-6449
13927121	2565	-593	-8503
13927449	2191	611	-9829
13927777	1999	-1465	-10836
13928105	1041	-4270	-11482
13928433	744	-6403	-11936
13928761	824	-7364	-12576
13929089	1162	-8016	-12887
13929417	1437	-9213	-12652
13929745	2044	-10409	-12381
13930073	3189	-11622	-12212
13930401	4743	-12885	-12472
13930729	5722	-13794	-12614
13931057	6869	-14191	-12644
13931385	7925	-15396	-12940
13931713	8478	-16659	-12988
13932041	8444	-17182	-12977
13932369	8185	-17479	-12862
13932697	7869	-17795	-12594
13933025	6911	-18098	-12102
13933353	6578	-18019	-11690
13933681	6013	-17548	-10759
13934009	6379	-17101	-10449
13934337	6322	-16309	-9253
13934665	6423	-16096	-8420
13934993	7275	-16334	-7662
13935321	8127	-16006	-7518
13935649	8377	-16119	-5729
13935977	8381	-15175	-5673
13936305	8000	-13526	-5758
13936633	8037	-11963	-4829
13936961	8171	-10614	-3685
13937289	8218	-8269	-2718
13937617	7670	-5425	-1382
13937945	6319	-2414	-208
13938273	5309	484	815
13938601	4120	2039	1687
13938929	3258	4175	2075
13939257	3254	5127	2690
13939585	4045	4402	3624
13939913	4566	4730	4021
13940241	5372	4794	4317
13940569	4905	4541	4442
13940897	4397	5464	4527
13941225	2300	5981	4512
13941553	1323	5404	4106
13941881	-451	5165	3053
13942209	-1761	6476	1888
13942537	-2123	7570	834
13942865	-1686	7059	523
13943193	-1717	7182	607
13943521	-1651	7529	1989
13943849	415	2484	2367
13944177	541	2181	1789
13944505	708	3383	1374
13944833	900	3798	1040
13945161	675	3166	1054
13945489	753	2669	1075
13945817	128	4065	932
13946145	-81	5223	761
13946473	-358	4996	557
13946801	-1367	4021	428
13947129	-1892	3007	531
13947457	-1791	2251	691
13947785	-850	1959	786
13948113	-170	2281	789
13948441	450	2359	798
13948769	1228	2140	705
13949097	1346	1920	655
13949425	1448	1709	607
13949753	1365	1514	676
13950081	1342	1330	769
13950409	1008	1086	683
13950737	1226	1062	574
13951065	1014	1154	409
13951393	1233	1107	370
13951721	1144	1153	356
13952049	1509	1069	321
13952377	1453	1088	215
13952705	1375	1272	84
13953033	1297	1283	105
13953361	1032	1090	174
13953689	930	856	297
13954017	706	596	302
13954345	599	370	159
13954673	425	152	33
13955001	381	107	-8
13955329	337	352	-16
13955657	135	570	45
13955985	-59	668	75
13956313	-240	810	60
13956641	79	844	2
13956969	367	765	5
13957297	625	904	-9
13957625	844	1261	-3
13957953	857	1452	0
13958281	998	1440	-5
13958609	996	1360	-2
13958937	1145	1362	83
13959265	1360	1116	136
13959593	1395	1109	102
13959921	1467	1189	95
13960249	1359	1274	29
13960577	1444	1449	-78
13960905	1609	1785	-192
13961233	1673	1685	-252
13961561	1912	1433	-251
13961889	2188	1473	-161
13962217	2286	1880	-173
13962545	1819	2337	-138
13962873	1590	2339	-55
13963201	1668	2062	132
13963529	1948	1908	13
13963857	2590	2088	45
13964185	3060	2137	-22
13964513	3216	2029	-152
13964841	3279	2026	-31
13965169	3638	2067	18
13965497	3855	1746	38
13965825	3860	1539	-107
13966153	3925	1488	-301
13966481	4571	1496	-467
13966809	4567	1594	-574
13967137	4813	1681	-357
13967465	4912	1498	-345
13967793	4867	950	-211
13968121	4911	612	294
13968449	4600	504	571
13968777	4329	294	849
13969105	3837	-301	1099
13969433	3402	-930	1286
13969761	3378	-1423	1454
13970089	3859	-1331	1408
13970417	4182	-885	1270
13970745	4772	-753	1292
13971073	5328	-698	1368
13971401	5457	-1025	1565
13971729	5564	-1586	1818
13972057	5922	-1857	2006
13972385	6051	-1901	2205
13972713	6601	-2190	2337
13973041	6702	-2772	2417
13973369	7322	-3629	2629
13973697	8241	-4223	2934
13974025	8873	-4427	3233
13974353	8963	-5560	3476
13974681	10164	-6678	3555
13975009	10849	-6930	3538
13975337	12049	-6358	3491
13975665	12522	-5414	3689
13975993	12537	-5254	4055
13976321	12308	-6574	4427
13976649	12082	-8221	4623
13976977	12261	-8924	4681
13977305	12762	-8917	4607
13977633	13271	-9071	4669
13977961	14072	-9439	4642
13978289	14453	-10154	4594
13978617	14807	-10851	4586
13978945	15200	-11159	4525
13979273	15566	-11138	4609
13979601	15640	-11185	4720
13979929	15654	-11691	4865
13980257	15876	-12262	4919
13980585	15494	-12502	4947
13980913	15465	-12483	4974
13981241	15657	-12475	5123
13981569	16197	-12727	5253
13981897	16293	-13197	5388
13982225	16463	-13633	5556
13982553	16387	-13617	5585
13982881	16249	-12988	5419
13983209	15868	-11847	5422
13983537	15469	-11267	5616
13983865	14418	-10638	5921
13984193	13469	-9905	6377
13984521	12459	-8755	6849
13984849	11178	-7880	7274
13985177	9637	-7752	7575
13985505	8803	-7725	8035
13985833	8207	-7634	8558
13986161	6898	-7452	8652
13986489	9751	-5852	8320
13986817	11847	-3770	7957
13987145	13310	-3525	7432
13987473	14799	-5017	6603
13987801	11704	-8101	5038
13988129	12228	-9384	3160
13988457	13606	-7622	1347
13988785	13093	-3065	-299
13989113	9848	869	-604
13989441	10234	-1316	-1713
13989769	9990	-7821	-3580
13990097	8958	-10415	-5533
13990425	8006	-8369	-6999
13990753	7733	-5030	-7966
13991081	7187	-4699	-8558
13991409	6326	-7563	-8982
13991737	5543	-11125	-9491
13992065	4996	-12900	-10134
13992393	5273	-12951	-10275
13992721	5185	-12899	-9983
13993049	5132	-13834	-9791
13993377	5514	-15931	-9805
13993705	6357	-16986	-9922
13994033	8282	-17087	-10354
13994361	10033	-16603	-10683
13994689	11543	-15992	-11283
13995017	12225	-15746	-11363
13995345	13391	-16269	-11373
13995673	13774	-16894	-11221
13996001	13300	-16973	-10768
13996329	11315	-16063	-9717
13996657	9109	-15509	-8370
13996985	6486	-14550	-7449
13997313	5156	-13748	-7367
13997641	4250	-14637	-6455
13997969	3643	-14960	-5846
13998297	4363	-14061	-5822
13998625	4251	-12984	-5322
13998953	5043	-10115	-4760
13999281	5756	-7899	-4677
13999609	6921	-6894	-3218
13999937	8083	-5509	-1957
14000265	8416	-3443	-400
14000593	7709	-1532	1188
14000921	7342	-126	2412
14001249	6126	1403	3666
14001577	5924	3115	4447
14001905	6428	4802	5134
14002233	7353	5787	5572
14002561	5532	6381	5262
14002889	4223	6213	4711
14003217	3261	5815	4128
14003545	2700	5917	3696
14003873	2126	6351	2966
14004201	1261	6214	2140
14004529	581	5559	1344
14004857	44	5045	1776
14005185	-449	3923	2091
14005513	704	3305	1874
14005841	1521	3525	1661
14006169	2450	3856	1465
14006497	2983	3415	1293
14006825	3190	3650	1478
14007153	3120	3384	1580
14007481	2535	2541	1852
14007809	2002	2452	1518
14008137	1525	2352	1127
14008465	2469	2877	688
14008793	2362	3702	182
14009121	1553	3860	-218
14009449	1481	3600	-493
14009777	926	3252	-462
14010105	456	2878	-226
14010433	210	2423	15
14010761	-167	2254	140
14011089	-277	2619	80
14011417	-156	2913	-9
14011745	-137	2770	-26
14012073	12	2304	-77
14012401	174	2121	-128
14012729	532	2279	-156
14013057	378	2367	-169
14013385	109	1924	-139
14013713	-54	1140	-102
14014041	-547	711	-51
14014369	-647	467	-29
14014697	-484	417	12
14015025	-437	417	91
14015353	-460	222	92
14015681	320	149	103
14016009	357	200	70
14016337	791	-24	-21
14016665	765	-339	21
14016993	522	-725	33
14017321	394	-1217	6
14017649	176	-1436	-45
14017977	28	-1392	-169
14018305	-42	-1483	-355
14018633	-269	-1544	-483
14018961	-185	-1462	-672
14019289	14	-1322	-804
14019617	135	-1268	-787
14019945	287	-1613	-731
14020273	71	-2075	-769
14020601	-40	-2410	-947
14020929	-230	-2505	-1092
14021257	-334	-2485	-1163
14021585	-502	-2569	-1261
14021913	-536	-2707	-1263
14022241	-593	-3099	-1218
14022569	-927	-3279	-1321
14022897	-869	-3429	-1482
14023225	-953	-3432	-1569
14023553	-1345	-3623	-1685
14023881	-1312	-3941	-1805
14024209	-1718	-4124	-1926
14024537	-1639	-4374	-2132
14024865	-2038	-4440	-2363
14025193	-2269	-4437	-2690
14025521	-2538	-4334	-3253
14025849	-3698	-4781	-3972
14026177	-4757	-5544	-4523
14026505	-4971	-6912	-4666
14026833	-5483	-5979	-4953
14027161	-6212	-3995	-5046
14027489	-6777	-2936	-4890
14027817	-7674	-2797	-3616
14028145	-8618	-2598	-2905
14028473	-8260	-1657	-2165
14028801	-8624	-506	-1667
14029129	-8900	1389	-66
14029457	-8439	3745	2170
14029785	-8251	5901	4370
14030113	-7685	7666	5888
14030441	-5977	9933	7222
14030769	-4632	11085	8187
14031097	-4739	11209	9279
14031425	-5438	11110	10296
14031753	-6795	11839	10836
14032081	-8330	12840	10717
14032409	-10556	13883	10442
14032737	-10947	13977	9672
14033065	-10552	14569	10311
14033393	-10392	13505	9714
14033721	-9887	11943	8727
14034049	-9623	10032	9670
14034377	-9294	8324	9885
14034705	-8703	8244	10041
14035033	-7717	9325	9796
14035361	-7206	10339	9273
14035689	-7695	10666	8387
14036017	-7794	10627	7027
14036345	-8813	10610	5535
14036673	-9945	11382	4105
14037001	-10642	12358	2548
14037329	-11849	12494	1044
14037657	-13596	12258	-295
14037985	-15191	12548	-1248
14038313	-16964	12248	-1847
14038641	-18209	10851	-2433
14038969	-19433	9770	-3225
14039297	-20455	8764	-3222
14039625	-20492	8998	-3069
14039953	-19813	10518	-3633
14040281	-19174	11386	-4016
14040609	-15286	10460	-4819
14040937	-13631	10330	-6206
14041265	-14181	9982	-6294
14041593	-11163	7255	-6456
14041921	-9202	5750	-5927
14042249	-7485	4862	-3289
14042577	-5182	4265	-2550
14042905	-4146	4528	-1455
14043233	-2590	1995	235
14043561	-1146	-2166	2027
14043889	-9	-5509	2694
14044217	1862	-5521	2108
14044545	4333	-2131	706
14044873	5883	3066	-435
14045201	6867	8633	-1572
14045529	7496	11696	-1958
14045857	5799	9587	-432
14046185	2383	3333	958
14046513	-848	-1691	365
14046841	-4330	-2760	260
14047169	-4618	131	-266
14047497	-1911	3763	-838
14047825	-8	4768	-638
14048153	609	4231	-160
14048481	380	2973	221
14048809	-505	2114	602
14049137	-1440	1695	926
14049465	-2432	1172	896
14049793	-2760	960	649
14050121	-2720	1268	504
14050449	-2513	1839	657
14050777	-2210	2238	861
14051105	-2134	2370	1099
14051433	-2436	2403	1413
14051761	-3073	2460	1558
14052089	-3345	2406	1577
14052417	-3346	2448	1611
14052745	-3301	2715	1648
14053073	-3425	2947	1668
14053401	-3719	3086	1736
14053729	-4124	3201	1894
14054057	-4552	3488	1930
14054385	-5718	3687	1972
14054713	-5453	4108	1771
14055041	-5572	4348	1577
14055369	-5360	4677	1368
14055697	-6142	5052	1371
14056025	-6720	5038	1276
14056353	-7651	4841	1156
14056681	-8847	4994	1057
14057009	-9863	5529	1102
14057337	-10581	5800	1135
14057665	-11554	5481	968
14057993	-11880	5398	607
14058321	-12618	5464	350
14058649	-13104	6101	404
14058977	-14971	6800	933
14059305	-15690	7303	1581
14059633	-17088	7100	2107
14059961	-18860	6269	2356
14060289	-20009	5778	2295
14060617	-19691	6235	1893
14060945	-19312	7249	1575
14061273	-18550	7751	1387
14061601	-17939	6846	1654
14061929	-17101	3741	2170
14062257	-15360	1277	2665
14062585	-13299	176	2681
14062913	-11027	-924	2408
14063241	-8685	-2475	1988
14063569	-5621	-3236	1616
14063897	-2650	-2377	1386
14064225	223	-1202	1299
14064553	1620	-1170	1621
14064881	2078	-2005	1958
14065209	2013	-2577	2134
14065537	1127	-2695	2159
14065865	578	-2793	2004
14066193	356	-3122	1996
14066521	617	-4135	1763
14066849	1449	-5048	1461
14067177	2862	-5418	1299
14067505	4589	-5196	959
14067833	4841	-4696	844
14068161	4498	-4450	490
14068489	3590	-3384	308
14068817	2565	-2930	44
14069145	1271	-2423	132
14069473	416	-1828	169
14069801	155	-1615	127
14070129	164	-1528	-138
14070457	176	-1305	-257
14070785	691	-869	-250
14071113	834	-958	-257
14071441	870	-1260	-228
14071769	795	-1553	-258
14072097	523	-1961	-301
14072425	196	-1853	-450
14072753	379	-1490	-562
14073081	376	-997	-506
14073409	1162	-926	-421
14073737	1490	-818	-371
14074065	1483	-717	-445
14074393	1337	-728	-497
14074721	1262	-736	-439
14075049	1678	-997	-387
14075377	2094	-1464	-398
14075705	2690	-1761	-438
14076033	3049	-1715	-424
14076361	3212	-1357	-372
14076689	3453	-1277	-301
14077017	3475	-1594	-165
14077345	3474	-1961	-51
14077673	3509	-1766	-71
14078001	3667	-1331	-223
14078329	3839	-1187	-303
14078657	3975	-1273	-429
14078985	4037	-1519	-533
14079313	3630	-1791	-660
14079641	3339	-1810	-896
14079969	3038	-1654	-1005
14080297	2766	-1487	-1077
14080625	2661	-1410	-1181
14080953	2643	-1254	-1288
14081281	2395	-1068	-1429
14081609	2283	-850	-1682
14081937	2105	-774	-1748
14082265	2210	-363	-2058
14082593	2329	-374	-2082
14082921	2712	-360	-2244
14083249	3025	-46	-2356
14083577	3150	238	-2449
14083905	3198	214	-2602
14084233	2677	335	-2829
14084561	1826	1210	-2938
14084889	378	2055	-3048
14085217	-642	2616	-3041
14085545	-2324	3356	-2830
14085873	-2097	3678	-2190
14086201	-245	1725	-1092
14086529	-195	-1335	-1663
14086857	2683	-2575	-2504
14087185	5627	194	-2824
14087513	7077	3820	-2461
14087841	5815	5631	-2433
14088169	4270	4760	-2248
14088497	2033	1468	-2148
14088825	1051	-1107	-1859
14089153	1373	-1237	-1661
14089481	2239	129	-1418
14089809	2583	1203	-1000
14090137	2368	1239	-690
14090465	1787	730	-639
14090793	995	168	-654
14091121	195	56	-607
14091449	-218	-38	-534
14091777	41	-106	-484
14092105	608	-131	-469
14092433	1328	-265	-411
14092761	1882	-729	-237
14093089	2227	-1491	-147
14093417	2523	-1730	-145
14093745	3114	-1348	-108
14094073	3189	-769	-8
14094401	3147	-763	32
14094729	2411	-872	7
14095057	1776	-915	38
14095385	1655	-1246	159
14095713	1776	-1891	415
14096041	2448	-2639	733
14096369	3152	-3075	1013
14096697	3717	-3095	1231
14097025	4184	-3087	1359
14097353	4694	-3304	1544
14097681	4924	-3687	1838
14098009	4912	-4063	2120
14098337	5013	-4295	2420
14098665	4903	-4283	2647
14098993	4966	-4110	2854
14099321	4724	-3861	3069
14099649	4571	-3712	3319
14099977	4298	-3632	3557
14100305	4135	-3545	3864
14100633	4109	-3358	4250
14100961	3851	-3279	4596
14101289	3884	-3463	5012
14101617	3807	-3489	5372
14101945	3281	-2865	5801
14102273	3570	-2018	6192
14102601	4336	-1565	6660
14102929	5328	-1484	6951
14103257	8911	-1348	8119
14103585	11670	-1346	8212
14103913	12139	-275	7055
14104241	12232	-1347	6476
14104569	10405	-4852	4901
14104897	14985	-4169	2576
14105225	14480	-1456	1280
14105553	11530	1864	545
14105881	10002	3124	-489
14106209	10437	-1179	-1295
14106537	10163	-5164	-3171
14106865	8287	-4719	-5178
14107193	7267	-1465	-7226
14107521	7072	717	-8617
14107849	4985	-214	-9102
14108177	3738	-3889	-10231
14108505	1594	-9471	-11434
14108833	1439	-10287	-11764
14109161	1356	-11025	-12063
14109489	1605	-12134	-12207
14109817	2579	-13312	-12502
14110145	3488	-14429	-12667
14110473	5214	-14780	-13117
14110801	7484	-14491	-13374
14111129	9667	-14650	-13450
14111457	11451	-15975	-13417
14111785	12047	-17674	-12988
14112113	12853	-19767	-12994
14112441	11237	-20364	-13522
14112769	9399	-19127	-13192
14113097	6784	-17377	-10542
14113425	3685	-15232	-7697
14113753	2619	-12913	-6309
14114081	1686	-12017	-5300
14114409	1561	-13148	-4713
14114737	2232	-16320	-3704
14115065	4252	-15428	-3214
14115393	3927	-8827	-1956
14115721	7446	-6208	-1100
14116049	8949	-5542	102
14116377	10689	-5306	1471
14116705	10555	-4196	2749
14117033	10200	-2149	3592
14117361	9246	-1279	3965
14117689	8334	-923	3873
14118017	8019	-398	3542
14118345	7737	103	3259
14118673	7689	713	3267
14119001	7299	2097	3266
14119329	6979	3894	3505
14119657	5899	4403	4181
14119985	4049	4129	4165
14120313	2402	5331	3458
14120641	2429	6341	2491
14120969	1915	6236	2079
14121297	1598	5017	1925
14121625	577	3811	1892
14121953	917	2552	2160
14122281	764	1826	2526
14122609	423	1478	2293
14122937	597	1747	1825
14123265	1067	2715	1265
14123593	-33	3667	597
14123921	743	4199	67
14124249	-407	4338	-170
14124577	-747	3605	163
14124905	-1202	2633	298
14125233	-1762	1666	694
14125561	-1666	1746	558
14125889	-1177	2401	291
14126217	-1075	3604	-277
14126545	-1402	4296	-679
14126873	-1029	3916	-837
14127201	-1672	3706	-882
14127529	-1600	2985	-635
14127857	-2215	2272	-368
14128185	-2232	2469	-210
14128513	-2376	3775	-77
14128841	-2608	4754	-10
14129169	-3219	4662	9
14129497	-3705	4013	-131
14129825	-4203	3552	-295
14130153	-4414	3243	-485
14130481	-5405	3197	-613
14130809	-6589	3999	-791
14131137	-6978	5449	-1125
14131465	-7687	6800	-1277
14131793	-8393	7483	-1405
14132121	-9699	7275	-1525
14132449	-10361	7141	-1636
14132777	-10691	7607	-1680
14133105	-11020	8292	-1500
14133433	-10051	8612	-1155
14133761	-9147	8303	-955
14134089	-8153	7604	-861
14134417	-6725	7076	-558
14134745	-5773	6375	1
14135073	-4007	5276	586
14135401	-2358	3681	1521
14135729	-406	1539	2470
14136057	2044	-463	3217
14136385	3893	-1821	3895
14136713	4892	-2037	3631
14137041	6480	-746	2835
14137369	7750	1714	1925
14137697	7736	4442	1470
14138025	7393	5839	1352
14138353	6260	4671	1405
14138681	4577	1157	1501
14139009	1976	-853	1783
14139337	373	-199	2085
14139665	-338	670	2131
14139993	-371	408	1871
14140321	358	-169	1134
14140649	1130	289	571
14140977	2103	1858	298
14141305	2132	3064	216
14141633	1629	3775	279
14141961	639	4098	266
14142289	-463	3517	218
14142617	-1712	2628	362
14142945	-2679	2142	555
14143273	-3189	1909	576
14143601	-3091	1915	568
14143929	-2754	1998	641
14144257	-2514	2056	639
14144585	-2303	2458	699
14144913	-1844	2691	692
14145241	-1695	2738	639
14145569	-1808	2564	725
14145897	-1630	2436	840
14146225	-1670	2353	923
14146553	-1865	2074	1139
14146881	-2002	1730	1274
14147209	-2353	1511	1428
14147537	-2892	1903	1497
14147865	-2958	2748	1559
14148193	-3312	2933	1698
14148521	-3768	2673	1712
14148849	-3965	2388	1721
14149177	-4223	2156	1854
14149505	-4653	2096	2023
14149833	-5016	2213	2260
14150161	-5065	2636	2326
14150489	-5135	2533	2468
14150817	-4927	2243	2678
14151145	-4583	2198	2719
14151473	-4656	2749	2530
14151801	-4903	3755	2444
14152129	-5445	4990	2543
14152457	-5973	5114	2639
14152785	-7133	4043	3057
14153113	-8286	2954	3150
14153441	-8439	2336	3288
14153769	-8706	2353	3564
14154097	-7968	2545	4085
14154425	-7702	2096	4527
14154753	-6850	1010	4966
14155081	-5932	328	5442
14155409	-4269	317	5870
14155737	-2999	246	6516
14156065	-2050	-11	6981
14156393	-1410	-511	7408
14156721	-1019	-1355	7759
14157049	-695	-2244	8114
14157377	-409	-2276	8256
14157705	-824	-1420	8347
14158033	-415	-227	8708
14158361	1503	-562	8898
14158689	7680	538	9068
14159017	8424	1071	8302
14159345	5383	538	8368
14159673	5751	1670	6993
14160001	11405	3423	5785
14160329	10673	4448	5402
14160657	8639	5971	4551
14160985	7155	8379	2674
14161313	4469	6824	647
14161641	1723	5901	-1880
14161969	813	3178	-4485
14162297	1149	-782	-6950
14162625	2265	-1821	-9391
14162953	3544	-2960	-11856
14163281	4086	-4286	-13470
14163609	2421	-4659	-14392
14163937	2298	-5510	-14476
14164265	2652	-7983	-14398
14164593	1474	-9486	-14025
14164921	2834	-10165	-14094
14165249	3154	-11055	-13907
14165577	4752	-12347	-14006
14165905	6274	-13157	-14326
14166233	8238	-14000	-15007
14166561	10025	-15142	-15810
14166889	11852	-16206	-16069
14167217	12717	-17615	-16260
14167545	14129	-19320	-15753
14167873	14708	-20514	-15567
14168201	14593	-21106	-15246
14168529	13675	-21542	-14631
14168857	11408	-21026	-13715
14169185	9663	-20006	-13374
14169513	8321	-17400	-12183
14169841	6759	-14209	-10256
14170169	7466	-12186	-8820
14170497	7350	-12308	-7825
14170825	5895	-14241	-6321
14171153	6362	-17006	-5817
14171481	6830	-18105	-5176
14171809	7659	-13634	-4397
14172137	8985	-7923	-2901
14172465	10196	-5289	-1406
14172793	10706	-3974	808
14173121	10676	-1771	2658
14173449	9306	1229	4252
14173777	8354	4275	5297
14174105	7675	7351	6079
14174433	6855	8725	6395
14174761	5264	10884	5179
14175089	3031	14505	4340
14175417	199	10667	5057
14175745	-1395	4153	2535
14176073	-1456	-14	606
14176401	1231	-535	2048
14176729	5102	2875	5346
14177057	1957	6667	5066
14177385	5995	3642	2981
14177713	5553	-1104	3600
14178041	7102	65	3379
14178369	7878	1141	3746
14178697	8884	212	3545
14179025	6957	-642	2444
14179353	6374	-845	1362
14179681	5873	-1612	847
14180009	5140	-3655	1005
14180337	5509	-4523	258
14180665	4380	-3480	-36
14180993	4282	-2218	-8
14181321	4077	-2254	550
14181649	4149	-1673	323
14181977	3146	-793	308
14182305	2739	-79	530
14182633	2416	2282	320
14182961	1661	3530	5
14183289	507	3942	874
14183617	-397	3094	855
14183945	-240	2436	1748
14184273	828	1590	1906
14184601	1385	-545	2336
14184929	1800	-1752	2197
14185257	2399	-1454	2157
14185585	2184	-514	1518
14185913	2047	498	1474
14186241	1658	637	1185
14186569	1005	322	998
14186897	454	573	782
14187225	-78	563	370
14187553	-304	964	132
14187881	-606	1760	-98
14188209	-1103	1857	-201
14188537	-1606	1399	-290
14188865	-797	1030	-492
14189193	-932	821	-584
14189521	-558	622	-664
14189849	-957	270	-502
14190177	-968	721	-211
14190505	-764	724	-257
14190833	-579	260	-213
14191161	-747	175	-115
14191489	-799	381	12
14191817	-796	228	114
14192145	-592	167	102
14192473	-320	250	59
14192801	-66	322	50
14193129	28	49	12
14193457	68	-171	55
14193785	74	6	109
14194113	115	105	91
14194441	112	-6	4
14194769	-88	-6	-26
14195097	-181	38	-35
14195425	-187	22	-102
14195753	-344	27	-114
14196081	-316	202	-106
14196409	-214	288	-169
14196737	-162	280	-245
14197065	-249	332	-283
14197393	-365	456	-280
14197721	-386	451	-263
14198049	-463	509	-246
14198377	-411	686	-263
14198705	-519	671	-288
14199033	-118	138	-359
14199361	-329	45	-359
14199689	-116	339	-376
14200017	-88	315	-353
14200345	39	103	-347
14200673	104	150	-340
14201001	193	311	-373
14201329	133	547	-462
14201657	58	370	-456
14201985	395	-169	-466
14202313	229	145	-426
14202641	359	397	-422
14202969	409	335	-409
14203297	463	346	-379
14203625	564	308	-352
14203953	747	210	-364
14204281	708	331	-354
14204609	923	435	-329
14204937	984	518	-299
14205265	995	532	-252
14205593	1033	440	-221
14205921	985	461	-195
14206249	1083	532	-139
14206577	1073	559	-84
14206905	1152	600	-39
14207233	1248	665	19
14207561	1315	628	62
14207889	1560	570	94
14208217	1797	654	136
14208545	1854	721	136
14208873	2192	663	72
14209201	2482	790	88
14209529	2510	1009	172
14209857	2639	1037	276
14210185	2644	1054	409
14210513	2697	1140	566
14210841	2668	1130	717
14211169	2880	972	852
14211497	3231	677	996
14211825	3950	480	1142
14212153	4320	451	1389
14212481	4746	249	1633
14212809	5441	-175	1877
14213137	6010	-316	2081
14213465	6563	-226	2262
14213793	6890	-255	2251
14214121	7415	-379	2134
14214449	7897	-218	2044
14214777	7595	-96	1966
14215105	7462	-212	1886
14215433	7224	-553	1673
14215761	6832	-454	1535
14216089	6229	-558	1516
14216417	6441	-722	1367
14216745	6025	-733	1337
14217073	5977	-1091	1318
14217401	6362	-1338	1266
14217729	6634	-1122	1247
14218057	6454	-871	1287
14218385	6721	-1667	1375
14218713	6847	-2532	1419
14219041	6949	-2965	1412
14219369	7680	-3368	1497
14219697	7667	-3257	1326
14220025	7109	-3418	1449
14220353	8313	-3612	1467
14220681	6613	-3486	1538
14221009	7119	-3381	1445
14221337	6269	-2843	1142
14221665	5257	-2165	880
14221993	4813	-1844	510
14222321	4206	-1761	402
14222649	3415	-1787	284
14222977	2894	-1586	65
14223305	2616	-1255	-162
14223633	2190	-1278	-325
14223961	2004	-1783	-393
14224289	2292	-2143	-461
14224617	1807	-2235	-440
14224945	2240	-2174	-465
14225273	1908	-2249	-490
14225601	1758	-2529	-295
14225929	1795	-2743	-270
14226257	1477	-3115	-111
14226585	1849	-3473	42
14226913	2113	-3456	147
14227241	2238	-3209	302
14227569	2413	-3274	490
14227897	2327	-3416	617
14228225	2856	-3453	622
14228553	3095	-3950	834
14228881	3298	-4527	1189
14229209	3814	-5199	1489
14229537	3616	-5439	1612
14229865	3574	-5039	1529
14230193	2800	-4102	1350
14230521	2400	-4448	1284
14230849	2107	-4025	1135
14231177	2056	-3359	1064
14231505	1467	-3039	1057
14231833	1038	-2982	1006
14232161	1074	-2877	934
14232489	840	-2622	788
14232817	688	-2643	638
14233145	510	-2612	439
14233473	312	-2202	251
14233801	-223	-1270	160
14234129	-1014	-417	82
14234457	-1982	572	-6
14234785	-2838	1347	-41
14235113	-3731	1584	-67
14235441	-4335	1285	-98
14235769	-4495	954	-218
14236097	-4344	986	-285
14236425	-4014	1067	-349
14236753	-3551	646	-384
14237081	-3056	432	-398
14237409	-2616	956	-395
14237737	-1880	1507	-435
14238065	-1496	1522	-436
14238393	-1287	1194	-389
14238721	-1139	833	-256
14239049	-1265	505	-211
14239377	-951	594	-266
14239705	-1004	794	-180
14240033	-857	600	-139
14240361	-619	247	-152
14240689	-397	115	-156
14241017	-228	251	-102
14241345	-20	197	-51
14241673	147	4	-44
14242001	393	-78	-3
14242329	592	-142	45
14242657	666	-69	105
14242985	747	-53	174
14243313	740	-93	239
14243641	738	-291	258
14243969	703	-372	235
14244297	733	-514	286
14244625	825	-844	254
14244953	819	-845	201
14245281	806	-576	171
14245609	758	-477	188
14245937	832	-493	155
14246265	696	-378	146
14246593	496	-249	174
14246921	403	-128	199
14247249	422	-106	198
14247577	326	-252	203
14247905	252	-218	225
14248233	244	115	240
14248561	123	362	190
14248889	161	-10	146
14249217	-72	-525	105
14249545	-20	-355	29
14249873	-26	141	-53
14250201	-35	408	-138
14250529	-97	457	-199
14250857	107	352	-290
14251185	188	97	-337
14251513	17	-200	-386
14251841	-32	-89	-376
14252169	-84	-50	-362
14252497	-272	-211	-386
14252825	-188	-215	-483
14253153	-192	172	-558
14253481	-149	476	-628
14253809	-565	-242	-674
14254137	-486	-1333	-665
14254465	-531	-1166	-624
14254793	-276	-765	-593
14255121	-138	-1074	-674
14255449	507	-1550	-778
14255777	273	-1770	-780
14256105	485	-1793	-775
14256433	168	-1808	-685
14256761	338	-2095	-591
14257089	315	-2310	-602
14257417	275	-2499	-529
14257745	597	-2714	-503
14258073	664	-2788	-328
14258401	650	-3056	-243
14258729	436	-3358	107
14259057	170	-3520	147
14259385	-84	-3857	422
14259713	8	-4072	373
14260041	487	-3977	138
14260369	856	-3777	484
14260697	819	-3613	454
14261025	1080	-3744	887
14261353	1521	-4264	1226
14261681	1764	-5172	1947
14262009	3248	-6138	2067
14262337	5236	-6299	2499
14262665	7833	-6830	3144
14262993	8648	-8407	4618
14263321	9050	-10246	5421
14263649	10201	-11589	5404
14263977	11813	-14103	6419
14264305	11260	-13952	6685
14264633	12968	-12968	5891
14264961	12127	-12973	5193
14265289	11566	-14199	4738
14265617	11431	-13951	4109
14265945	12157	-11542	2237
14266273	14731	-7532	1016
14266601	14934	-2215	277
14266929	14083	2861	-498
14267257	11262	6428	-902
14267585	10595	6269	-436
14267913	10955	2561	-1435
14268241	10705	372	-3764
14268569	10662	1711	-3478
14268897	10773	2679	-4249
14269225	9095	3180	-3727
14269553	10253	1834	-3899
14269881	11389	-73	-4460
14270209	12114	-1141	-4994
14270537	13019	-1585	-5531
14270865	13438	-1388	-5987
14271193	16147	-2785	-7572
14271521	17311	-4459	-8670
14271849	18142	-5557	-9977
14272177	18875	-5774	-10705
14272505	18975	-6202	-11236
14272833	19190	-7193	-11281
14273161	18161	-8791	-11781
14273489	18320	-10829	-11488
14273817	17414	-12074	-11665
14274145	17114	-12816	-11926
14274473	16464	-13128	-11781
14274801	15622	-13629	-11328
14275129	14745	-14031	-10824
14275457	14144	-14286	-10508
14275785	13762	-14703	-9929
14276113	12865	-14910	-9354
14276441	12882	-14965	-8772
14276769	12340	-14467	-8181
14277097	12063	-13722	-7609
14277425	12296	-12870	-6669
14277753	12446	-11950	-5539
14278081	12620	-10962	-3717
14278409	12292	-10414	-2096
14278737	11776	-10525	-928
14279065	12143	-10804	-212
14279393	11996	-10400	279
14279721	12372	-9026	979
14280049	12542	-6901	1820
14280377	11855	-5312	2693
14280705	10578	-4809	3524
14281033	9698	-4712	3874
14281361	8782	-3856	3986
14281689	7689	-2426	3985
14282017	6864	-1022	3644
14282345	6046	178	3129
14282673	5421	849	2931
14283001	4768	1096	2646
14283329	3653	1045	2538
14283657	3330	1626	2555
14283985	3054	3744	2433
14284313	2604	5890	2665
14284641	1634	4910	3615
14284969	908	3082	3946
14285297	202	3460	3468
14285625	523	4335	3335
14285953	1118	5369	3110
14286281	1446	5282	3155
14286609	1877	3589	3202
14286937	1765	1408	3210
14287265	2498	998	2949
14287593	3107	2067	2910
14287921	3697	2601	2838
14288249	3673	1946	2567
14288577	3469	136	2515
14288905	3727	-342	2113
14289233	3128	210	2464
14289561	3398	1322	2258
14289889	2532	1629	2003
14290217	1837	1868	1608
14290545	1510	2095	1117
14290873	947	2180	1042
14291201	59	1870	840
14291529	101	1878	787
14291857	-364	1900	766
14292185	-260	1876	487
14292513	-582	1947	194
14292841	-74	1665	134
14293169	-243	1264	-72
14293497	464	1520	-64
14293825	294	1303	-267
14294153	476	1137	-271
14294481	146	1029	-351
14294809	31	1068	-121
14295137	-408	995	0
14295465	-557	389	110
14295793	-555	55	9
14296121	-620	367	9
14296449	-549	347	-28
14296777	-501	226	-103
14297105	-742	202	-97
14297433	-581	555	-212
14297761	-712	518	-168
14298089	-569	384	-128
14298417	-688	13	-145
14298745	-523	14	-127
14299073	-631	274	-162
14299401	-478	469	-164
14299729	-501	504	-138
14300057	-520	419	-218
14300385	-463	516	-199
14300713	-478	504	-199
14301041	-418	359	-253
14301369	-141	194	-230
14301697	-189	228	-257
14302025	-90	176	-152
14302353	-398	39	-74
14302681	-354	-140	-55
14303009	-393	-79	-37
14303337	-391	241	33
14303665	-219	279	1
14303993	-69	-108	20
14304321	-172	-168	10
14304649	-155	72	-11
14304977	-130	146	3
14305305	-157	-103	17
14305633	-262	-238	57
14305961	-250	-156	71
14306289	-155	-180	62
14306617	-158	-335	14
14306945	-134	-197	1
14307273	-70	-173	35
14307601	-128	-494	76
14307929	-154	-463	60
14308257	-162	-137	62
14308585	-203	-82	74
14308913	-249	-195	83
14309241	-330	19	56
14309569	-332	211	54
14309897	-416	192	61
14310225	-303	-37	49
14310553	-302	-165	5
14310881	-199	75	-52
14311209	-207	360	-75
14311537	-137	387	-52
14311865	-147	264	-11
14312193	-196	287	34
14312521	-297	526	36
14312849	-115	550	0
14313177	-296	476	-13
14313505	-200	332	-80
14313833	-148	349	-253
14314161	135	621	-306
14314489	-20	864	-376
14314817	-296	410	-392
14315145	-358	-17	-352
14315473	-435	-118	-394
14315801	-65	-509	-432
14316129	124	-431	-423
14316457	253	-239	-497
14316785	263	-369	-647
14317113	406	-534	-754
14317441	409	-286	-897
14317769	88	-192	-955
14318097	-38	-452	-954
14318425	-58	-854	-936
14318753	-278	-1249	-960
14319081	-177	-1384	-1092
14319409	178	-1414	-1227
14319737	237	-1470	-1266
14320065	245	-1473	-1297
14320393	182	-1638	-1428
14320721	28	-1745	-1526
14321049	-97	-1850	-1662
14321377	-269	-1961	-1774
14321705	-258	-2079	-1900
14322033	-296	-2201	-2006
14322361	-321	-2238	-2002
14322689	-473	-2282	-2224
14323017	-636	-2356	-2327
14323345	-701	-2436	-2554
14323673	-707	-2323	-2805
14324001	-632	-2252	-3218
14324329	-790	-2234	-3459
14324657	-1021	-2331	-3712
14324985	-1427	-2308	-3948
14325313	-1309	-2115	-4167
14325641	-1573	-1933	-4457
14325969	-1754	-1682	-5105
14326297	-2015	-1740	-5480
14326625	-2915	-2389	-5829
14326953	-2799	-2981	-5996
14327281	-4242	-2475	-6365
14327609	-4322	-2101	-6586
14327937	-5032	-1745	-6656
14328265	-6280	-817	-7398
14328593	-7336	-301	-7769
14328921	-10217	-647	-7576
14329249	-10492	-1251	-7359
14329577	-11155	-1501	-7146
14329905	-12049	-1703	-6041
14330233	-10298	-2036	-4757
14330561	-10287	-2218	-3025
14330889	-9394	-1535	-1561
14331217	-8571	311	44
14331545	-7378	2854	2518
14331873	-7510	5163	5213
14332201	-6781	5364	7422
14332529	-8041	4083	9194
14332857	-7601	3982	10588
14333185	-4890	4914	10233
14333513	-4470	5666	10436
14333841	-3556	5343	10332
14334169	-4059	4855	10698
14334497	-4050	5177	11374
14334825	-4310	5412	11753
14335153	-5050	5254	11655
14335481	-5404	4207	11024
14335809	-5328	3260	11049
14336137	-6050	3408	11147
14336465	-5937	3075	11136
14336793	-5774	1951	11198
14337121	-5330	1184	11073
14337449	-4674	1378	10869
14337777	-3899	1938	10856
14338105	-3557	1884	10989
14338433	-3101	1351	11202
14338761	-2574	1038	11216
14339089	-1866	1385	11193
14339417	-1411	1413	10821
14339745	-867	1797	10476
14340073	-782	2081	9826
14340401	-328	2241	9196
14340729	-893	2715	8545
14341057	-1312	3003	7784
14341385	-1841	3031	6954
14341713	-2814	2708	5904
14342041	-3132	4375	4825
14342369	-3213	4818	3666
14342697	-3434	4170	2368
14343025	-5270	4108	934
14343353	-5418	4482	-329
14343681	-6244	5089	-1565
14344009	-6747	5583	-2713
14344337	-6631	5570	-3690
14344665	-7269	5777	-4708
14344993	-6300	6222	-5604
14345321	-6736	7515	-5738
14345649	-7092	8196	-5590
14345977	-7497	8291	-4505
14346305	-8177	8494	-3615
14346633	-7955	8931	-3012
14346961	-7850	9242	-2538
14347289	-7275	8629	-2723
14347617	-6144	7899	-2916
14347945	-4664	7064	-3160
14348273	-4130	6594	-2848
14348601	-1511	5645	-2046
14348929	1416	4072	-657
14349257	2362	1793	264
14349585	3591	910	122
14349913	5628	1514	-681
14350241	6710	3293	-1086
14350569	6878	6142	-1110
14350897	5691	10149	-1321
14351225	3450	11104	-1547
14351553	1984	7794	-1751
14351881	33	3623	-1990
14352209	-850	2269	-1746
14352537	-755	3540	-1111
14352865	-1376	4627	-410
14353193	-2091	4216	-504
14353521	-2734	3736	-1276
14353849	-2659	4484	-1853
14354177	-2285	6117	-1627
14354505	-3063	5760	-1400
14354833	-4121	5245	-1346
14355161	-4875	4670	-1462
14355489	-5570	5222	-1672
14355817	-6098	6182	-1765
14356145	-6328	6858	-1912
14356473	-6939	7466	-1758
14356801	-7401	7733	-1558
14357129	-8415	7528	-1391
14357457	-8591	7560	-1309
14357785	-8964	8087	-1072
14358113	-9161	8699	-915
14358441	-9651	8846	-781
14358769	-9882	8659	-820
14359097	-10564	8349	-889
14359425	-11338	8536	-1084
14359753	-12381	9473	-1316
14360081	-13103	10608	-1658
14360409	-14441	11557	-1946
14360737	-15433	12145	-2236
14361065	-16747	12482	-2388
14361393	-17792	12819	-2433
14361721	-18865	12964	-2319
14362049	-19658	12726	-2281
14362377	-20114	12236	-2151
14362705	-20056	12093	-2210
14363033	-19915	12036	-2165
14363361	-19497	11840	-2158
14363689	-19058	11564	-2283
14364017	-18716	11307	-2486
14364345	-18467	11092	-2685
14364673	-18085	10631	-2869
14365001	-17915	9819	-3053
14365329	-17361	9042	-3304
14365657	-17176	8570	-3485
14365985	-17088	8346	-3741
14366313	-16831	7893	-3836
14366641	-16814	7057	-3881
14366969	-16518	6746	-4052
14367297	-16514	6425	-4067
14367625	-16623	6028	-4637
14367953	-16655	6457	-5217
14368281	-16424	7193	-5652
14368609	-15937	7468	-6126
14368937	-15727	7920	-6305
14369265	-15777	8258	-6168
14369593	-16217	7092	-6152
14369921	-16865	5231	-6452
14370249	-16787	4869	-7006
14370577	-14659	6715	-7230
14370905	-14583	9590	-3640
14371233	-16906	1205	-1126
14371561	-12669	-8435	-1690
14371889	-13294	-7632	-2150
14372217	-9803	-3138	-1852
14372545	-6466	3951	-1819
14372873	-4697	7409	-1947
14373201	-2642	4758	-1528
14373529	-2758	-72	-969
14373857	-4182	-1455	-578
14374185	-7374	1294	47
14374513	-10643	3314	432
14374841	-9923	4531	1190
14375169	-7848	5414	1673
14375497	-5434	5527	1766
14375825	-3385	5861	1351
14376153	-3307	5348	844
14376481	-2754	4019	371
14376809	-2401	1833	436
14377137	-1845	-1786	83
14377465	-1223	-5408	-264
14377793	242	-4223	-1468
14378121	2013	-2146	-1973
14378449	2667	-1128	-1596
14378777	1233	-419	-1121
14379105	557	-264	-878
14379433	135	-746	-666
14379761	477	-1053	-618
14380089	902	-803	-360
14380417	1001	-1104	-308
14380745	385	-1110	-118
14381073	388	-900	29
14381401	252	-539	34
14381729	320	-138	-23
14382057	331	485	-33
14382385	347	644	-112
14382713	44	49	-45
14383041	-179	107	-9
14383369	-340	221	49
14383697	-326	2	26
14384025	-475	-203	-69
14384353	-335	282	-66
14384681	-133	340	-67
14385009	-94	47	-99
14385337	83	269	-123
14385665	124	552	-166
14385993	149	542	-180
14386321	76	600	-110
14386649	-115	522	-113
14386977	-212	421	-92
14387305	-220	415	-89
14387633	-296	427	-84
14387961	-346	374	-66
14388289	-277	367	-30
14388617	-228	297	-30
14388945	-178	273	20
14389273	-117	348	64
14389601	-46	287	32
14389929	75	15	33
14390257	140	29	47
14390585	206	244	64
14390913	295	274	79
14391241	259	210	91
14391569	218	190	122
14391897	220	84	154
14392225	250	23	210
14392553	316	44	228
14392881	458	83	256
14393209	530	101	304
14393537	496	-11	388
14393865	611	-270	470
14394193	777	-423	536
14394521	851	-236	589
14394849	1042	-10	629
14395177	1453	63	654
14395505	1618	66	712
14395833	1741	-78	767
14396161	2008	-336	828
14396489	2401	-567	888
14396817	2831	-622	1000
14397145	3227	-768	1110
14397473	3591	-1045	1148
14397801	3992	-1659	1272
14398129	4492	-2259	1511
14398457	4940	-2801	1739
14398785	5273	-3181	2058
14399113	5587	-3332	2380
14399441	6015	-3481	2674
14399769	6181	-3495	2905
14400097	6558	-3383	3050
14400425	6971	-3351	3267
14400753	7384	-3473	3363
14401081	7893	-4015	3523
14401409	8139	-4696	3541
14401737	8440	-5048	3480
14402065	8780	-5182	3270
14402393	8795	-5103	3005
14402721	8835	-4900	2788
14403049	8790	-4587	2545
14403377	8349	-4327	2429
14403705	8379	-4095	2215
14404033	8032	-3877	2028
14404361	7821	-3347	1895
14404689	7848	-3095	1785
14405017	7878	-3058	1653
14405345	7733	-2888	1415
14405673	7822	-2689	1130
14406001	7603	-2172	649
14406329	7394	-1643	291
14406657	7314	-1574	-8
14406985	7160	-1565	-429
14407313	6878	-1044	-846
14407641	6526	71	-1338
14407969	6091	1482	-1747
14408297	5408	2843	-2164
14408625	4953	3434	-2391
14408953	4067	2307	-2698
14409281	4008	888	-2829
14409609	3571	868	-2981
14409937	3235	1155	-3104
14410265	3083	697	-3101
14410593	2955	356	-3139
14410921	2923	588	-3379
14411249	2604	1261	-3548
14411577	2623	1809	-3856
14411905	2621	2316	-4091
14412233	2274	2748	-4130
14412561	2004	3145	-4264
14412889	1673	3294	-4205
14413217	1353	2870	-4038
14413545	1031	2022	-3940
14413873	906	1485	-3872
14414201	414	1631	-3827
14414529	548	2147	-3961
14414857	674	2328	-3817
14415185	626	1935	-3763
14415513	841	1505	-3665
14415841	1128	1315	-3531
14416169	1188	1389	-3391
14416497	1154	1588	-3275
14416825	1273	1598	-3200
14417153	943	1134	-3073
14417481	440	552	-3022
14417809	491	607	-2982
14418137	530	931	-2974
14418465	158	520	-2847
14418793	88	273	-2730
14419121	106	411	-2658
14419449	16	542	-2570
14419777	25	219	-2458
14420105	-52	203	-2427
14420433	-12	249	-2413
14420761	93	342	-2392
14421089	-15	508	-2373
14421417	271	353	-2244
14421745	372	241	-2095
14422073	486	17	-1933
14422401	678	-139	-1767
14422729	553	-164	-1572
14423057	758	-14	-1471
14423385	884	-85	-1325
14423713	593	-218	-1279
14424041	612	-110	-1271
14424369	712	-96	-1167
14424697	523	-349	-1093
14425025	624	-441	-993
14425353	969	-405	-980
14425681	1127	-461	-963
14426009	1329	-626	-942
14426337	1674	-668	-1033
14426665	1740	-636	-1000
14426993	1774	-659	-924
14427321	1914	-990	-859
14427649	1909	-1095	-843
14427977	1866	-1041	-844
14428305	1832	-1285	-863
14428633	1904	-1394	-863
14428961	2132	-1362	-822
14429289	2458	-1078	-629
14429617	1650	-1147	-157
14429945	2196	-1008	-650
14430273	2109	-210	-554
14430601	2953	-586	-706
14430929	1932	-860	-745
14431257	2418	-1030	-757
14431585	2523	-1087	-735
14431913	2233	-1175	-752
14432241	2273	-1253	-666
14432569	2014	-1418	-683
14432897	2010	-1498	-621
14433225	2074	-1483	-515
14433553	2565	-1385	-420
14433881	2621	-1536	-386
14434209	3042	-1781	-336
14434537	3410	-2072	-534
14434865	3147	-2228	-712
14435193	3771	-2408	-609
14435521	3954	-2766	-576
14435849	3730	-2971	-648
14436177	4073	-2951	-576
14436505	4450	-2996	-290
14436833	4477	-3131	-283
14437161	4769	-3326	-343
14437489	4805	-3760	-446
14437817	5540	-3757	-589
14438145	5967	-3729	-608
14438473	6541	-3987	-656
14438801	7303	-4166	-693
14439129	8132	-4271	-732
14439457	8119	-4472	-564
14439785	8986	-4190	-561
14440113	9226	-3916	-132
14440441	9318	-4440	208
14440769	9391	-5408	602
14441097	9638	-6377	792
14441425	10124	-6797	987
14441753	10877	-6388	912
14442081	11517	-5386	812
14442409	11526	-5394	689
14442737	11561	-5498	621
14443065	11698	-5325	621
14443393	11478	-5298	887
14443721	11335	-5476	1036
14444049	11203	-5460	1051
14444377	11267	-5278	1105
14444705	11393	-5405	1159
14445033	11797	-5562	1273
14445361	12114	-5540	1485
14445689	12392	-5394	1584
14446017	12559	-5221	1635
14446345	12456	-4976	1482
14446673	12405	-4776	1535
14447001	11997	-4680	1522
14447329	11576	-4698	1739
14447657	11225	-4850	1920
14447985	10821	-4632	1992
14448313	10289	-4305	2102
14448641	9693	-4234	2141
14448969	8630	-4153	2113
14449297	7384	-4459	2261
14449625	7085	-3768	2370
14449953	6144	-3183	2604
14450281	5536	-3100	2772
14450609	5055	-3198	2690
14450937	4842	-3355	2489
14451265	4855	-3428	2268
14451593	5480	-3760	2222
14451921	6654	-4809	2451
14452249	7540	-5322	2820
14452577	7887	-5371	3175
14452905	8359	-5269	3302
14453233	8964	-5274	3120
14453561	9549	-5057	2866
14453889	9625	-4730	2631
14454217	9556	-4082	2502
14454545	9615	-3740	2501
14454873	9558	-4129	2628
14455201	9540	-4476	2428
14455529	9028	-4563	2228
14455857	9407	-4521	2209
14456185	9725	-4685	2337
14456513	10183	-4935	2499
14456841	10589	-5356	2586
14457169	10620	-5665	2522
14457497	10739	-5563	2388
14457825	10883	-5578	2134
14458153	10961	-5751	1775
14458481	10695	-5374	1484
14458809	10609	-4885	1258
14459137	10286	-4719	1084
14459465	9789	-4640	942
14459793	9835	-4441	975
14460121	9439	-4021	930
14460449	8866	-3676	821
14460777	7975	-3293	707
14461105	7416	-2171	448
14461433	6520	-663	400
14461761	5057	299	245
14462089	3761	643	8
14462417	2454	1070	-195
14462745	1843	1665	-234
14463073	832	2128	-331
14463401	208	2410	-388
14463729	-309	2480	-432
14464057	-914	2312	-428
14464385	-1434	2387	-525
14464713	-1672	2542	-569
14465041	-1955	2319	-534
14465369	-2180	1869	-446
14465697	-1834	1762	-430
14466025	-1200	1468	-4
14466353	-420	1048	8
14466681	246	687	-170
14467009	-125	799	-52
14467337	295	1934	-211
14467665	-658	3014	-311
14467993	-1541	3110	-539
14468321	-2220	1921	-515
14468649	-2446	683	-383
14468977	-2273	582	-376
14469305	-2153	1085	-367
14469633	-2094	1283	-323
14469961	-1898	1226	-405
14470289	-1715	1057	-439
14470617	-1807	1006	-430
14470945	-1712	944	-470
14471273	-1917	793	-513
14471601	-1981	769	-419
14471929	-2268	837	-392
14472257	-2394	1045	-360
14472585	-2597	1265	-412
14472913	-2766	1423	-458
14473241	-2834	1617	-424
14473569	-3057	1645	-427
14473897	-3262	1463	-440
14474225	-3399	1249	-421
14474553	-3176	1179	-375
14474881	-2843	1207	-281
14475209	-2604	1307	-290
14475537	-2281	1284	-297
14475865	-2229	1143	-298
14476193	-2074	1097	-307
14476521	-2000	969	-308
14476849	-1994	835	-275
14477177	-1884	859	-280
14477505	-1671	811	-263
14477833	-1331	770	-308
14478161	-1233	649	-323
14478489	-1310	546	-344
14478817	-1183	499	-293
14479145	-1292	403	-277
14479473	-1142	321	-283
14479801	-971	316	-295
14480129	-710	401	-256
14480457	-648	423	-295
14480785	-672	386	-287
14481113	-661	255	-275
14481441	-896	368	-271
14481769	-892	352	-280
14482097	-921	299	-264
14482425	-788	232	-239
14482753	-821	141	-226
14483081	-647	134	-197
14483409	-491	38	-193
14483737	-416	52	-186
14484065	-306	165	-171
14484393	-266	223	-215
14484721	-203	189	-201
14485049	-157	134	-185
14485377	-155	62	-156
14485705	-160	2	-146
14486033	-93	32	-137
14486361	93	4	-91
14486689	52	-52	-100
14487017	73	23	-127
14487345	16	132	-153
14487673	-55	125	-154
14488001	-125	58	-150
14488329	-138	92	-130
14488657	-110	182	-127
14488985	-130	186	-133
14489313	-126	171	-145
14489641	-123	162	-148
14489969	-149	134	-132
14490297	-206	140	-139
14490625	-144	139	-162
14490953	-122	74	-149
14491281	-43	96	-112
14491609	-33	125	-58
14491937	-49	40	-27
14492265	-85	-5	-19
14492593	-69	94	8
14492921	-125	198	30
14493249	-172	220	22
14493577	-258	219	12
14493905	-289	275	14
14494233	-345	271	-12
14494561	-407	250	3
14494889	-464	10	24
14495217	-365	-770	4
14495545	-456	-883	-74
14495873	-711	-377	-63
14496201	-382	-123	-33
14496529	-779	-240	-5
14496857	-609	-308	20
14497185	-789	159	52
14497513	-454	845	124
14497841	-366	1066	222
14498169	-327	780	275
14498497	-260	514	261
14498825	-110	477	240
14499153	-76	617	240
14499481	-107	621	267
14499809	121	593	276
14500137	431	712	257
14500465	730	860	247
14500793	931	765	265
14501121	897	697	318
14501449	984	885	223
14501777	802	973	140
14502105	823	993	67
14502433	872	1017	119
14502761	952	1147	37
14503089	1178	1303	-2
14503417	1383	1180	-81
14503745	1369	1055	-219
14504073	1325	1185	-267
14504401	929	1528	-315
14504729	752	1779	-305
14505057	588	1584	-244
14505385	1173	1320	-385
14505713	1373	1319	-436
14506041	1379	1575	-402
14506369	1488	1916	-554
14506697	1418	1817	-618
14507025	1493	1632	-753
14507353	1673	1561	-779
14507681	1730	1591	-885
14508009	1929	1364	-978
14508337	2066	1007	-1134
14508665	1969	805	-1234
14508993	1969	685	-1378
14509321	1968	577	-1570
14509649	2202	418	-1699
14509977	2290	284	-1772
14510305	2329	234	-1842
14510633	2410	144	-1848
14510961	2432	77	-1866
14511289	2327	-67	-1878
14511617	2153	-181	-1905
14511945	2022	-216	-1869
14512273	1777	-114	-1849
14512601	1575	64	-1867
14512929	1298	88	-1865
14513257	1018	56	-1845
14513585	820	104	-1828
14513913	636	90	-1776
14514241	475	43	-1773
14514569	312	-94	-1756
14514897	243	-311	-1672
14515225	206	-390	-1620
14515553	265	-532	-1515
14515881	339	-633	-1367
14516209	439	-680	-1311
14516537	536	-729	-1187
14516865	501	-562	-1150
14517193	569	-444	-1146
14517521	447	-425	-1106
14517849	189	-623	-1081
14518177	-22	-1020	-1017
14518505	-188	-1141	-912
14518833	-96	-1045	-853
14519161	307	-819	-614
14519489	408	-725	-619
14519817	351	-710	-606
14520145	-14	-784	-587
14520473	-232	-835	-551
14520801	-528	-728	-476
14521129	-579	-655	-457
14521457	-654	-657	-405
14521785	-696	-655	-274
14522113	-651	-681	-227
14522441	-776	-605	-119
14522769	-699	-399	-28
14523097	-747	-244	-66
14523425	-657	-294	-114
14523753	-593	18	-92
14524081	-881	207	-50
14524409	-829	105	-19
14524737	-998	470	28
14525065	-925	709	29
14525393	-880	589	-63
14525721	-660	358	-195
14526049	-602	-487	-185
14526377	-582	-677	-217
14526705	-360	-242	-97
14527033	-735	285	47
14527361	-1016	554	87
14527689	-1692	701	-60
14528017	-2103	1257	-217
14528345	-2155	1924	-223
14528673	-2327	2283	-116
14529001	-2823	2353	-176
14529329	-3216	2414	-224
14529657	-3662	2587	-253
14529985	-4103	2895	-240
14530313	-4599	3220	-290
14530641	-5025	3349	-375
14530969	-5406	3340	-483
14531297	-5781	3538	-528
14531625	-5984	3872	-657
14531953	-6234	3901	-624
14532281	-6498	3889	-758
14532609	-6413	3906	-792
14532937	-6288	4035	-834
14533265	-6018	4023	-798
14533593	-5790	3847	-838
14533921	-5442	3489	-800
14534249	-4918	3240	-856
14534577	-4452	3179	-918
14534905	-4053	3113	-993
14535233	-3573	2912	-1059
14535561	-3341	2698	-1175
14535889	-3248	2480	-1269
14536217	-3268	2374	-1389
14536545	-3376	2176	-1516
14536873	-3575	2073	-1549
14537201	-3628	1935	-1648
14537529	-3847	1969	-1768
14537857	-3209	1464	-1672
14538185	-862	-1139	-782
14538513	-218	-3451	93
14538841	-45	-3104	540
14539169	45	-787	-104
14539497	816	886	-890
14539825	858	1434	-1234
14540153	655	661	-1715
14540481	72	-716	-1950
14540809	324	-709	-1726
14541137	-160	-779	-1398
14541465	-1092	-994	-996
14541793	-1329	-826	-771
14542121	-1693	-370	-590
14542449	-1848	133	-614
14542777	-1893	-31	-662
14543105	-1588	-1019	-814
14543433	-1494	-1617	-905
14543761	-811	-1387	-973
14544089	93	-703	-1093
14544417	630	-407	-1170
14544745	736	-380	-1385
14545073	983	-536	-1433
14545401	1304	-528	-1276
14545729	1407	-463	-1248
14546057	1293	-454	-1312
14546385	1031	-548	-1250
14546713	523	-531	-1235
14547041	168	-596	-1162
14547369	49	-621	-1082
14547697	-246	-587	-1023
14548025	-225	-439	-917
14548353	-100	-240	-852
14548681	-45	-83	-769
14549009	103	-33	-827
14549337	310	-39	-768
14549665	481	41	-770
14549993	400	179	-707
14550321	299	208	-755
14550649	190	91	-731
14550977	80	22	-696
14551305	119	65	-652
14551633	321	176	-665
14551961	303	170	-572
14552289	267	190	-597
14552617	340	146	-510
14552945	456	266	-506
14553273	357	218	-443
14553601	424	244	-425
14553929	485	314	-412
14554257	445	400	-346
14554585	460	440	-307
14554913	440	418	-311
14555241	407	337	-323
14555569	340	315	-314
14555897	468	350	-269
14556225	441	313	-264
14556553	329	200	-302
14556881	308	244	-345
14557209	317	216	-330
14557537	318	197	-339
14557865	213	191	-247
14558193	88	285	-240
14558521	66	312	-241
14558849	67	263	-253
14559177	124	261	-240
14559505	160	284	-241
14559833	219	341	-221
14560161	191	285	-207
14560489	256	233	-207
14560817	243	173	-189
14561145	256	164	-170
14561473	239	255	-148
14561801	175	299	-153
14562129	112	197	-144
14562457	170	173	-121
14562785	155	242	-136
14563113	190	243	-152
14563441	122	158	-135
14563769	182	173	-121
14564097	185	233	-141
14564425	118	216	-173
14564753	106	155	-148
14565081	164	166	-132
14565409	165	201	-117
14565737	109	182	-140
14566065	105	133	-147
14566393	116	146	-129
14566721	153	230	-120
14567049	131	235	-138
14567377	69	86	-143
14567705	65	114	-131
14568033	87	200	-118
14568361	86	166	-121
14568689	26	115	-131
14569017	86	88	-104
14569345	116	72	-121
14569673	125	114	-99
14570001	124	99	-100
14570329	115	61	-91
14570657	139	139	-101
14570985	143	154	-79
14571313	86	95	-63
14571641	103	116	-52
14571969	88	159	-41
14572297	94	139	-46
14572625	98	108	-41
14572953	122	107	-33
14573281	138	129	-31
14573609	115	120	-26
14573937	125	122	-29
14574265	93	135	-23
14574593	115	116	-14
14574921	63	121	-26
14575249	62	143	-41
14575577	24	99	-24
14575905	14	132	-1
14576233	13	212	24
14576561	-45	186	-1
14576889	-46	145	-21
14577217	-63	172	-11
14577545	-21	178	-3
14577873	-49	130	-11
14578201	-50	117	-1
14578529	-14	145	8
14578857	-52	183	3
14579185	-88	128	-4
14579513	-37	110	6
14579841	-12	124	1
14580169	-16	106	12
14580497	9	125	10
14580825	34	127	-4
14581153	1	126	0
14581481	-34	116	14
14581809	-22	138	19
14582137	-12	153	-2
14582465	-100	74	-20
14582793	-88	49	-23
14583121	-44	100	17
14583449	-57	129	10
14583777	-83	95	1
14584105	-93	70	-6
14584433	-26	104	17
14584761	29	146	17
14585089	-26	93	10
14585417	-16	64	28
14585745	11	129	46
14586073	22	164	29
14586401	-18	60	-2
14586729	-14	0	2
14587057	30	85	30
14587385	-15	84	36
14587713	-40	75	20
14588041	-78	45	15
14588369	-24	15	25
14588697	11	18	35
14589025	32	86	49
14589353	0	66	51
14589681	39	31	46
14590009	21	91	50
14590337	50	110	53
14590665	-31	80	26
14590993	-46	73	30
14591321	-59	168	34
14591649	-97	131	32
14591977	-111	105	22
14592305	-135	125	31
14592633	-123	90	35
14592961	-79	97	24
14593289	-107	82	12
14593617	-100	74	5
14593945	-82	126	27
14594273	-49	134	28
14594601	-104	75	10
14594929	-80	116	0
14595257	-79	106	16
14595585	-76	72	26
14595913	-65	101	38
14596241	-85	117	37
14596569	-17	89	46
14596897	6	95	45
14597225	21	100	57
14597553	43	143	51
14597881	31	107	53
14598209	48	79	53
14598537	1	75	67
14598865	51	126	71
14599193	23	108	45
14599521	-19	96	47
14599849	54	142	60
14600177	26	155	65
14600505	25	156	61
14600833	25	121	29
14601161	-55	122	25
14601489	24	151	38
14601817	-36	95	38
14602145	-66	165	18
14602473	0	150	35
14602801	-30	142	17
14603129	-18	170	22
14603457	-87	138	28
14603785	-94	133	32
14604113	-33	180	44
14604441	-92	199	15
14604769	-73	127	5
14605097	-96	79	-5
14605425	-85	165	8
14605753	-126	152	9
14606081	-141	122	15
14606409	-125	180	13
14606737	-145	159	-10
14607065	-149	113	-12
14607393	-115	145	-7
14607721	-137	130	-15
14608049	-117	121	-32
14608377	-104	149	-16
14608705	-86	145	-20
14609033	-60	138	-14
14609361	-82	172	-9
14609689	-96	126	-7
14610017	-56	153	0
14610345	-53	171	-5
14610673	-49	179	0
14611001	-17	195	-5
14611329	-14	168	-3
14611657	30	154	-9
14611985	48	187	-20
14612313	37	149	-4
14612641	38	155	4
14612969	50	160	9
14613297	59	165	-1
14613625	87	169	6
14613953	143	191	-2
14614281	140	177	-10
14614609	99	102	2
14614937	93	150	-8
14615265	91	163	-3
14615593	93	127	5
14615921	61	138	-15
14616249	81	145	9
14616577	75	136	11
14616905	60	139	-1
14617233	50	142	-14
14617561	25	176	-8
14617889	21	172	-10
14618217	1	147	-21
14618545	-9	154	-31
14618873	53	180	-35
14619201	180	252	-44
14619529	221	-211	-86
14619857	501	-330	-88
14620185	215	249	-124
14620513	391	390	-73
14620841	305	140	-27
14621169	303	165	21
14621497	320	379	65
14621825	395	335	89
14622153	338	228	94
14622481	423	296	155
14622809	524	413	180
14623137	520	447	185
14623465	536	394	248
14623793	405	360	252
14624121	249	411	249
14624449	143	325	207
14624777	-149	184	60
14625105	-261	131	77
14625433	-311	150	141
14625761	-222	173	147
14626089	-565	150	86
14626417	-385	167	105
14626745	-332	56	123
14627073	-285	163	112
14627401	-179	247	133
14627729	-295	145	89
14628057	-350	102	39
14628385	-213	179	6
14628713	-233	191	19
14629041	-237	108	7
14629369	-321	131	8
14629697	-328	237	4
14630025	-294	193	5
14630353	-241	188	-5
14630681	-246	208	-9
14631009	-149	259	-6
14631337	-120	266	13
14631665	-119	221	-13
14631993	13	-85	-27
14632321	569	-333	-43
14632649	111	244	-66
14632977	631	238	-76
14633305	316	-102	-75
14633633	557	-139	-116
14633961	321	62	-81
14634289	474	409	-102
14634617	863	237	-52
14634945	531	585	-69
14635273	691	726	111
14635601	1085	497	338
14635929	1054	659	341
14636257	1205	632	419
14636585	1168	546	395
14636913	1296	477	477
14637241	1145	566	531
14637569	951	504	624
14637897	710	481	756
14638225	598	725	922
14638553	410	1092	1170
14638881	190	1361	1359
14639209	78	1385	1615
14639537	-356	1561	1818
14639865	-214	1869	2091
14640193	-572	2403	2256
14640521	-633	2828	2369
14640849	-330	3135	2465
14641177	-202	2943	2498
14641505	-534	2744	2640
14641833	-769	2954	2981
14642161	-1072	3259	3428
14642489	-1405	2987	4089
14642817	-778	2483	4389
14643145	890	830	4348
14643473	1273	868	4108
14643801	1901	2021	3826
14644129	1785	2816	4149
14644457	2123	2161	4499
14644785	2114	425	4415
14645113	2454	-1262	3083
14645441	2597	-793	1695
14645769	1198	2827	335
14646097	411	7723	-2
14646425	310	7280	-225
14646753	-575	2604	-627
14647081	-574	-958	-2112
14647409	252	-895	-1979
14647737	-477	1585	-1870
14648065	-736	4977	-2743
14648393	-1585	5318	-3716
14648721	-2774	1335	-4479
14649049	-2997	-3802	-4187
14649377	-2854	-7253	-3784
14649705	-3476	-8018	-3403
14650033	-3122	-7105	-2298
14650361	-4123	-6986	-2520
14650689	-5181	-7622	-2381
14651017	-6931	-6957	-2972
14651345	-10270	-4459	-4329
14651673	-9160	-3338	-4561
14652001	-9396	-5345	-3678
14652329	-6340	-4644	-1300
14652657	-301	352	1211
14652985	1084	4243	3089
14653313	96	3134	4085
14653641	-825	148	3825
14653969	-594	-1233	3711
14654297	31	-515	3590
14654625	-107	-96	2265
14654953	86	-988	1240
14655281	347	-2050	900
14655609	792	-2177	137
14655937	358	-1415	-1082
14656265	0	-85	-1660
14656593	-1269	867	-2131
14656921	-2671	1351	-2546
14657249	-4220	1465	-2638
14657577	-5384	1250	-2715
14657905	-5874	716	-2357
14658233	-5536	1021	-1807
14658561	-4670	1400	-1108
14658889	-3716	1263	-451
14659217	-1856	357	-61
14659545	-79	-427	428
14659873	1801	1224	-470
14660201	9274	2783	2097
14660529	12202	10660	4174
14660857	12212	20785	-1112
14661185	10539	6067	-2954
14661513	6615	-5183	2727
14661841	-2472	-7512	-81
14662169	838	-148	-1956
14662497	9991	10623	300
14662825	-5610	5197	4557
14663153	1849	-1042	6791
14663481	-1466	-6009	6565
14663809	-258	-8562	551
14664137	4870	-9930	-2700
14664465	2619	-9002	-4520
14664793	-4276	-5249	-2388
14665121	-4944	8655	2247
14665449	-2840	17335	-1507
14665777	3025	7482	-3376
14666105	18	-4953	-2627
14666433	-1256	-10400	-2626
14666761	19	-6341	-2874
14667089	-766	-2386	-2648
14667417	-2006	-951	-2308
14667745	-1581	-1611	-2293
14668073	-1872	-2000	-2142
14668401	-993	-994	-1993
14668729	-102	-512	-1826
14669057	228	-625	-1508
14669385	278	-1082	-1275
14669713	236	-1238	-1249
14670041	219	-894	-1121
14670369	247	-459	-1100
14670697	250	-623	-918
14671025	412	-819	-751
14671353	440	-790	-663
14671681	528	-560	-609
14672009	685	-245	-572
14672337	654	-152	-423
14672665	404	-213	-219
14672993	116	-120	-152
14673321	-239	-56	-146
14673649	-561	-160	-120
14673977	-750	-193	-79
14674305	-799	-258	1
14674633	-708	-354	137
14674961	-403	-72	51
14675289	-172	83	-12
14675617	185	-167	-55
14675945	574	-191	-73
14676273	888	19	-70
14676601	984	163	-126
14676929	1029	76	-205
14677257	1053	-108	-211
14677585	1029	-83	-162
14677913	1064	120	-148
14678241	888	157	-158
14678569	720	32	-150
14678897	551	-109	-197
14679225	433	-126	-180
14679553	259	-9	-170
14679881	29	104	-178
14680209	-195	68	-172
14680537	-342	-9	-158
14680865	-499	35	-133
14681193	-485	121	-119
14681521	-578	132	-92
14681849	-585	68	-53
14682177	-557	64	-38
14682505	-473	211	-39
14682833	-400	265	-48
14683161	-318	143	-49
14683489	-317	78	-25
14683817	-243	194	-25
14684145	-231	234	-36
14684473	-88	74	-69
14684801	-81	115	-74
14685129	-61	236	-75
14685457	-93	212	-88
14685785	-29	106	-75
14686113	-68	119	-73
14686441	-85	120	-93
14686769	-20	54	-81
14687097	-8	95	-60
14687425	32	153	-61
14687753	-11	105	-55
14688081	83	51	-89
14688409	126	47	-73
14688737	1	76	-75
14689065	34	115	-77
14689393	-25	47	-57
14689721	-48	61	-64
14690049	-92	135	-70
14690377	-112	101	-65
14690705	-16	87	-29
14691033	21	181	-47
14691361	24	225	-73
14691689	50	100	-61
14692017	80	73	-65
14692345	81	139	-91
14692673	-4	64	-124
14693001	-87	-20	-131
14693329	31	50	-117
14693657	-29	161	-110
14693985	-61	116	-110
14694313	-84	87	-106
14694641	-43	131	-98
14694969	-41	139	-69
14695297	-40	161	-71
14695625	-92	154	-79
14695953	-91	73	-79
14696281	-59	89	-91
14696609	4	150	-94
14696937	6	138	-97
14697265	18	56	-92
14697593	-11	83	-81
14697921	23	161	-83
14698249	-70	171	-80
14698577	-55	144	-89
14698905	-73	83	-105
14699233	-35	75	-105
14699561	-21	164	-95
14699889	-60	171	-91
14700217	-80	100	-98
14700545	-76	118	-92
14700873	-123	170	-101
14701201	-88	132	-103
14701529	-75	142	-101
14701857	-103	161	-109
14702185	-21	142	-91
14702513	-28	146	-94
14702841	-6	145	-106
14703169	-27	113	-111
14703497	0	95	-109
14703825	-6	119	-125
14704153	42	163	-108
14704481	53	144	-103
14704809	52	136	-94
14705137	12	149	-98
14705465	11	145	-104
14705793	38	142	-94
14706121	-12	158	-100
14706449	35	176	-104
14706777	40	162	-90
14707105	57	136	-113
14707433	41	127	-98
14707761	88	170	-107
14708089	-1	168	-110
14708417	36	156	-106
14708745	12	153	-91
14709073	8	145	-101
14709401	-1	140	-105
14709729	-22	101	-95
14710057	-43	148	-75
14710385	-27	182	-70
14710713	-35	163	-84
14711041	-82	173	-91
14711369	-37	174	-89
14711697	-49	165	-93
14712025	-46	193	-93
14712353	-67	160	-88
14712681	-68	130	-77
14713009	-59	124	-102
14713337	-44	142	-89
14713665	-31	132	-80
14713993	-5	173	-78
14714321	13	167	-84
14714649	50	107	-68
14714977	70	96	-70
14715305	90	207	-74
14715633	66	217	-64
14715961	50	129	-82
14716289	72	90	-69
14716617	36	113	-64
14716945	-1	213	-86
14717273	60	172	-78
14717601	57	128	-81
14717929	32	131	-79
14718257	9	124	-74
14718585	-2	166	-52
14718913	-40	213	-63
14719241	-14	150	-52
14719569	-41	119	-63
14719897	22	147	-60
14720225	22	156	-66
14720553	-22	179	-67
14720881	-59	192	-75
14721209	-15	137	-61
14721537	-35	152	-54
14721865	-51	178	-60
14722193	-44	169	-46
14722521	-55	131	-45
14722849	-84	122	-55
14723177	-48	183	-42
14723505	-67	153	-48
14723833	-45	164	-44
14724161	-68	190	-43
14724489	-36	167	-35
14724817	-94	147	-32
14725145	-122	142	-42
14725473	-83	108	-35
14725801	-79	163	-47
14726129	-36	202	-57
14726457	-29	159	-38
14726785	-15	173	-44
14727113	-92	225	-40
14727441	-79	178	-44
14727769	-45	136	-29
14728097	-75	161	-29
14728425	-48	156	-32
14728753	-35	129	-17
14729081	-57	135	-42
14729409	-68	173	-34
14729737	-47	171	-24
14730065	-95	168	-15
14730393	-114	181	-25
14730721	-128	173	-19
14731049	-126	200	-34
14731377	-106	165	-44
14731705	-66	155	-37
14732033	-55	164	-30
14732361	-106	140	-18
14732689	-112	168	-38
14733017	-122	165	-38
14733345	-58	136	-28
14733673	-58	157	-26
14734001	-52	156	-38
14734329	-95	156	-33
14734657	-74	126	-42
14734985	-85	109	-22
14735313	-88	146	-27
14735641	-53	143	-14
14735969	-41	160	-25
14736297	0	148	-31
14736625	-11	106	-20
14736953	-35	100	-28
14737281	-32	142	-34
14737609	-37	177	-38
14737937	-19	141	-29
14738265	-23	87	-32
14738593	-33	104	-30
14738921	-12	145	-28
14739249	-52	138	-28
14739577	-39	108	-10
14739905	-42	110	-23
14740233	-41	140	-8
14740561	-49	136	4
14740889	-22	127	-7
14741217	-45	146	-7
14741545	-25	132	-6
14741873	-13	105	-8
14742201	-8	86	20
14742529	-27	154	36
14742857	-2	176	25
14743185	-57	113	13
14743513	-47	99	15
14743841	-46	123	10
14744169	-24	142	-3
14744497	-15	146	-10
14744825	11	100	-16
14745153	-35	113	-13
14745481	-24	144	-6
14745809	-80	138	-28
14746137	-85	118	-32
14746465	-70	137	-33
14746793	-95	125	-34
14747121	-87	92	-29
14747449	-73	124	-25
14747777	-72	170	-17
14748105	-59	132	-23
14748433	-83	119	-16
14748761	-74	156	-27
14749089	-68	163	-20
14749417	-98	130	-20
14749745	-116	130	-19
14750073	-108	166	-23
14750401	-142	150	-29
14750729	-175	146	-37
14751057	-152	135	-30
14751385	-160	146	-31
14751713	-175	169	-29
14752041	-160	161	-28
14752369	-143	122	-26
14752697	-64	162	-34
14753025	-70	163	-27
14753353	-64	119	-34
14753681	-52	119	-33
14754009	-20	145	-34
14754337	-16	145	-39
14754665	-11	106	-34
14754993	-42	87	-28
14755321	-37	187	-37
14755649	-30	218	-27
14755977	-77	101	-31
14756305	-74	85	-42
14756633	-65	122	-36
14756961	-81	143	-33
14757289	-115	147	-28
14757617	-134	82	-39
14757945	-121	94	-50
14758273	-108	154	-42
14758601	-87	114	-41
14758929	-94	84	-54
14759257	-90	131	-52
14759585	-83	95	-46
14759913	-75	89	-35
14760241	-85	120	-35
14760569	-90	113	-40
14760897	-78	124	-32
14761225	-64	132	-19
14761553	-97	127	3
14761881	-60	150	-6
14762209	-80	124	-13
14762537	-68	126	-17
14762865	-73	108	-7
14763193	-69	100	-7
14763521	-95	143	-9
14763849	-82	153	-24
14764177	-95	129	-21
14764505	-80	123	-16
14764833	-90	123	-22
14765161	-93	137	-4
14765489	-109	141	-15
14765817	-42	128	-9
14766145	-17	116	-21
14766473	-21	129	-12
14766801	7	120	-22
14767129	2	121	-17
14767457	-42	123	-17
14767785	-47	126	-5
14768113	-36	124	-23
14768441	-64	162	-17
14768769	-40	180	-11
14769097	-24	104	-29
14769425	-67	78	-27
14769753	-98	135	-25
14770081	-103	111	-27
14770409	-89	111	-24
14770737	-94	142	-23
14771065	-66	132	-31
14771393	-67	131	-27
14771721	-46	138	-29
14772049	-33	148	-25
14772377	-41	142	-24
14772705	-40	145	-26
14773033	-39	114	-36
14773361	-37	135	-36
14773689	-51	135	-34
14774017	-30	103	-34
14774345	-69	111	-45
14774673	-55	126	-31
14775001	-92	163	-19
14775329	-93	139	-33
14775657	-128	120	-20
14775985	-74	119	-24
14776313	-90	121	-17
14776641	-68	136	-16
14776969	-80	145	-12
14777297	-118	121	-10
14777625	-87	115	-17
14777953	-90	136	-23
14778281	-56	124	-14
14778609	-53	115	-23
14778937	-60	154	-18
14779265	-33	147	-18
14779593	-19	114	-23
14779921	-5	111	-8
14780249	-44	157	-18
14780577	-41	159	-16
14780905	-21	164	3
14781233	-55	133	12
14781561	-33	135	-1
14781889	-42	153	-1
14782217	-39	134	-6
14782545	-16	109	0
14782873	-15	132	22
14783201	0	157	18
14783529	-6	179	9
14783857	-21	153	-3
14784185	-37	153	3
14784513	-20	121	3
14784841	-50	185	0
14785169	-45	209	-7
14785497	-66	114	-22
14785825	-91	103	-31
14786153	-44	148	-32
14786481	-114	127	-35
14786809	-125	123	-45
14787137	-131	138	-59
14787465	-152	154	-63
14787793	-154	148	-72
14788121	-165	97	-77
14788449	-139	92	-64
14788777	-125	138	-80
14789105	-116	141	-58
14789433	-133	165	-77
14789761	-118	128	-70
14790089	-113	100	-67
14790417	-78	153	-64
14790745	-77	164	-68
14791073	-61	121	-59
14791401	-26	147	-43
14791729	-25	157	-45
14792057	-31	114	-40
14792385	-6	108	-22
14792713	-21	146	-35
14793041	-17	135	-11
14793369	-42	136	-17
14793697	-57	135	-13
14794025	-15	136	-11
14794353	-25	117	-20
14794681	0	147	-23
14795009	-4	110	-33
14795337	-48	71	-47
14795665	-48	107	-36
14795993	-7	154	-28
14796321	-38	212	-38
14796649	-20	117	-39
14796977	-1	63	-47
14797305	-4	130	-46
14797633	-26	148	-31
14797961	-26	138	-26
14798289	-48	136	-37
14798617	-15	81	-43
14798945	-12	107	-40
14799273	-1	154	-34
14799601	-21	119	-37
14799929	-75	58	-34
14800257	-59	78	-35
14800585	-38	107	-41
14800913	-17	90	-25
14801241	8	90	-42
