Time Stamp	Gyroscope X	Gyroscope Y	Gyroscope Z
RAW	RAW	RAW	RAW
no units	no units	no units	no units
11937395	-54	160	-38
11937723	-56	154	-45
11938051	-44	159	-43
11938379	-48	164	-44
11938707	-41	159	-24
11939035	-40	141	-39
11939363	-31	169	-45
11939691	-26	160	-41
11940019	-29	144	-43
11940347	-26	165	-37
11940675	-30	153	-42
11941003	-29	155	-43
11941331	-46	156	-44
11941659	-48	164	-35
11941987	-59	155	-39
11942315	-52	145	-41
11942643	-47	157	-57
11942971	-36	152	-43
11943299	-26	138	-54
11943627	-39	133	-41
11943955	-47	154	-38
11944283	-29	150	-46
11944611	-29	167	-47
11944939	-27	146	-29
11945267	-25	147	-40
11945595	-9	142	-36
11945923	-25	156	-44
11946251	-51	150	-43
11946579	-44	149	-43
11946907	-42	150	-49
11947235	-31	148	-48
11947563	-37	151	-51
11947891	-43	144	-49
11948219	-48	159	-52
11948547	-44	156	-51
11948875	-39	142	-44
11949203	-44	158	-40
11949531	-29	155	-43
11949859	-35	148	-40
11950187	-40	154	-45
11950515	-26	160	-48
11950843	-14	141	-50
11951171	-19	135	-54
11951499	-22	148	-43
11951827	-37	147	-51
11952155	-52	142	-55
11952483	-52	135	-62
11952811	-40	147	-43
11953139	-42	132	-43
11953467	-47	137	-46
11953795	-38	148	-57
11954123	-25	133	-51
11954451	-24	136	-51
11954779	-41	138	-58
11955107	-45	146	-62
11955435	-63	143	-44
11955763	-49	144	-48
11956091	-48	138	-52
11956419	-44	139	-49
11956747	-36	128	-39
11957075	-39	142	-41
11957403	-46	133	-41
11957731	-33	144	-56
11958059	-41	149	-58
11958387	-53	144	-46
11958715	-58	163	-41
11959043	-58	144	-38
11959371	-65	160	-48
11959699	-58	153	-38
11960027	-46	157	-38
11960355	-45	146	-43
11960683	-33	161	-46
11961011	-59	142	-39
11961339	-42	165	-28
11961667	-39	159	-36
11961995	-29	159	-30
11962323	-42	166	-34
11962651	-34	151	-32
11962979	-41	152	-39
11963307	-63	150	-46
11963635	-72	141	-29
11963963	-60	140	-37
11964291	-53	146	-42
11964619	-67	148	-34
11964947	-55	132	-30
11965275	-67	129	-36
11965603	-69	152	-32
11965931	-66	137	-35
11966259	-55	144	-41
11966587	-44	128	-40
11966915	-39	153	-45
11967243	-39	128	-38
11967571	-44	125	-47
11967899	-35	138	-32
11968227	-54	138	-38
11968555	-43	137	-50
11968883	-38	129	-43
11969211	-52	129	-40
11969539	-48	116	-34
11969867	-38	132	-33
11970195	-43	121	-33
11970523	-41	121	-36
11970851	-42	125	-38
11971179	-50	102	-36
11971507	-53	146	-33
11971835	-44	114	-33
11972163	-30	117	-37
11972491	-19	121	-22
11972819	-27	124	-26
11973147	-15	130	-41
11973475	-7	124	-27
11973803	-11	139	-27
11974131	-3	136	-22
11974459	-14	135	-28
11974787	-30	141	-34
11975115	-21	137	-32
11975443	-38	133	-41
11975771	-19	132	-30
11976099	-28	119	-32
11976427	-43	135	-30
11976755	-26	126	-30
11977083	-30	142	-30
11977411	-37	137	-21
11977739	-35	142	-28
11978067	-46	129	-21
11978395	-46	145	-27
11978723	-31	119	-16
11979051	-42	126	-25
11979379	-48	120	-33
11979707	-40	131	-35
11980035	-72	117	-17
11980363	-51	121	-20
11980691	-51	129	-21
11981019	-70	129	-33
11981347	-56	135	-22
11981675	-40	125	-19
11982003	-44	124	-21
11982331	-28	143	-27
11982659	-41	141	-26
11982987	-25	155	-28
11983315	-49	153	-28
11983643	-54	148	-20
11983971	-63	158	-29
11984299	-46	155	-29
11984627	-58	141	-26
11984955	-78	148	-22
11985283	-72	153	-23
11985611	-60	154	-13
11985939	-48	158	-14
11986267	-63	143	-17
11986595	-66	133	-22
11986923	-55	128	-21
11987251	-59	129	-24
11987579	-62	129	-21
11987907	-46	129	-19
11988235	-57	128	-20
11988563	-64	138	-25
11988891	-71	138	-26
11989219	-64	132	-21
11989547	-62	121	-26
11989875	-46	134	-13
11990203	-76	146	-10
11990531	-86	110	-29
11990859	-52	125	-24
11991187	-70	113	-22
11991515	-68	130	-22
11991843	-72	118	-4
11992171	-74	127	-13
11992499	-71	126	-15
11992827	-90	138	2
11993155	-86	121	-8
11993483	-58	129	-11
11993811	-55	127	-16
11994139	-57	126	0
11994467	-66	122	-5
11994795	-71	121	-2
11995123	-67	114	1
11995451	-53	120	-4
11995779	-51	115	1
11996107	-82	114	1
11996435	-76	117	10
11996763	-71	136	13
11997091	-66	109	-2
11997419	-70	108	-2
11997747	-82	133	12
11998075	-108	111	12
11998403	-97	114	-8
11998731	-99	115	19
11999059	-77	110	18
11999387	-74	121	15
11999715	-70	112	19
12000043	-87	107	22
12000371	-88	111	33
12000699	-76	97	26
12001027	-64	91	27
12001355	-74	91	38
12001683	-73	97	47
12002011	-81	101	43
12002339	-76	89	37
12002667	-84	80	43
12002995	-69	80	58
12003323	-90	96	51
12003651	-95	90	51
12003979	-108	95	54
12004307	-104	88	48
12004635	-95	101	57
12004963	-107	104	64
12005291	-102	95	68
12005619	-89	107	77
12005947	-90	102	79
12006275	-69	92	75
12006603	-75	101	73
12006931	-86	94	80
12007259	-102	86	93
12007587	-126	105	89
12007915	-135	120	103
12008243	-153	108	100
12008571	-148	107	101
12008899	-133	123	113
12009227	-150	131	112
12009555	-164	128	113
12009883	-156	117	124
12010211	-153	130	113
12010539	-146	108	118
12010867	-132	117	132
12011195	-112	115	127
12011523	-91	114	130
12011851	-56	117	133
12012179	-60	126	141
12012507	-70	109	124
12012835	-79	130	131
12013163	-92	116	127
12013491	-99	112	124
12013819	-90	108	134
12014147	-97	113	127
12014475	-89	109	124
12014803	-88	113	112
12015131	-98	106	117
12015459	-99	109	107
12015787	-123	82	99
12016115	-98	111	93
12016443	-86	89	97
12016771	-71	111	83
12017099	-81	106	69
12017427	-82	93	74
12017755	-74	110	72
12018083	-91	98	66
12018411	-105	111	71
12018739	-112	115	60
12019067	-105	118	62
12019395	-86	92	57
12019723	-88	122	56
12020051	-107	122	62
12020379	-117	107	56
12020707	-113	111	58
12021035	-104	104	61
12021363	-103	110	57
12021691	-98	115	49
12022019	-101	104	34
12022347	-93	106	57
12022675	-63	103	50
12023003	-58	110	43
12023331	-64	111	49
12023659	-57	113	51
12023987	-59	112	68
12024315	-43	111	44
12024643	-55	120	52
12024971	-78	108	47
12025299	-79	128	60
12025627	-83	126	52
12025955	-109	108	45
12026283	-99	104	53
12026611	-91	120	39
12026939	-96	111	44
12027267	-75	120	49
12027595	-90	129	48
12027923	-85	138	30
12028251	-88	125	46
12028579	-101	131	53
12028907	-94	142	49
12029235	-104	165	58
12029563	-103	144	49
12029891	-104	152	53
12030219	-101	157	63
12030547	-124	178	55
12030875	-106	166	65
12031203	-127	162	79
12031531	-113	207	80
12031859	-104	150	60
12032187	-76	142	48
12032515	-74	160	51
12032843	-85	195	60
12033171	-103	185	63
12033499	-100	163	44
12033827	-86	152	38
12034155	-78	166	48
12034483	-94	161	37
12034811	-75	177	58
12035139	-74	177	50
12035467	-42	168	49
12035795	-37	174	47
12036123	-22	170	38
12036451	-12	175	33
12036779	-35	178	43
12037107	-41	192	38
12037435	-56	189	37
12037763	-59	177	47
12038091	-61	193	37
12038419	-65	193	28
12038747	-75	213	39
12039075	-81	190	41
12039403	-89	189	36
12039731	-82	194	20
12040059	-85	211	31
12040387	-82	206	27
12040715	-74	199	32
12041043	-89	205	20
12041371	-70	225	34
12041699	-84	215	23
12042027	-59	211	39
12042355	-52	200	24
12042683	-33	226	11
12043011	-57	199	6
12043339	-61	229	22
12043667	-81	210	16
12043995	-79	229	18
12044323	-74	228	6
12044651	-46	223	12
12044979	-25	209	12
12045307	-37	220	16
12045635	-42	227	2
12045963	-40	225	5
12046291	-36	203	-2
12046619	-19	216	-3
12046947	-7	230	8
12047275	-41	211	-10
12047603	-43	186	-22
12047931	-42	199	-11
12048259	-55	204	-27
12048587	-38	189	-24
12048915	-30	173	-34
12049243	-32	172	-27
12049571	-41	181	-30
12049899	-41	178	-37
12050227	-36	177	-34
12050555	-16	178	-34
12050883	-28	183	-37
12051211	-18	178	-49
12051539	-6	177	-38
12051867	7	183	-36
12052195	9	179	-48
12052523	-5	188	-42
12052851	5	202	-47
12053179	5	197	-44
12053507	-14	182	-44
12053835	1	187	-45
12054163	24	177	-44
12054491	16	199	-50
12054819	14	188	-39
12055147	10	180	-39
12055475	-4	198	-40
12055803	-5	187	-35
12056131	0	181	-33
12056459	-5	183	-43
12056787	7	195	-28
12057115	13	181	-41
12057443	11	177	-39
12057771	13	181	-34
12058099	21	177	-35
12058427	21	190	-32
12058755	21	166	-36
12059083	14	175	-30
12059411	-2	175	-37
12059739	-13	193	-35
12060067	-14	171	-40
12060395	-14	178	-26
12060723	-23	190	-29
12061051	-26	186	-31
12061379	-30	189	-25
12061707	-25	170	-26
12062035	-21	182	-37
12062363	-10	178	-27
12062691	3	186	-30
12063019	-14	176	-31
12063347	-29	190	-35
12063675	-24	209	-14
12064003	-38	186	-23
12064331	-47	192	-29
12064659	-36	193	-31
12064987	-42	201	-25
12065315	-46	217	-20
12065643	-63	212	-10
12065971	-79	221	-11
12066299	-63	211	-17
12066627	-44	209	-16
12066955	-14	202	-4
12067283	17	216	-4
12067611	-4	194	-14
12067939	-16	191	-17
12068267	-30	212	-10
12068595	-39	198	-5
12068923	-60	218	-17
12069251	-59	203	-19
12069579	-71	210	-14
12069907	-55	200	-17
12070235	-47	185	-13
12070563	-46	198	-7
12070891	-18	200	-9
12071219	-22	193	-5
12071547	-18	190	-20
12071875	-27	176	-17
12072203	-28	171	-19
12072531	-57	188	-17
12072859	-59	180	-24
12073187	-73	197	-21
12073515	-63	194	-13
12073843	-64	206	1
12074171	-82	193	-13
12074499	-74	223	2
12074827	-96	208	-8
12075155	-77	205	-8
12075483	-57	210	-5
12075811	-43	191	-4
12076139	-47	208	5
12076467	-67	196	5
12076795	-60	213	0
12077123	-52	201	-18
12077451	-62	200	-6
12077779	-66	189	-5
12078107	-70	207	-6
12078435	-74	208	-21
12078763	-78	200	-3
12079091	-99	213	-11
12079419	-70	202	-21
12079747	-52	195	-19
12080075	-58	211	-22
12080403	-73	208	-12
12080731	-76	194	-21
12081059	-74	200	-20
12081387	-47	202	-32
12081715	-37	202	-26
12082043	-16	203	-22
12082371	3	187	-30
12082699	33	179	-21
12083027	63	196	-22
12083355	68	170	-29
12083683	64	182	-23
12084011	20	190	-21
12084339	5	205	-26
12084667	5	196	-27
12084995	1	200	-27
12085323	-6	209	-18
12085651	-19	194	-23
12085979	-4	207	-27
12086307	-22	177	-30
12086635	-21	189	-35
12086963	-27	190	-43
12087291	-42	182	-34
12087619	-57	194	-42
12087947	-60	185	-49
12088275	-26	183	-37
12088603	-2	154	-45
12088931	12	163	-44
12089259	62	156	-42
12089587	59	160	-40
12089915	60	156	-39
12090243	30	161	-47
12090571	41	151	-40
12090899	54	149	-50
12091227	56	135	-65
12091555	51	141	-75
12091883	35	132	-68
12092211	38	142	-70
12092539	33	147	-69
12092867	18	150	-54
12093195	7	161	-65
12093523	7	142	-65
12093851	-9	154	-79
12094179	-11	136	-72
12094507	1	139	-77
12094835	-4	127	-53
12095163	-13	124	-72
12095491	-11	131	-70
12095819	-3	118	-80
12096147	-8	127	-69
12096475	-8	135	-83
12096803	-25	120	-75
12097131	-34	132	-74
12097459	-28	139	-85
12097787	-35	140	-73
12098115	-38	152	-68
12098443	-28	147	-82
12098771	-22	143	-65
12099099	-37	154	-63
12099427	-9	169	-64
12099755	-12	165	-76
12100083	-18	162	-63
12100411	-19	161	-76
12100739	-6	166	-55
12101067	-10	172	-46
12101395	-30	171	-62
12101723	-31	171	-60
12102051	-30	173	-68
12102379	-35	163	-70
12102707	-15	156	-71
12103035	-13	162	-69
12103363	-34	174	-68
12103691	-60	161	-68
12104019	-63	166	-68
12104347	-43	169	-74
12104675	-36	166	-55
12105003	-26	159	-61
12105331	-12	157	-65
12105659	-32	154	-58
12105987	-33	162	-60
12106315	-37	165	-62
12106643	-27	171	-69
12106971	-30	161	-68
12107299	-19	172	-65
12107627	-30	166	-56
12107955	-32	153	-58
12108283	-44	168	-44
12108611	-27	161	-44
12108939	-27	176	-56
12109267	-48	176	-43
12109595	-51	192	-43
12109923	-61	183	-42
12110251	-30	173	-49
12110579	-46	194	-35
12110907	-48	185	-34
12111235	-70	211	-43
12111563	-58	202	-25
12111891	-42	195	-29
12112219	-63	196	-23
12112547	-70	192	-34
12112875	-62	203	-30
12113203	-46	181	-33
12113531	-50	197	-27
12113859	-62	211	-35
12114187	-77	198	-40
12114515	-61	186	-34
12114843	-55	197	-31
12115171	-47	192	-32
12115499	-64	196	-39
12115827	-49	184	-27
12116155	-23	173	-28
12116483	-25	175	-32
12116811	-21	179	-46
12117139	-11	160	-40
12117467	-19	165	-41
12117795	-48	153	-40
12118123	-36	146	-37
12118451	-45	148	-37
12118779	-46	141	-43
12119107	-50	151	-49
12119435	-66	164	-49
12119763	-59	151	-44
12120091	-55	146	-49
12120419	-39	158	-52
12120747	-25	152	-36
12121075	-17	160	-50
12121403	-30	153	-37
12121731	-18	141	-49
12122059	-33	159	-41
12122387	-46	149	-44
12122715	-47	144	-50
12123043	-56	142	-44
12123371	-53	161	-44
12123699	-47	148	-38
12124027	-55	150	-45
12124355	-34	149	-46
12124683	-28	148	-47
12125011	-27	154	-47
12125339	-36	140	-48
12125667	-44	164	-47
12125995	-53	157	-43
12126323	-52	149	-49
12126651	-48	150	-40
12126979	-36	149	-50
12127307	-35	148	-44
12127635	-45	139	-48
12127963	-47	149	-41
12128291	-45	152	-48
12128619	-41	146	-49
12128947	-46	147	-52
12129275	-40	144	-40
12129603	-54	151	-51
12129931	-87	162	-47
12130259	-69	147	-43
12130587	-70	137	-36
12130915	-79	160	-37
12131243	-59	146	-37
12131571	-38	152	-36
12131899	-44	137	-37
12132227	-42	145	-35
12132555	-29	147	-32
12132883	-33	151	-24
12133211	-28	151	-35
12133539	-52	138	-19
12133867	-35	160	-27
12134195	-28	168	-18
12134523	-24	152	-13
12134851	-12	154	-13
12135179	-17	147	-21
12135507	-18	153	-15
12135835	-7	151	-22
12136163	-26	155	-15
12136491	-10	155	-19
12136819	-12	149	-22
12137147	-14	156	-25
12137475	-20	148	-21
12137803	-32	145	-23
12138131	-22	154	-20
12138459	-9	150	-14
12138787	-13	149	-15
12139115	-20	150	-18
12139443	-28	153	-17
12139771	-14	142	-24
12140099	-13	153	-14
12140427	-22	154	-14
12140755	-8	136	-20
12141083	-29	154	-19
12141411	-42	162	-19
12141739	-75	169	-32
12142067	-65	153	-28
12142395	-63	161	-16
12142723	-57	137	-29
12143051	-51	150	-15
12143379	-48	147	-16
12143707	-47	151	-17
12144035	-56	153	-18
12144363	-43	162	-23
12144691	-50	166	-17
12145019	-34	158	-20
12145347	-38	160	-13
12145675	-25	147	-3
12146003	-32	159	-15
12146331	-18	160	-16
12146659	-12	176	-3
12146987	-16	137	-17
12147315	-17	152	-15
12147643	-21	136	-27
12147971	-30	153	-13
12148299	-27	152	-6
12148627	-25	160	-21
12148955	-33	162	-11
12149283	-54	155	-23
12149611	-52	160	-11
12149939	-39	147	2
12150267	-11	144	-16
12150595	-17	145	-8
12150923	-36	145	-8
12151251	-30	139	-22
12151579	-50	144	-18
12151907	-40	132	-14
12152235	-52	142	-28
12152563	-39	134	-13
12152891	-52	134	-17
12153219	-55	157	-16
12153547	-60	147	-25
12153875	-57	152	-13
12154203	-41	151	-21
12154531	-55	160	-15
12154859	-76	148	-19
12155187	-80	148	-8
12155515	-80	165	-14
12155843	-55	163	-9
12156171	-65	178	-12
12156499	-60	149	-12
12156827	-66	154	-7
12157155	-41	165	-2
12157483	-34	164	-3
12157811	-59	154	-6
12158139	-52	168	-15
12158467	-67	166	0
12158795	-74	179	-3
12159123	-71	173	-8
12159451	-69	160	-5
12159779	-68	166	1
12160107	-56	161	4
12160435	-64	162	0
12160763	-64	180	9
12161091	-68	166	-2
12161419	-91	186	4
12161747	-98	190	7
12162075	-80	177	2
12162403	-75	173	1
12162731	-56	173	11
12163059	-42	173	14
12163387	-48	172	0
12163715	-55	169	3
12164043	-63	184	13
12164371	-56	169	16
12164699	-72	170	11
12165027	-51	165	26
12165355	-67	161	9
12165683	-67	152	9
12166011	-64	150	18
12166339	-65	152	13
12166667	-71	141	13
12166995	-60	174	11
12167323	-64	164	5
12167651	-58	168	11
12167979	-87	161	7
12168307	-62	181	14
12168635	-50	179	8
12168963	-50	156	11
12169291	-51	168	14
12169619	-46	166	25
12169947	-43	158	14
12170275	-56	159	3
12170603	-29	128	5
12170931	-46	167	13
12171259	-60	150	0
12171587	-58	177	20
12171915	-74	154	1
12172243	-47	133	3
12172571	-42	142	4
12172899	-31	151	6
12173227	-27	137	6
12173555	-54	134	-8
12173883	-70	140	-12
12174211	-51	143	2
12174539	-45	147	6
12174867	-58	132	-9
12175195	-56	144	-11
12175523	-52	137	-14
12175851	-51	120	-11
12176179	-49	129	-12
12176507	-34	142	0
12176835	-27	133	-10
12177163	-56	135	-4
12177491	-60	120	-12
12177819	-44	119	-9
12178147	-39	130	-13
12178475	-37	145	-8
12178803	-49	144	-14
12179131	-54	110	-9
12179459	-53	136	-13
12179787	-63	124	2
12180115	-58	142	-4
12180443	-74	135	-11
12180771	-52	132	-6
12181099	-77	146	-4
12181427	-74	136	-2
12181755	-49	130	-2
12182083	-50	122	-14
12182411	-25	129	-2
12182739	-26	135	10
12183067	-37	136	-10
12183395	-39	129	4
12183723	-46	130	-5
12184051	-36	137	-13
12184379	-31	134	-14
12184707	-32	130	-12
12185035	-46	134	1
12185363	-54	135	-2
12185691	-75	133	-9
12186019	-78	146	-7
12186347	-64	135	-9
12186675	-58	133	-7
12187003	-62	122	-13
12187331	-62	128	-3
12187659	-59	129	-18
12187987	-75	131	-15
12188315	-79	154	-4
12188643	-87	135	-10
12188971	-87	127	-3
12189299	-96	143	-6
12189627	-90	136	-10
12189955	-86	138	-16
12190283	-84	135	-7
12190611	-66	153	-12
12190939	-46	133	0
12191267	-61	126	0
12191595	-41	143	-12
12191923	-52	128	3
12192251	-34	128	-3
12192579	-42	138	2
12192907	-34	135	-5
12193235	-43	134	-5
12193563	-37	142	0
12193891	-53	139	-15
12194219	-62	138	-20
12194547	-54	134	-18
12194875	-79	142	-17
12195203	-80	123	-18
12195531	-85	125	-22
12195859	-69	118	-25
12196187	-45	124	-37
12196515	-48	116	-35
12196843	-36	109	-23
12197171	-39	121	-29
12197499	-27	121	-26
12197827	-19	137	-25
12198155	-39	110	-16
12198483	-29	147	-23
12198811	-42	135	-24
12199139	-58	136	-4
12199467	-70	144	-3
12199795	-74	143	-10
12200123	-75	159	-7
12200451	-90	165	15
12200779	-57	175	11
12201107	-67	181	20
12201435	-48	184	14
12201763	-39	188	24
12202091	-37	193	27
12202419	-34	194	25
12202747	-60	189	41
12203075	-53	216	33
12203403	-41	193	30
12203731	-38	201	21
12204059	-41	200	23
12204387	-40	192	28
12204715	-55	192	24
12205043	-39	198	36
12205371	-40	214	22
12205699	-57	175	6
12206027	-68	197	9
12206355	-65	185	6
12206683	-76	176	8
12207011	-86	173	-5
12207339	-83	179	-13
12207667	-76	176	-22
12207995	-61	159	-16
12208323	-92	171	-24
12208651	-79	166	-15
12208979	-72	152	-24
12209307	-91	170	-31
12209635	-97	169	-35
12209963	-92	155	-35
12210291	-93	149	-41
12210619	-75	150	-47
12210947	-78	150	-47
12211275	-88	138	-46
12211603	-87	162	-48
12211931	-81	141	-35
12212259	-94	152	-50
12212587	-86	154	-56
12212915	-74	151	-54
12213243	-69	139	-51
12213571	-65	153	-58
12213899	-68	132	-51
12214227	-73	149	-41
12214555	-59	143	-57
12214883	-45	145	-63
12215211	-43	131	-55
12215539	-41	135	-58
12215867	-30	131	-67
12216195	-32	131	-62
12216523	-52	143	-61
12216851	-62	129	-51
12217179	-38	144	-65
12217507	-27	126	-56
12217835	-7	128	-59
12218163	-45	132	-76
12218491	-42	116	-59
12218819	-23	123	-66
12219147	-25	129	-59
12219475	-34	109	-55
12219803	-20	109	-63
12220131	-1	96	-66
12220459	-26	116	-70
12220787	-24	105	-57
12221115	-23	108	-71
12221443	-12	111	-70
12221771	-5	111	-78
12222099	-18	104	-75
12222427	-26	101	-67
12222755	-24	99	-71
12223083	-7	98	-64
12223411	-1	112	-71
12223739	3	82	-72
12224067	4	86	-66
12224395	15	103	-80
12224723	3	100	-71
12225051	15	97	-74
12225379	17	100	-76
12225707	41	104	-81
12226035	23	102	-77
12226363	8	88	-74
12226691	11	92	-85
12227019	16	97	-83
12227347	11	88	-75
12227675	17	78	-81
12228003	17	91	-64
12228331	8	87	-87
12228659	27	73	-71
12228987	18	81	-79
12229315	23	79	-82
12229643	25	102	-96
12229971	5	100	-80
12230299	-11	99	-78
12230627	-25	103	-84
12230955	-46	118	-85
12231283	-46	99	-83
12231611	-31	112	-85
12231939	-37	118	-82
12232267	-33	128	-95
12232595	-27	126	-82
12232923	-43	128	-66
12233251	-56	134	-72
12233579	-81	132	-68
12233907	-79	149	-65
12234235	-87	149	-68
12234563	-79	152	-57
12234891	-19	139	-62
12235219	10	140	-51
12235547	8	142	-53
12235875	-22	130	-59
12236203	-43	168	-66
12236531	-42	154	-57
12236859	-23	160	-55
12237187	-6	152	-45
12237515	46	168	-43
12237843	67	206	-34
12238171	66	207	-38
12238499	71	204	-35
12238827	96	220	-32
12239155	62	225	9
12239483	104	358	11
12239811	164	307	26
12240139	93	424	55
12240467	31	433	93
12240795	12	465	102
12241123	60	496	128
12241451	117	552	156
12241779	222	550	188
12242107	312	569	207
12242435	406	580	254
12242763	406	581	282
12243091	479	587	289
12243419	523	609	275
12243747	515	587	272
12244075	479	596	262
12244403	518	561	273
12244731	581	512	277
12245059	642	416	244
12245387	811	403	237
12245715	949	308	231
12246043	950	217	174
12246371	922	178	142
12246699	981	61	190
12247027	1068	-25	177
12247355	1130	-31	89
12247683	1285	-176	5
12248011	1355	-278	-79
12248339	1377	-299	-166
12248667	1294	-269	-243
12248995	1082	-298	-370
12249323	875	-397	-487
12249651	576	-404	-656
12249979	317	-396	-810
12250307	133	-443	-885
12250635	-37	-437	-914
12250963	-62	-449	-939
12251291	-12	-499	-961
12251619	143	-549	-967
12251947	405	-585	-957
12252275	576	-613	-930
12252603	733	-585	-899
12252931	817	-560	-883
12253259	822	-533	-892
12253587	789	-484	-897
12253915	721	-342	-907
12254243	615	-271	-892
12254571	420	-90	-876
12254899	261	-4	-828
12255227	146	-35	-801
12255555	96	54	-789
12255883	31	106	-742
12256211	53	63	-710
12256539	148	62	-712
12256867	230	81	-728
12257195	327	63	-731
12257523	230	121	-721
12257851	167	95	-700
12258179	133	73	-710
12258507	52	92	-711
12258835	19	122	-688
12259163	47	111	-680
12259491	79	118	-682
12259819	152	78	-660
12260147	219	92	-630
12260475	251	112	-605
12260803	240	153	-557
12261131	126	173	-493
12261459	-109	217	-425
12261787	-349	215	-371
12262115	-400	181	-322
12262443	-292	208	-260
12262771	-221	220	-216
12263099	-281	271	-176
12263427	-359	241	-147
12263755	-378	222	-142
12264083	-324	181	-135
12264411	-260	205	-112
12264739	-170	206	-85
12265067	-146	224	-75
12265395	-170	192	-69
12265723	-204	198	-54
12266051	-196	199	-38
12266379	-140	211	-21
12266707	-110	210	-18
12267035	-104	213	-5
12267363	-159	215	13
12267691	-178	169	35
12268019	-168	163	32
12268347	-114	137	42
12268675	-125	137	57
12269003	-137	56	42
12269331	-183	-1	33
12269659	-246	-59	27
12269987	-361	-57	5
12270315	-482	-90	-18
12270643	-541	-134	-31
12270971	-534	-167	-51
12271299	-541	-200	-72
12271627	-490	-228	-71
12271955	-424	-272	-92
12272283	-345	-288	-88
12272611	-290	-277	-68
12272939	-241	-229	-48
12273267	-306	-231	-13
12273595	-384	-196	6
12273923	-401	-197	53
12274251	-481	-190	116
12274579	-561	-139	169
12274907	-616	-136	198
12275235	-587	-167	209
12275563	-574	-124	231
12275891	-554	-134	242
12276219	-570	-102	268
12276547	-562	-86	299
12276875	-469	-73	335
12277203	-425	-55	348
12277531	-295	8	399
12277859	-163	105	406
12278187	-150	182	423
12278515	-286	329	446
12278843	-565	508	491
12279171	-771	679	492
12279499	-845	913	445
12279827	-977	1319	312
12280155	-1759	1813	179
12280483	-1728	1628	119
12280811	-1831	1256	127
12281139	-1355	988	224
12281467	-657	1130	325
12281795	-490	1484	459
12282123	-129	1363	532
12282451	-253	1322	589
12282779	-256	1352	613
12283107	-126	1258	660
12283435	-212	1309	602
12283763	-232	1369	547
12284091	-473	1390	546
12284419	-744	1379	525
12284747	-1023	1391	490
12285075	-1163	1314	429
12285403	-1296	1279	376
12285731	-1435	1352	334
12286059	-1756	1621	341
12286387	-2214	1840	401
12286715	-2747	1967	430
12287043	-3046	1799	382
12287371	-3044	1354	197
12287699	-2356	864	-70
12288027	-1758	-128	-376
12288355	-510	-1530	-847
12288683	818	-2185	-1064
12289011	1321	-1893	-935
12289339	1158	-856	-364
12289667	670	-147	333
12289995	139	-243	832
12290323	-347	-1181	606
12290651	-464	-1035	-868
12290979	176	-413	-588
12291307	673	-859	-293
12291635	623	-1444	-416
12291963	452	-1112	-607
12292291	373	-885	-690
12292619	347	-820	-675
12292947	98	-937	-668
12293275	-385	-840	-684
12293603	-479	-763	-647
12293931	-296	-664	-607
12294259	-95	-454	-539
12294587	69	-423	-467
12294915	137	-295	-430
12295243	317	-243	-342
12295571	430	-181	-312
12295899	516	-84	-267
12296227	477	-15	-197
12296555	352	3	-141
12296883	246	39	-137
12297211	238	44	-97
12297539	142	82	-91
12297867	48	75	-86
12298195	25	91	-76
12298523	-8	95	-75
12298851	9	94	-82
12299179	40	63	-88
12299507	72	73	-75
12299835	123	59	-44
12300163	221	62	-45
12300491	339	33	-48
12300819	463	72	-32
12301147	500	118	-12
12301475	515	104	-20
12301803	440	113	-9
12302131	347	127	-2
12302459	295	154	25
12302787	280	181	45
12303115	300	146	32
12303443	319	162	60
12303771	348	140	52
12304099	316	133	71
12304427	305	153	71
12304755	297	137	95
12305083	317	182	108
12305411	320	177	119
12305739	301	228	129
12306067	237	251	145
12306395	229	255	152
12306723	237	284	176
12307051	222	357	184
12307379	222	396	221
12307707	229	410	238
12308035	212	434	244
12308363	215	411	271
12308691	188	334	274
12309019	195	326	270
12309347	201	280	252
12309675	233	334	257
12310003	189	323	256
12310331	149	305	241
12310659	108	297	243
12310987	71	305	243
12311315	7	299	229
12311643	-18	316	220
12311971	-17	325	227
12312299	-12	337	246
12312627	-25	317	240
12312955	-29	279	226
12313283	44	223	201
12313611	44	260	195
12313939	-15	260	199
12314267	-46	262	194
12314595	-31	242	187
12314923	-52	244	166
12315251	-74	255	169
12315579	-73	248	162
12315907	-66	256	159
12316235	-46	223	143
12316563	-49	246	146
12316891	-54	213	154
12317219	-29	233	136
12317547	-26	210	135
12317875	-29	212	127
12318203	-28	218	113
12318531	-54	233	119
12318859	-65	236	120
12319187	-50	247	112
12319515	-64	250	119
12319843	-44	225	100
12320171	-27	233	109
12320499	-23	226	104
12320827	-28	231	107
12321155	-40	238	114
12321483	-30	253	99
12321811	-10	242	100
12322139	14	225	87
12322467	21	255	91
12322795	23	253	106
12323123	17	269	89
12323451	13	228	90
12323779	-1	240	76
12324107	29	219	80
12324435	-3	228	86
12324763	-18	225	82
12325091	-1	236	62
12325419	-5	224	63
12325747	-11	233	48
12326075	-36	240	33
12326403	-58	235	43
12326731	-69	251	40
12327059	-79	233	33
12327387	-59	221	24
12327715	-61	206	16
12328043	-55	207	9
12328371	-61	206	-2
12328699	-72	187	-11
12329027	-52	184	-14
12329355	-100	202	-6
12329683	-153	185	-19
12330011	-162	183	-12
12330339	-128	185	-17
12330667	-64	183	-24
12330995	-14	213	-27
12331323	-31	184	-34
12331651	-92	196	-35
12331979	-140	206	-32
12332307	-142	216	-35
12332635	-127	224	-32
12332963	-78	205	-21
12333291	-33	216	-30
12333619	8	209	-28
12333947	-14	213	-29
12334275	-44	196	-30
12334603	-85	215	-42
12334931	-105	203	-49
12335259	-104	184	-40
12335587	-101	196	-36
12335915	-75	204	-42
12336243	-11	185	-37
12336571	8	199	-32
12336899	32	204	-36
12337227	11	214	-26
12337555	1	210	-29
12337883	-26	215	-49
12338211	-24	215	-36
12338539	-19	207	-39
12338867	-33	206	-39
12339195	-15	219	-36
12339523	-22	216	-36
12339851	2	222	-47
12340179	28	223	-39
12340507	26	203	-22
12340835	25	225	-29
12341163	-2	235	-27
12341491	-30	213	-27
12341819	-26	222	-28
12342147	-28	210	-29
12342475	20	219	-46
12342803	46	219	-31
12343131	66	220	-36
12343459	57	211	-46
12343787	58	221	-46
12344115	66	218	-36
12344443	50	207	-39
12344771	75	198	-40
12345099	82	211	-38
12345427	50	212	-30
12345755	21	217	-47
12346083	47	205	-36
12346411	70	210	-31
12346739	67	215	-23
12347067	77	213	-30
12347395	75	216	-27
12347723	50	221	-25
12348051	64	224	-42
12348379	30	198	-45
12348707	21	205	-24
12349035	26	197	-34
12349363	22	216	-26
12349691	13	207	-29
12350019	-12	203	-30
12350347	-54	214	-22
12350675	-79	230	-22
12351003	-85	213	-16
12351331	-45	183	-12
12351659	-14	208	-2
12351987	-10	221	7
12352315	-26	212	1
12352643	-75	218	24
12352971	-74	225	15
12353299	-97	239	19
12353627	-91	217	19
12353955	-102	244	29
12354283	-71	240	23
12354611	-32	212	26
12354939	-34	222	18
12355267	-24	225	15
12355595	-27	216	31
12355923	-23	210	23
12356251	17	215	20
12356579	30	199	18
12356907	43	206	7
12357235	29	219	11
12357563	27	201	20
12357891	25	190	5
12358219	41	207	-1
12358547	69	188	7
12358875	72	194	3
12359203	51	185	-6
12359531	30	174	-12
12359859	39	159	-6
12360187	-11	153	-25
12360515	10	148	-25
12360843	9	160	-23
12361171	0	170	-21
12361499	-6	163	-20
12361827	7	187	-24
12362155	25	179	-29
12362483	55	183	-27
12362811	82	192	-12
12363139	117	235	-13
12363467	115	242	-1
12363795	106	258	8
12364123	257	296	21
12364451	272	380	25
12364779	282	424	35
12365107	303	471	71
12365435	270	543	110
12365763	198	639	151
12366091	134	736	160
12366419	145	689	186
12366747	176	770	171
12367075	226	816	208
12367403	132	960	285
12367731	194	1173	306
12368059	-63	1028	325
12368387	-38	1234	390
12368715	22	1284	489
12369043	119	1339	598
12369371	40	1440	724
12369699	-154	1493	714
12370027	-161	1517	778
12370355	-224	1835	951
12370683	-404	2109	1067
12371011	-439	2246	1212
12371339	-581	2271	1295
12371667	-640	2502	1367
12371995	-582	2603	1456
12372323	-356	2578	1515
12372651	-317	2770	1541
12372979	-473	2929	1632
12373307	-718	3266	1806
12373635	-1528	3819	2095
12373963	-1693	4242	2398
12374291	-1294	4019	2705
12374619	-582	4093	2840
12374947	421	4217	2961
12375275	1157	4140	3137
12375603	1463	4292	3191
12375931	1319	4435	3346
12376259	762	4246	3553
12376587	401	3983	3641
12376915	559	2704	3416
12377243	974	2084	3392
12377571	1443	1413	2864
12377899	2037	747	2711
12378227	2534	99	1578
12378555	1871	450	972
12378883	883	1486	-516
12379211	-891	1756	-1534
12379539	-2286	1189	-2792
12379867	-2891	603	-3797
12380195	-2592	-777	-3859
12380523	-2103	-2489	-2955
12380851	-1104	-2582	-2144
12381179	-553	-2683	-1963
12381507	-515	-4091	-1997
12381835	-1279	-5637	-2349
12382163	-1521	-6336	-2456
12382491	-1928	-7080	-1947
12382819	-3757	-7773	-2461
12383147	-4548	-8521	-2261
12383475	-6183	-9748	-2276
12383803	-7735	-7970	-2326
12384131	-14151	-5057	-2477
12384459	-11233	-4551	-3165
12384787	-8502	-7809	-3390
12385115	-5880	-3306	-1614
12385443	3150	-366	242
12385771	6062	-136	1318
12386099	6221	108	1637
12386427	5134	2380	1715
12386755	3604	1855	1764
12387083	846	770	1094
12387411	-871	546	688
12387739	-1319	341	553
12388067	-1665	260	98
12388395	-1033	-78	-350
12388723	-956	-492	-885
12389051	-730	-1189	-1483
12389379	-801	-1512	-1780
12389707	-1461	-1251	-2164
12390035	-2170	-956	-2568
12390363	-1567	-536	-2582
12390691	-720	168	-2078
12391019	-781	735	-1269
12391347	-666	509	-399
12391675	-277	658	222
12392003	-238	1157	814
12392331	55	643	896
12392659	12064	-603	1048
12392987	7633	1935	3250
12393315	3761	19219	2613
12393643	12777	19733	2240
12393971	2835	-5601	-2256
12394299	4754	-14603	-1656
12394627	5021	2323	-512
12394955	2305	17910	-1551
12395283	-4889	21076	-84
12395611	3941	-3057	5647
12395939	-8010	-13460	5117
12396267	3619	-6233	3676
12396595	1249	-2386	-1185
12396923	-2714	-4942	-3510
12397251	-1555	-7544	-1057
12397579	-5405	1680	2210
12397907	-667	11967	-706
12398235	-236	5930	-2964
12398563	3516	-8172	-2214
12398891	4472	-7634	-3274
12399219	5836	-3566	-2357
12399547	4347	-4724	-1464
12399875	1922	-5795	-1937
12400203	-457	-4555	-2358
12400531	-2026	-2566	-2036
12400859	-2244	-2505	-1709
12401187	-1357	-3048	-1559
12401515	-329	-3036	-1477
12401843	474	-2325	-1672
12402171	1696	-1474	-1696
12402499	2124	-407	-1409
12402827	2051	-91	-1094
12403155	1753	-288	-1270
12403483	1194	-1038	-1370
12403811	801	-1366	-1088
12404139	538	-1278	-871
12404467	282	-921	-656
12404795	37	-762	-579
12405123	-209	-666	-575
12405451	-79	-749	-548
12405779	-100	-642	-472
12406107	-786	-158	-297
12406435	-1554	-105	-238
12406763	-2272	-46	-238
12407091	-2490	30	-320
12407419	-2358	-98	-314
12407747	-1702	-129	-337
12408075	-979	16	-279
12408403	-50	-9	-299
12408731	544	-15	-266
12409059	905	32	-236
12409387	1049	16	-218
12409715	1072	61	-194
12410043	992	62	-192
12410371	732	105	-131
12410699	565	119	-139
12411027	388	129	-140
12411355	192	63	-183
12411683	28	1	-165
12412011	-87	71	-142
12412339	-189	127	-79
12412667	-267	177	-46
12412995	-393	163	-79
12413323	-430	162	-94
12413651	-415	178	-74
12413979	-411	112	-75
12414307	-466	108	-56
12414635	-472	127	-58
12414963	-404	122	-86
12415291	-305	101	-89
12415619	-178	88	-106
12415947	-22	138	-140
12416275	115	75	-143
12416603	212	88	-175
12416931	295	108	-199
12417259	391	71	-200
12417587	445	133	-216
12417915	436	61	-230
12418243	438	93	-230
12418571	353	122	-222
12418899	322	97	-227
12419227	297	138	-228
12419555	284	136	-224
12419883	223	152	-233
12420211	136	116	-205
12420539	66	129	-202
12420867	15	121	-189
12421195	-45	132	-183
12421523	-54	164	-149
12421851	-52	156	-130
12422179	-41	142	-115
12422507	25	149	-136
12422835	100	113	-135
12423163	138	177	-145
12423491	170	207	-127
12423819	169	185	-127
12424147	208	154	-131
12424475	232	165	-140
12424803	267	226	-142
12425131	284	209	-140
12425459	275	190	-143
12425787	214	206	-134
12426115	172	201	-117
12426443	142	179	-148
12426771	164	190	-149
12427099	179	208	-130
12427427	169	198	-143
12427755	183	176	-142
12428083	189	145	-149
12428411	185	150	-125
12428739	137	155	-129
12429067	133	156	-113
12429395	125	170	-132
12429723	153	159	-126
12430051	151	185	-134
12430379	119	207	-129
12430707	89	205	-106
12431035	92	221	-111
12431363	50	226	-119
12431691	42	179	-107
12432019	40	187	-125
12432347	33	176	-124
12432675	17	203	-135
12433003	13	176	-112
12433331	-51	207	-140
12433659	-69	225	-124
12433987	-126	207	-118
12434315	-102	210	-121
12434643	-39	222	-109
12434971	-4	236	-127
12435299	1	237	-111
12435627	-40	249	-115
12435955	-13	213	-125
12436283	-27	218	-113
12436611	-19	210	-121
12436939	-12	212	-105
12437267	0	216	-115
12437595	-9	197	-115
12437923	-28	177	-109
12438251	-38	186	-108
12438579	-68	193	-96
12438907	-73	187	-99
12439235	-36	187	-88
12439563	-26	179	-89
12439891	-11	184	-80
12440219	9	173	-75
12440547	11	156	-72
12440875	-3	180	-64
12441203	2	172	-53
12441531	3	179	-61
12441859	25	159	-47
12442187	11	160	-43
12442515	1	166	-58
12442843	-11	166	-42
12443171	-24	164	-31
12443499	-6	170	-33
12443827	-11	170	-33
12444155	-11	161	-29
12444483	-13	183	-27
12444811	-32	175	-24
12445139	-17	175	-13
12445467	-8	164	-14
12445795	5	139	-11
12446123	8	150	-16
12446451	21	136	-28
12446779	-19	129	-19
12447107	1	138	-8
12447435	-21	131	-30
12447763	-22	134	-19
12448091	2	128	-12
12448419	-17	142	-19
12448747	2	137	-16
12449075	1	140	-8
12449403	4	140	-10
12449731	22	149	-19
12450059	-8	151	-15
12450387	-33	144	-3
12450715	-21	160	-9
12451043	-37	149	-4
12451371	-36	140	-5
12451699	-17	149	-10
12452027	-18	135	-3
12452355	-13	143	-10
12452683	5	125	2
12453011	-9	150	-6
12453339	-44	158	16
12453667	-26	141	4
12453995	-36	158	-3
12454323	-49	142	6
12454651	-20	173	3
12454979	-11	174	26
12455307	26	170	19
12455635	13	160	8
12455963	13	165	20
12456291	24	148	25
12456619	4	174	30
12456947	6	157	35
12457275	22	186	45
12457603	29	180	39
12457931	55	176	44
12458259	56	188	56
12458587	53	199	53
12458915	33	173	58
12459243	36	131	51
12459571	41	108	42
12459899	29	135	33
12460227	25	156	44
12460555	18	153	38
12460883	-27	122	41
12461211	-19	112	36
12461539	-15	122	33
12461867	-18	132	33
12462195	-10	126	34
12462523	2	115	31
12462851	32	141	22
12463179	33	144	32
12463507	4	133	38
12463835	5	145	44
12464163	-1	120	28
12464491	-34	134	30
12464819	-54	111	26
12465147	-41	143	43
12465475	-64	154	29
12465803	-89	151	33
12466131	-93	158	29
12466459	-78	139	29
12466787	-40	141	30
12467115	-37	154	24
12467443	-32	159	17
12467771	-43	140	-3
12468099	-62	134	6
12468427	-51	121	15
12468755	-52	127	11
12469083	-42	156	15
12469411	-42	135	9
12469739	-62	139	4
12470067	-83	154	0
12470395	-111	143	9
12470723	-127	139	12
12471051	-145	139	11
12471379	-154	144	22
12471707	-130	159	19
12472035	-73	109	13
12472363	-113	130	15
12472691	-89	132	5
12473019	-87	135	12
12473347	-75	140	10
12473675	-92	135	10
12474003	-111	145	3
12474331	-104	132	-1
12474659	-124	129	12
12474987	-139	143	3
12475315	-145	159	4
12475643	-145	161	18
12475971	-139	160	20
12476299	-134	159	11
12476627	-147	166	21
12476955	-129	161	26
12477283	-121	136	12
12477611	-87	133	4
12477939	-97	171	12
12478267	-118	155	13
12478595	-129	130	14
12478923	-131	157	22
12479251	-128	162	22
12479579	-59	136	10
12479907	-68	156	20
12480235	-53	160	10
12480563	-58	121	23
12480891	-97	142	10
12481219	-107	148	14
12481547	-69	161	12
12481875	-71	146	24
12482203	-92	142	18
12482531	-86	168	12
12482859	-107	164	23
12483187	-111	137	6
12483515	-98	149	13
12483843	-77	178	32
12484171	-61	158	20
12484499	-69	151	10
12484827	-97	150	9
12485155	-105	162	25
12485483	-93	155	22
12485811	-94	173	16
12486139	-82	160	31
12486467	-69	184	25
12486795	-76	179	29
12487123	-85	162	29
12487451	-76	163	22
12487779	-85	162	25
12488107	-51	162	27
12488435	-52	155	0
12488763	-57	159	24
12489091	-45	161	18
12489419	-52	146	14
12489747	-50	137	1
12490075	-41	161	8
12490403	-68	145	9
12490731	-46	137	12
12491059	-33	148	13
12491387	-14	141	-1
12491715	-26	145	10
12492043	-47	141	7
12492371	-36	150	5
12492699	-45	155	0
12493027	-62	147	-5
12493355	-77	146	-10
12493683	-93	137	-2
12494011	-82	139	-1
12494339	-63	135	-3
12494667	-56	130	-8
12494995	-33	144	-15
12495323	-53	124	-15
12495651	-64	132	-8
12495979	-58	133	-15
12496307	-58	119	-14
12496635	-61	140	-18
12496963	-49	131	-9
12497291	-45	144	-7
12497619	-58	152	-24
12497947	-79	133	-11
12498275	-85	121	-7
12498603	-72	128	-15
12498931	-44	132	-18
12499259	-37	143	0
12499587	-48	135	-10
12499915	-48	131	-6
12500243	-75	141	-12
12500571	-71	146	-6
12500899	-65	120	-4
12501227	-62	121	-11
12501555	-52	136	-11
12501883	-45	135	-15
12502211	-54	126	-14
12502539	-47	127	-10
12502867	-45	119	-17
12503195	-57	112	-11
12503523	-54	123	-8
12503851	-48	121	-8
12504179	-54	127	0
12504507	-38	128	-8
12504835	-23	122	0
12505163	-15	146	5
12505491	-19	139	-18
12505819	-24	113	-6
12506147	-41	145	-10
12506475	-76	133	-4
12506803	-79	116	2
12507131	-81	129	-5
12507459	-55	118	-22
12507787	-71	127	-15
12508115	-56	126	-14
12508443	-73	127	1
12508771	-68	139	-19
12509099	-47	140	-9
12509427	-73	144	-23
12509755	-55	136	-11
12510083	-49	144	-6
12510411	-57	134	-13
12510739	-47	146	-9
12511067	-48	135	-9
12511395	-40	136	-10
12511723	-30	131	-10
12512051	-52	133	-2
12512379	-63	143	-19
12512707	-66	129	-13
12513035	-72	121	-14
12513363	-77	134	-13
12513691	-79	125	-8
12514019	-70	121	-21
12514347	-64	125	-9
12514675	-78	133	-24
12515003	-90	140	-19
12515331	-90	120	-17
12515659	-97	138	-25
12515987	-89	136	-16
12516315	-78	148	-17
12516643	-84	135	-22
12516971	-69	135	-19
12517299	-104	147	-14
12517627	-95	155	-9
12517955	-110	142	-10
12518283	-89	143	-20
12518611	-90	149	-16
12518939	-85	139	-21
12519267	-70	136	-29
12519595	-83	147	-25
12519923	-83	140	-17
12520251	-107	159	-28
12520579	-88	143	-28
12520907	-90	139	-28
12521235	-61	152	-34
12521563	-48	136	-19
12521891	-68	155	-35
12522219	-71	150	-39
12522547	-62	132	-37
12522875	-63	159	-38
12523203	-66	133	-37
12523531	-71	146	-36
12523859	-92	128	-34
12524187	-96	141	-35
12524515	-55	140	-30
12524843	-69	126	-40
12525171	-69	140	-31
12525499	-35	116	-38
12525827	-22	124	-34
12526155	-11	125	-29
12526483	-23	140	-28
12526811	-30	114	-27
12527139	-40	133	-39
12527467	-55	137	-47
12527795	-50	144	-36
12528123	-60	144	-38
12528451	-52	127	-29
12528779	-26	133	-45
12529107	-13	130	-47
12529435	18	143	-46
12529763	-4	146	-42
12530091	-6	149	-48
12530419	-19	138	-46
12530747	-29	149	-41
12531075	-34	145	-41
12531403	-19	133	-55
12531731	-3	147	-48
12532059	5	131	-55
12532387	2	136	-48
12532715	1	113	-44
12533043	-9	126	-51
12533371	-28	125	-70
12533699	-19	122	-54
12534027	-40	125	-48
12534355	-34	121	-59
12534683	-15	117	-54
12535011	-7	136	-58
12535339	8	116	-49
12535667	18	120	-55
12535995	26	128	-59
12536323	22	129	-55
12536651	30	128	-56
12536979	13	142	-58
12537307	18	126	-68
12537635	3	148	-56
12537963	4	138	-60
12538291	1	121	-57
12538619	-20	116	-58
12538947	-21	128	-58
12539275	-21	123	-55
12539603	-49	128	-54
12539931	-24	147	-65
12540259	-40	128	-54
12540587	-30	148	-53
12540915	-29	140	-65
12541243	-21	120	-72
12541571	-19	148	-75
12541899	-30	132	-54
12542227	-34	127	-64
12542555	-20	135	-66
12542883	-26	133	-63
12543211	-49	120	-51
12543539	-69	126	-54
12543867	-83	135	-62
12544195	-105	148	-51
12544523	-102	117	-58
12544851	-63	119	-55
12545179	-56	143	-56
12545507	-71	143	-49
12545835	-69	116	-46
12546163	-35	115	-51
12546491	-15	130	-57
12546819	-29	105	-53
12547147	-49	121	-52
12547475	-43	122	-59
12547803	-15	141	-54
12548131	-29	141	-63
12548459	-36	159	-48
12548787	-42	148	-50
12549115	-48	144	-55
12549443	-50	152	-59
12549771	-33	155	-51
12550099	-46	151	-46
12550427	-42	166	-58
12550755	-37	138	-65
12551083	-37	150	-59
12551411	-19	135	-51
12551739	-18	128	-52
12552067	-21	140	-63
12552395	-31	150	-56
12552723	-41	141	-64
12553051	-15	139	-64
12553379	-16	142	-64
12553707	-23	148	-51
12554035	-11	149	-56
12554363	-26	153	-70
12554691	-33	154	-58
12555019	-44	160	-65
12555347	-33	153	-47
12555675	-19	141	-60
12556003	-24	152	-61
12556331	-33	132	-55
12556659	-35	143	-61
12556987	-28	138	-42
12557315	-11	133	-57
12557643	-16	153	-54
12557971	-30	150	-48
12558299	-28	139	-55
12558627	-37	138	-65
12558955	-22	153	-49
12559283	-4	158	-53
12559611	-12	146	-55
12559939	-12	158	-45
12560267	-24	141	-46
12560595	-42	153	-48
12560923	-46	151	-53
12561251	-24	138	-50
12561579	-20	144	-38
12561907	-21	168	-58
12562235	3	149	-54
12562563	-6	154	-44
12562891	-29	148	-39
12563219	-20	160	-49
12563547	-17	148	-59
12563875	-15	151	-51
12564203	-12	145	-46
12564531	-17	137	-58
12564859	-21	162	-44
12565187	-51	144	-39
12565515	-49	139	-60
12565843	-39	151	-56
12566171	-21	139	-53
12566499	-7	141	-49
12566827	-32	132	-52
12567155	-31	127	-49
12567483	-20	145	-57
12567811	-13	149	-48
12568139	-11	156	-49
12568467	5	155	-40
12568795	-19	146	-54
12569123	-24	152	-56
12569451	-8	157	-51
12569779	19	156	-56
12570107	16	148	-43
12570435	-1	139	-61
12570763	-17	164	-54
12571091	-12	150	-48
12571419	-19	175	-41
12571747	-11	158	-47
12572075	-15	160	-53
12572403	-13	146	-56
12572731	-6	145	-52
12573059	-8	157	-48
12573387	-13	156	-49
12573715	-20	149	-54
12574043	-15	155	-64
12574371	-35	158	-49
12574699	-28	156	-53
12575027	-38	153	-54
12575355	-36	156	-55
12575683	-20	157	-62
12576011	-33	158	-63
12576339	-34	167	-64
12576667	-50	146	-65
12576995	-29	157	-59
12577323	-17	161	-49
12577651	0	141	-64
12577979	21	137	-48
12578307	10	146	-64
12578635	-4	156	-54
12578963	-6	161	-65
12579291	-20	158	-62
12579619	-35	153	-68
12579947	-29	173	-51
12580275	-32	157	-55
12580603	-25	159	-43
12580931	-28	177	-43
12581259	-23	176	-40
12581587	-23	170	-36
12581915	-5	142	-57
12582243	-12	140	-55
12582571	8	146	-39
12582899	-1	146	-43
12583227	-4	161	-51
12583555	-8	165	-38
12583883	-11	152	-43
12584211	-10	162	-44
12584539	0	175	-34
12584867	-6	162	-38
12585195	-16	161	-37
12585523	-30	170	-40
12585851	-54	161	-42
12586179	-48	169	-36
12586507	-52	153	-44
12586835	-83	156	-47
12587163	-82	161	-50
12587491	-85	158	-62
12587819	-86	148	-63
12588147	-66	143	-46
12588475	-71	144	-54
12588803	-80	154	-49
12589131	-86	159	-56
12589459	-95	164	-64
12589787	-101	162	-70
12590115	-128	184	-59
12590443	-142	188	-48
12590771	-130	193	-69
12591099	-111	194	-54
12591427	-104	201	-50
12591755	-63	221	-65
12592083	-18	234	-70
12592411	-51	283	-52
12592739	-36	353	-51
12593067	-98	343	-31
12593395	-127	394	-35
12593723	-59	408	-11
12594051	0	425	-11
12594379	69	538	7
12594707	80	518	5
12595035	99	512	-13
12595363	24	512	-3
12595691	6	448	-53
12596019	-25	319	-124
12596347	-51	309	-149
12596675	-155	349	-178
12597003	-253	293	-214
12597331	-243	226	-283
12597659	-191	161	-346
12597987	-128	145	-399
12598315	-53	131	-431
12598643	-5	73	-479
12598971	96	128	-527
12599299	181	142	-543
12599627	190	109	-595
12599955	231	96	-624
12600283	279	-14	-651
12600611	264	97	-634
12600939	333	170	-622
12601267	358	94	-623
12601595	391	94	-628
12601923	458	236	-637
12602251	347	343	-589
12602579	191	387	-521
12602907	282	429	-486
12603235	426	347	-488
12603563	627	280	-479
12603891	693	391	-423
12604219	641	326	-387
12604547	379	343	-328
12604875	117	491	-270
12605203	-119	528	-242
12605531	-13	366	-208
12605859	72	309	-212
12606187	79	291	-196
12606515	-15	416	-149
12606843	-263	417	-125
12607171	-383	503	-111
12607499	-272	538	-85
12607827	-320	519	-73
12608155	-418	602	-42
12608483	-644	530	15
12608811	-675	503	13
12609139	-622	530	51
12609467	-802	584	102
12609795	-962	735	106
12610123	-984	764	88
12610451	-917	698	103
12610779	-1035	752	95
12611107	-1001	807	105
12611435	-910	778	123
12611763	-765	715	127
12612091	-543	677	147
12612419	-557	666	156
12612747	-430	637	175
12613075	-426	569	217
12613403	-425	469	215
12613731	-403	494	246
12614059	-260	476	267
12614387	-273	440	272
12614715	-157	425	275
12615043	-112	407	317
12615371	-95	440	340
12615699	-66	368	370
12616027	-13	280	393
12616355	-64	312	371
12616683	104	209	395
12617011	152	130	425
12617339	128	161	446
12617667	112	147	471
12617995	132	76	487
12618323	238	-10	513
12618651	259	-129	551
12618979	343	-141	593
12619307	374	-209	613
12619635	331	-225	632
12619963	353	-204	675
12620291	280	-186	739
12620619	209	-272	782
12620947	169	-256	841
12621275	107	-210	890
12621603	119	-231	912
12621931	175	-228	966
12622259	141	-132	1037
12622587	212	-93	1090
12622915	155	-102	1125
12623243	90	-28	1199
12623571	-29	88	1282
12623899	-182	61	1360
12624227	-343	91	1421
12624555	-516	248	1541
12624883	-743	342	1653
12625211	-915	380	1735
12625539	-823	423	1769
12625867	-726	297	1785
12626195	-590	244	1800
12626523	-634	325	1859
12626851	-742	582	1956
12627179	-934	691	2036
12627507	-897	621	2053
12627835	-800	547	2089
12628163	-686	555	2102
12628491	-740	740	2200
12628819	-897	988	2313
12629147	-947	1089	2363
12629475	-870	1128	2381
12629803	-825	1231	2418
12630131	-680	1300	2446
12630459	-615	1347	2459
12630787	-546	1304	2521
12631115	-704	1428	2564
12631443	-743	1533	2756
12631771	-635	1523	3021
12632099	-407	1615	3138
12632427	-147	1647	3299
12632755	8	1584	3238
12633083	180	1623	3194
12633411	250	1639	3178
12633739	268	1635	3258
12634067	122	1613	3304
12634395	-404	1117	3596
12634723	-807	622	3587
12635051	-956	711	3546
12635379	-1800	1585	3266
12635707	-2184	2190	3449
12636035	-1525	958	3437
12636363	-970	-888	3301
12636691	767	-2069	3225
12637019	1062	-2412	3046
12637347	2154	-2982	3011
12637675	2285	-3046	2910
12638003	3067	-3508	2746
12638331	2753	-3785	2569
12638659	2577	-3669	2510
12638987	633	-3440	2211
12639315	-1025	-3558	2051
12639643	-2950	-3899	1666
12639971	-5005	-3916	1515
12640299	-7172	-3673	1181
12640627	-8259	-3411	748
12640955	-8102	-3599	362
12641283	-6747	-3841	-153
12641611	-5053	-4074	-674
12641939	-3290	-4106	-908
12642267	989	-3936	-388
12642595	2316	-2042	-449
12642923	735	156	-29
12643251	2568	196	-403
12643579	3704	-418	-709
12643907	5789	-854	-893
12644235	5031	-1357	-1151
12644563	611	971	-1997
12644891	-3350	1927	-2646
12645219	-5942	-356	-2618
12645547	-7337	1792	-2912
12645875	-6018	2325	-2646
12646203	-4424	1025	-2655
12646531	-2109	841	-2540
12646859	-587	1379	-2400
12647187	-323	1687	-2430
12647515	-375	1351	-2267
12647843	-371	1107	-2050
12648171	-594	825	-1904
12648499	-816	852	-1976
12648827	-566	683	-1952
12649155	-147	495	-1698
12649483	570	250	-1311
12649811	1529	312	-717
12650139	3174	217	-51
12650467	4764	-549	-39
12650795	5170	-238	-393
12651123	4810	460	-887
12651451	3923	636	-942
12651779	2555	662	-984
12652107	1317	270	-595
12652435	518	-92	-336
12652763	311	-244	-242
12653091	444	-265	-211
12653419	827	-329	-166
12653747	1440	-342	-159
12654075	1797	-346	-135
12654403	2001	-61	-95
12654731	1723	313	-129
12655059	1127	408	-143
12655387	389	580	-117
12655715	-423	821	-58
12656043	-957	852	-17
12656371	-955	922	41
12656699	-693	798	205
12657027	-169	910	338
12657355	36	816	630
12657683	280	927	809
12658011	402	1058	984
12658339	479	1170	1085
12658667	444	1255	1199
12658995	503	1517	1363
12659323	451	1612	1644
12659651	797	1490	1838
12659979	1176	1602	1994
12660307	1589	1821	2044
12660635	1932	1746	2062
12660963	2259	1634	2141
12661291	2297	1789	2265
12661619	2198	1945	2439
12661947	2179	2097	2794
12662275	2415	2403	3026
12662603	2448	2198	3293
12662931	2651	2098	3462
12663259	3216	2215	3546
12663587	3932	1732	3906
12663915	3445	1706	4105
12664243	2725	1485	4070
12664571	1706	985	4251
12664899	1062	713	4289
12665227	812	509	4334
12665555	793	139	4156
12665883	801	-237	3990
12666211	873	-846	3914
12666539	815	-1312	3572
12666867	433	-1841	3774
12667195	-656	-2440	3772
12667523	-2251	-3065	3882
12667851	-3588	-3969	4073
12668179	-4570	-4639	4164
12668507	-4673	-5103	4122
12668835	-4103	-5654	4056
12669163	-3474	-5868	3796
12669491	-2284	-5873	3281
12669819	-1195	-5392	2893
12670147	384	-5370	2417
12670475	1762	-5865	2245
12670803	2531	-5364	1894
12671131	3937	-5594	1635
12671459	6117	-6552	1332
12671787	7826	-6020	1157
12672115	10046	-4226	770
12672443	11494	-1642	231
12672771	11922	3013	-274
12673099	12174	5890	-1711
12673427	8381	4822	-3575
12673755	2886	2770	-5168
12674083	-1313	4120	-6540
12674411	-5313	6317	-6675
12674739	-9544	7502	-5919
12675067	-8873	5621	-4861
12675395	-7321	4318	-2780
12675723	-5185	3220	-1560
12676051	-2760	2401	101
12676379	57	3138	884
12676707	4256	-311	2162
12677035	8411	-2188	2124
12677363	12849	2330	525
12677691	13520	4055	334
12678019	11519	3338	-330
12678347	5701	3662	-192
12678675	526	1546	17
12679003	-3962	369	1576
12679331	-4972	800	912
12679659	-3632	660	33
12679987	-718	158	3
12680315	2763	7	453
12680643	4181	-870	294
12680971	3042	-337	297
12681299	1215	80	543
12681627	490	-1345	836
12681955	1067	-2552	1107
12682283	1589	-2386	1330
12682611	1509	-1706	1220
12682939	1126	-1750	808
12683267	496	-2078	283
12683595	-279	-2196	214
12683923	-1022	-2690	289
12684251	-1124	-3027	319
12684579	-947	-3436	420
12684907	757	-4191	350
12685235	1809	-4786	573
12685563	2738	-5078	779
12685891	3732	-6000	1236
12686219	4377	-6147	1901
12686547	5208	-5605	2151
12686875	5776	-5096	2721
12687203	5833	-5182	4018
12687531	6007	-4993	5214
12687859	6073	-5373	6397
12688187	6376	-5430	7262
12688515	6987	-5210	7529
12688843	7588	-4774	8105
12689171	7100	-3780	8387
12689499	5321	-2320	8962
12689827	3365	-1218	8704
12690155	2201	-1460	9340
12690483	2619	1017	9982
12690811	1808	5218	10271
12691139	-2144	5915	7686
12691467	26595	-2045	6714
12691795	3714	2677	5814
12692123	23729	2739	2817
12692451	17967	2879	-2948
12692779	13390	90	-6690
12693107	13426	-973	-9505
12693435	8564	-595	-11988
12693763	3689	-2767	-14174
12694091	2363	-3580	-14876
12694419	843	-4894	-15671
12694747	1078	-7533	-16579
12695075	2312	-10357	-17573
12695403	5546	-13835	-19205
12695731	8121	-16673	-20055
12696059	11159	-18432	-20175
12696387	14735	-20817	-19962
12696715	16837	-23721	-19459
12697043	19363	-26256	-18455
12697371	20390	-29196	-16787
12697699	16951	-32029	-13513
12698027	14822	-32408	-11330
12698355	13749	-30634	-7689
12698683	12643	-28784	-3806
12699011	12692	-26297	-1978
12699339	12989	-19522	-3264
12699667	15646	-15157	-2812
12699995	20249	-9049	1372
12700323	20381	-4526	5405
12700651	20003	-1531	7217
12700979	20664	-1102	8216
12701307	18604	4849	7693
12701635	22150	12464	9548
12701963	21295	17865	7745
12702291	17297	13091	5992
12702619	9910	5461	3213
12702947	5305	-1019	1798
12703275	1606	-868	140
12703603	-3319	21146	-1205
12703931	5983	21817	-9315
12704259	8072	-9627	3739
12704587	3809	-4160	7805
12704915	11836	3683	6342
12705243	7154	4894	3654
12705571	381	8826	-1287
12705899	-5523	12246	-1921
12706227	-4253	8945	-2136
12706555	-1898	6887	569
12706883	1549	3218	1908
12707211	4722	968	4758
12707539	8017	811	5854
12707867	9345	903	6235
12708195	8939	1729	5517
12708523	7548	3223	3713
12708851	5956	4955	1597
12709179	4940	3617	857
12709507	3776	1430	936
12709835	2681	414	726
12710163	1927	1220	890
12710491	1112	1335	813
12710819	511	1679	595
12711147	959	3013	329
12711475	1853	2538	-19
12711803	3161	612	-405
12712131	3855	-1177	-171
12712459	3450	-97	34
12712787	2399	806	93
12713115	1041	-24	-162
12713443	454	47	166
12713771	344	108	481
12714099	575	-540	806
12714427	852	-647	1121
12714755	1713	-829	1261
12715083	2045	-753	1008
12715411	2254	-119	435
12715739	1848	754	-20
12716067	1261	869	-449
12716395	104	101	-277
12716723	-1217	-263	123
12717051	-2481	-261	359
12717379	-3273	-152	345
12717707	-3135	38	222
12718035	-2278	-72	6
12718363	-1275	-609	12
12718691	-451	-894	64
12719019	339	-956	163
12719347	345	-1556	191
12719675	-113	-1577	96
12720003	-420	-1813	26
12720331	-964	-2386	-30
12720659	-1319	-2311	-101
12720987	-1800	-2472	-92
12721315	-2275	-2946	-124
12721643	-2289	-3356	-133
12721971	-1909	-3541	-116
12722299	-1818	-3283	-144
12722627	-1822	-3250	-297
12722955	-1819	-3499	-297
12723283	-1709	-3696	-322
12723611	-1869	-3769	-583
12723939	-2344	-3811	-549
12724267	-2328	-4465	-675
12724595	-2504	-5292	-1119
12724923	-2419	-5880	-1197
12725251	-2213	-6357	-1473
12725579	-2660	-6594	-1732
12725907	-3024	-7485	-2005
12726235	-3885	-7985	-2848
12726563	-5003	-8873	-3160
12726891	-6242	-9581	-3635
12727219	-7475	-9470	-4458
12727547	-8833	-7577	-5103
12727875	-12401	-6493	-6182
12728203	-12322	-9091	-6833
12728531	-14912	-9961	-6405
12728859	-12682	-8898	-3853
12729187	-11367	-5957	-782
12729515	-9140	-1183	1591
12729843	-8329	3806	3614
12730171	-5891	7685	4674
12730499	-3279	10475	6230
12730827	-1355	11186	8384
12731155	-2202	11199	8109
12731483	-4410	14335	9103
12731811	-9241	17611	7491
12732139	-10974	21180	7122
12732467	-14235	23722	7898
12732795	-16487	24269	7606
12733123	-16830	23237	7897
12733451	-15778	21309	8502
12733779	-14215	20222	8525
12734107	-13255	19741	8612
12734435	-11794	19752	7959
12734763	-10815	20260	6823
12735091	-10788	20685	5095
12735419	-12074	20784	3793
12735747	-13438	21474	1999
12736075	-16118	22621	308
12736403	-18985	23548	-885
12736731	-21438	23150	-1835
12737059	-24701	20897	-2091
12737387	-26493	18294	-2055
12737715	-27768	16024	-2071
12738043	-27642	14469	-1487
12738371	-26019	12466	-1994
12738699	-26060	12124	-1562
12739027	-24530	12057	-2526
12739355	-23497	11379	-2618
12739683	-21077	10355	-3506
12740011	-22107	9258	-4083
12740339	-20047	8719	-5623
12740667	-14287	7296	-6784
12740995	-21421	7864	-8571
12741323	-22146	8629	-9736
12741651	-21340	6467	-10111
12741979	-23948	5760	-10851
12742307	-22932	8715	-9659
12742635	-17685	10092	-8901
12742963	-15752	8700	-6749
12743291	-11470	6975	-5455
12743619	-9480	7054	-5314
12743947	-5991	6957	-3449
12744275	-2972	6816	151
12744603	-3134	452	1350
12744931	-4630	1481	881
12745259	914	6228	730
12745587	621	6521	-924
12745915	-1062	4927	-899
12746243	-2478	1911	-2306
12746571	-4786	1066	-419
12746899	-3508	1002	108
12747227	-2483	741	436
12747555	-354	647	465
12747883	2517	766	255
12748211	3865	-420	-80
12748539	4502	-878	112
12748867	4782	-1213	157
12749195	3576	-1341	-358
12749523	2139	-915	-1053
12749851	269	-1036	-1625
12750179	-1890	-1367	-2425
12750507	-1439	-1526	-2288
12750835	-1007	-1906	-2305
12751163	1616	-738	-2528
12751491	-663	1313	-3026
12751819	-980	2476	-3224
12752147	-1608	-69	-3738
12752475	-2341	-892	-4610
12752803	-5244	-324	-5179
12753131	-9058	-505	-5458
12753459	-12844	-895	-6284
12753787	-15766	792	-6618
12754115	-17808	2853	-6472
12754443	-20090	5205	-6010
12754771	-21214	7726	-4986
12755099	-20823	9124	-4172
12755427	-19633	10495	-2726
12755755	-18479	12032	-1197
12756083	-19380	14717	678
12756411	-17304	17303	1042
12756739	-15987	15801	3207
12757067	-12490	12781	6432
12757395	-9976	12100	7404
12757723	-8276	12250	8412
12758051	-7978	13108	9242
12758379	-6733	13494	9356
12758707	-7592	11936	9507
12759035	-7525	10212	8879
12759363	-7866	9465	7797
12759691	-8824	9346	6334
12760019	-9526	9952	4773
12760347	-10659	10771	3010
12760675	-12724	11900	227
12761003	-11807	12235	-2703
12761331	-13606	15264	-5672
12761659	-9198	15231	-11793
12761987	-5452	-269	-13903
12762315	-3469	-2836	-5860
12762643	-3895	1698	-7047
12762971	-4517	9464	-1433
12763299	-406	-4192	3446
12763627	-3016	-11318	5633
12763955	8862	-6717	5886
12764283	8847	-6268	3118
12764611	13021	-894	-569
12764939	13331	7256	-2789
12765267	11899	8456	-2505
12765595	5834	2913	-2037
12765923	747	-3556	710
12766251	-4489	-3488	1414
12766579	-4795	-105	911
12766907	-1348	1148	621
12767235	2070	1096	212
12767563	3762	1108	267
12767891	3165	600	411
12768219	1745	538	452
12768547	82	733	754
12768875	-159	1135	814
12769203	54	942	758
12769531	378	874	314
12769859	216	830	313
12770187	-1041	1303	468
12770515	-2012	1907	-124
12770843	-3198	3052	-872
12771171	-4821	3932	-2037
12771499	-6550	4392	-2007
12771827	-9657	4566	-2108
12772155	-11860	4994	-1235
12772483	-13482	5086	-897
12772811	-14421	6095	-294
12773139	-14914	7271	-131
12773467	-14961	7954	-389
12773795	-15992	8306	-1131
12774123	-18710	7880	-2762
12774451	-22143	6049	-4408
12774779	-26709	4620	-5309
12775107	-30662	2983	-4068
12775435	-32258	756	-1238
12775763	-29557	-1625	1071
12776091	-30405	-6463	2164
12776419	-21177	-12163	5478
12776747	-5746	-7130	9357
12777075	9933	-6116	8252
12777403	23640	-2975	4614
12777731	22481	11034	7268
12778059	20199	14723	11140
12778387	16839	1897	9850
12778715	1242	1637	5420
12779043	-4172	10654	2153
12779371	-1091	8761	2201
12779699	-2432	1633	387
12780027	-5216	-11308	-1424
12780355	-8200	-10983	-2151
12780683	-6931	-3141	183
12781011	-3674	2569	421
12781339	-324	-320	-261
12781667	1748	-2746	-531
12781995	2508	-2979	118
12782323	2357	-2546	803
12782651	1858	-1613	921
12782979	1110	104	1377
12783307	-23	221	1691
12783635	-585	-411	1752
12783963	-369	-187	1379
12784291	504	249	980
12784619	9	-311	368
12784947	-1315	-127	-226
12785275	-3158	823	-691
12785603	-4434	744	-1018
12785931	-4277	210	-1235
12786259	-3485	-59	-1122
12786587	-2236	97	-595
12786915	-1162	278	-181
12787243	-113	900	354
12787571	941	1779	639
12787899	2124	2193	1002
12788227	2805	2468	1396
12788555	2227	2840	1921
12788883	1291	3088	2344
12789211	1765	2390	2790
12789539	2968	-551	2537
12789867	4971	-2593	2562
12790195	6524	-3464	2281
12790523	7158	-3864	1639
12790851	7263	-3302	1092
12791179	7304	-2500	1096
12791507	7195	-1802	996
12791835	7137	-1977	1096
12792163	8242	-3174	684
12792491	9279	-5295	148
12792819	11210	-6873	-329
12793147	12240	-6975	-764
12793475	12623	-7057	-1495
12793803	11678	-6701	-1899
12794131	9703	-5803	-1504
12794459	7988	-6119	-1520
12794787	6529	-6968	-1419
12795115	5813	-6842	-1247
12795443	5454	-5951	-1307
12795771	5373	-6107	-1608
12796099	5058	-5572	-2144
12796427	4191	-3706	-3302
12796755	3383	-1396	-3687
12797083	1728	-678	-3665
12797411	-682	-588	-4547
12797739	-2618	64	-6083
12798067	-2823	256	-6394
12798395	-985	199	-6651
12798723	192	241	-6432
12799051	47	305	-5017
12799379	-2733	1026	-3721
12799707	-5430	3776	-1644
12800035	-3253	104	800
12800363	-4752	-5635	839
12800691	2994	-2083	-270
12801019	4089	578	-514
12801347	4978	87	-1393
12801675	2123	304	-1957
12802003	-2998	-42	-1201
12802331	-6407	-769	-1008
12802659	-3886	-1431	-1195
12802987	-377	-2407	-929
12803315	4521	-2779	-492
12803643	7196	-2868	8
12803971	7502	-2806	793
12804299	6722	-2723	1202
12804627	5422	-3485	1296
12804955	4717	-3696	1337
12805283	5610	-3555	1481
12805611	6506	-4080	1776
12805939	7056	-4749	2041
12806267	7216	-4914	2006
12806595	6930	-4623	2087
12806923	6320	-4466	2261
12807251	5663	-5197	3135
12807579	5681	-5248	3920
12807907	6029	-5428	4691
12808235	6611	-5723	5339
12808563	7634	-5161	5975
12808891	9065	-4057	6421
12809219	9722	-3359	6397
12809547	8404	-4140	6904
12809875	8517	-3428	8558
12810203	5973	-3044	9137
12810531	3824	-1603	9693
12810859	4011	-248	10314
12811187	7827	729	11676
12811515	7570	1942	12664
12811843	6027	348	12359
12812171	10801	-3998	10369
12812499	23997	-10982	10119
12812827	17755	-11129	8657
12813155	15073	-5927	5295
12813483	20666	-3476	2324
12813811	17255	-4023	-248
12814139	16776	-7729	-541
12814467	17175	-11917	-2981
12814795	13818	-12862	-4975
12815123	10604	-10799	-5309
12815451	9134	-11066	-6035
12815779	5683	-11655	-6701
12816107	5691	-13287	-7262
12816435	6914	-15697	-6937
12816763	7844	-18132	-7203
12817091	10372	-20421	-7852
12817419	12950	-22607	-8385
12817747	15889	-24206	-8119
12818075	18443	-25904	-7537
12818403	19753	-27848	-7365
12818731	21180	-29301	-6810
12819059	21202	-30146	-6049
12819387	21121	-30869	-5394
12819715	20362	-31750	-5895
12820043	17546	-30714	-5363
12820371	12970	-26799	-4214
12820699	12916	-21860	-2802
12821027	13675	-20519	-1186
12821355	11002	-19731	232
12821683	6044	-16393	1179
12822011	10455	-14271	4312
12822339	13766	-10849	5027
12822667	16701	-5859	4437
12822995	21281	-557	4851
12823323	26609	4318	5602
12823651	24054	9748	5904
12823979	18437	12515	5167
12824307	10642	11808	2423
12824635	630	7846	-749
12824963	-2166	3791	-1806
12825291	-6763	3634	-2001
12825619	-9306	5162	-1837
12825947	-8481	7788	-43
12826275	-9435	12195	1813
12826603	2545	13219	-2822
12826931	-7818	1936	-456
12827259	10630	-1813	4220
12827587	4670	3700	3509
12827915	10560	7643	3276
12828243	1736	8743	649
12828571	-5059	7248	-1269
12828899	-7481	5509	-956
12829227	-6919	3939	-1266
12829555	-6141	4429	116
12829883	-4188	5219	-304
12830211	-2546	3908	-292
12830539	-839	2306	-311
12830867	-733	2191	-566
12831195	-1647	3233	-951
12831523	-3016	4476	-1016
12831851	-4217	5020	-1288
12832179	-5713	4877	-1288
12832507	-6024	4635	-1534
12832835	-7377	4732	-2213
12833163	-7751	4846	-3021
12833491	-8959	5676	-3437
12833819	-10134	6111	-3097
12834147	-10765	5822	-2577
12834475	-10979	5841	-2063
12834803	-10191	6164	-1797
12835131	-8546	6775	-1559
12835459	-3944	7002	-1649
12835787	-2230	6874	-1668
12836115	-1599	7028	-1444
12836443	-1676	7144	-1213
12836771	-2389	7085	-880
12837099	-2777	6430	-435
12837427	-2355	5515	112
12837755	-1220	4491	1098
12838083	1137	2987	1872
12838411	4278	1539	2915
12838739	6621	952	3357
12839067	9605	2498	3343
12839395	12394	3733	2995
12839723	13581	3500	2083
12840051	13555	3806	680
12840379	12892	2836	-174
12840707	9386	1511	-1584
12841035	3709	505	-1606
12841363	-2841	3067	-435
12841691	-7750	4661	224
12842019	-9117	2509	31
12842347	-7513	1461	-942
12842675	-4085	2124	-682
12843003	-1004	2887	-467
12843331	1138	2980	-260
12843659	1989	2814	209
12843987	1172	2655	468
12844315	-523	2551	309
12844643	-2922	2650	113
12844971	-4749	2834	287
12845299	-5474	2602	549
12845627	-5444	2467	581
12845955	-4731	2944	779
12846283	-3904	3340	883
12846611	-3663	3254	987
12846939	-3488	3335	1020
12847267	-3748	3733	950
12847595	-4438	3865	929
12847923	-5389	4197	577
12848251	-6311	4099	-29
12848579	-7060	4008	-454
12848907	-7996	4296	-824
12849235	-8515	4433	-699
12849563	-8659	3927	-298
12849891	-8588	3501	24
12850219	-7694	3093	41
12850547	-6551	2559	321
12850875	-6711	2315	862
12851203	-6966	2980	1056
12851531	-7009	4134	1220
12851859	-7745	4611	2265
12852187	-7326	3478	3951
12852515	-8003	3001	4730
12852843	-8421	3791	4933
12853171	-7923	4614	5446
12853499	-7362	6196	7739
12853827	-5718	8015	8823
12854155	-3253	7706	9992
12854483	-1010	8014	10717
12854811	107	8382	10188
12855139	2876	6783	11080
12855467	357	1822	10514
12855795	1580	41	8556
12856123	8203	4104	6531
12856451	10458	7285	6302
12856779	11153	7907	4021
12857107	8243	4766	-567
12857435	4278	1994	-3434
12857763	9411	-871	-7508
12858091	12731	-4067	-11011
12858419	11808	-3767	-14344
12858747	13762	-6594	-16445
12859075	10657	-9060	-17160
12859403	4443	-11177	-13588
12859731	-1963	-16049	-9980
12860059	-4647	-19587	-9763
12860387	-4211	-23846	-9356
12860715	-3640	-27189	-9574
12861043	-238	-29572	-10723
12861371	5269	-31407	-12403
12861699	9868	-31192	-13564
12862027	12078	-31574	-13036
12862355	12703	-32367	-11490
12862683	13607	-32768	-11490
12863011	14315	-32768	-11053
12863339	17946	-23003	-3656
12863667	14672	-21206	-1604
12863995	14224	-23629	432
12864323	14986	-26036	-13
12864651	16420	-23225	3
12864979	22317	-16735	660
12865307	23030	-11370	2162
12865635	25058	-8386	3836
12865963	24228	-565	2922
12866291	20568	11376	-389
12866619	7062	14331	-3385
12866947	-10520	6796	-3617
12867275	-14744	11234	-2429
12867603	4555	27622	-3455
12867931	-23643	2970	-10983
12868259	24011	-11485	11294
12868587	2604	-454	18006
12868915	11126	-5888	10825
12869243	12380	-9060	4569
12869571	2309	7496	-1689
12869899	7714	17323	-3251
12870227	8962	8648	-2834
12870555	6995	733	-1494
12870883	4656	5886	-3737
12871211	-353	5995	-3126
12871539	-4260	3843	-1281
12871867	-5280	4635	-2054
12872195	-5986	6820	-1332
12872523	-4636	5849	-844
12872851	-3646	3076	-344
12873179	-1238	2882	-213
12873507	409	3589	-235
12873835	1937	3243	-89
12874163	2868	3236	-721
12874491	3464	1508	-600
12874819	2859	1333	-500
12875147	1861	1539	-526
12875475	478	1615	-997
12875803	-554	1543	-1400
12876131	-899	1497	-1265
12876459	-1062	1326	-1357
12876787	-1092	1152	-1186
12877115	-744	1018	-1013
12877443	-339	652	-806
12877771	244	334	-648
12878099	341	752	-555
12878427	349	962	-469
12878755	102	807	-379
12879083	64	781	-400
12879411	70	777	-289
12879739	355	402	-158
12880067	383	169	-17
12880395	667	110	84
12880723	804	78	122
12881051	1140	57	127
12881379	1286	113	22
12881707	1502	367	-31
12882035	1441	392	-87
12882363	1187	604	-69
12882691	1047	566	-144
12883019	825	647	-172
12883347	819	596	-266
12883675	1085	349	-317
12884003	884	561	-291
12884331	893	833	-318
12884659	934	1087	-401
12884987	838	1598	-480
12885315	770	1752	-537
12885643	493	1727	-406
12885971	292	1890	-354
12886299	97	2140	-433
12886627	-209	2425	-522
12886955	-435	2606	-568
12887283	-541	3041	-596
12887611	-692	3356	-580
12887939	-850	2787	-649
12888267	-988	2429	-647
12888595	-587	2519	-578
12888923	-358	2278	-727
12889251	-394	1737	-502
12889579	213	1412	-427
12889907	1036	1391	-205
12890235	1714	1149	118
12890563	2729	438	395
12890891	3439	-219	615
12891219	4439	-227	574
12891547	6472	-437	756
12891875	6806	-461	855
12892203	6836	-529	905
12892531	6478	-546	882
12892859	5928	-174	862
12893187	5492	-333	664
12893515	5119	-447	581
12893843	4688	-291	480
12894171	4402	-610	615
12894499	4333	-1175	817
12894827	4360	-1652	1294
12895155	5405	-1998	1779
12895483	7139	-3011	2538
12895811	8837	-3998	3627
12896139	11112	-5274	4803
12896467	13363	-6812	6123
12896795	14782	-8158	7546
12897123	16373	-8764	8835
12897451	17445	-9077	9826
12897779	18677	-8808	10411
12898107	20397	-9001	10132
12898435	21390	-9547	10471
12898763	21239	-9656	10726
12899091	20594	-9530	10650
12899419	18446	-9923	10440
12899747	16481	-10201	9986
12900075	15054	-8922	9258
12900403	14144	-8024	8628
12900731	14078	-7907	8158
12901059	13871	-7428	7706
12901387	12760	-6958	7308
12901715	11923	-6278	6876
12902043	10756	-6790	6684
12902371	10038	-7455	7733
12902699	9014	-7686	8936
12903027	8527	-7828	10299
12903355	10436	-9328	12417
12903683	12395	-10980	13363
12904011	14396	-9618	13923
12904339	15282	-7004	13972
12904667	15536	-6507	13838
12904995	14321	-5520	13239
12905323	11292	-3680	12439
12905651	5990	-1532	9684
12905979	13360	-8841	11145
12906307	23376	-15091	10738
12906635	12302	-12862	6762
12906963	22913	-5407	3196
12907291	21173	-1980	-437
12907619	16287	-3657	-2860
12907947	16818	-8542	-6610
12908275	12153	-11346	-8703
12908603	8711	-9295	-6766
12908931	7751	-9935	-7582
12909259	9329	-11591	-8557
12909587	10149	-12630	-9050
12909915	12240	-14603	-9065
12910243	14484	-16955	-9570
12910571	15711	-18876	-10568
12910899	18029	-21209	-10603
12911227	18787	-24074	-10013
12911555	20982	-25742	-8974
12911883	22140	-28032	-7729
12912211	22729	-30209	-6126
12912539	20538	-32069	-4450
12912867	19546	-32768	-2734
12913195	16724	-32768	-2248
12913523	14615	-32768	-3031
12913851	11042	-32768	-1657
12914179	14681	-26338	2470
12914507	13980	-17735	2874
12914835	15270	-12380	2370
12915163	22374	-11453	2522
12915491	26898	-11588	2470
12915819	31543	-5983	5284
12916147	27644	6477	5730
12916475	16580	14491	7312
12916803	12581	14340	4635
12917131	5165	7061	83
12917459	2168	4746	-733
12917787	-2692	9747	-2174
12918115	-3465	13014	-328
12918443	-6998	5886	-921
12918771	-7037	1353	-733
12919099	-4835	-2536	1489
12919427	-3060	-1425	3523
12919755	3016	12365	1441
12920083	4230	9434	-387
12920411	4926	6417	-2002
12920739	4984	5929	-1798
12921067	5247	4795	-725
12921395	3808	1546	1616
12921723	3238	-1873	3064
12922051	2781	-2021	3574
12922379	2718	-457	2963
12922707	3362	64	1637
12923035	3830	904	-17
12923363	5193	2968	-1564
12923691	4946	3469	-1517
12924019	4690	1276	-627
12924347	3550	-1030	57
12924675	2871	-1084	-17
12925003	2800	112	-193
12925331	2579	1020	-472
12925659	1525	828	-510
12925987	1308	-509	-807
12926315	300	-581	-237
12926643	108	-271	266
12926971	-3	-890	257
12927299	167	-960	71
12927627	959	-327	-87
12927955	1199	-316	-211
12928283	689	-816	-150
12928611	-67	-1058	60
12928939	-685	-1681	95
12929267	-725	-2144	22
12929595	-688	-2317	-32
12929923	-685	-2204	-153
12930251	-364	-2082	-458
12930579	-398	-2488	-600
12930907	-129	-2718	-660
12931235	56	-2972	-881
12931563	403	-3823	-844
12931891	893	-4801	-854
12932219	978	-4699	-1101
12932547	620	-4372	-1601
12932875	-268	-4364	-2252
12933203	-1359	-4274	-3037
12933531	-3362	-3763	-3682
12933859	-4418	-2837	-4323
12934187	-6715	-3216	-5253
12934515	-9416	-2695	-5568
12934843	-10469	-2736	-5378
12935171	-12213	-4316	-5402
12935499	-13568	-4319	-5501
12935827	-14704	-2550	-5291
12936155	-15546	-511	-4222
12936483	-15033	1683	-3209
12936811	-16997	3810	-2227
12937139	-21623	6797	-865
12937467	-30126	9924	-1265
12937795	-32768	13647	-929
12938123	-32768	13677	-235
12938451	-32768	15272	2106
12938779	-32768	19976	3862
12939107	-32709	23556	5422
12939435	-23038	20378	4943
12939763	-15059	13556	8060
12940091	-9479	5487	8859
12940419	-4057	5197	11600
12940747	-604	10787	11644
12941075	-38	14596	12283
12941403	-1097	14621	11200
12941731	-3204	13055	10784
12942059	-7198	12214	10447
12942387	-10231	10903	9638
12942715	-11456	9647	9469
12943043	-13320	9560	8067
12943371	-14006	11597	5123
12943699	-13855	15299	1344
12944027	-12264	16729	-4621
12944355	-11289	16132	-9886
12944683	-8314	12971	-10124
12945011	-8749	8291	-5403
12945339	-8739	3097	-4857
12945667	-9281	3698	-5795
12945995	-9423	10463	-4579
12946323	-2226	796	-2261
12946651	-5856	-9355	-1039
12946979	1308	-7400	166
12947307	814	-4098	-875
12947635	5837	620	-1556
12947963	3846	8245	1567
12948291	4733	448	770
12948619	8378	-1753	-502
12948947	10886	1250	-760
12949275	12149	2669	-816
12949603	10166	1636	-140
12949931	6348	344	-851
12950259	-282	-96	-2069
12950587	-4477	1941	-1222
12950915	-5290	3361	-1292
12951243	-4694	2310	-1328
12951571	-3320	2030	-1314
12951899	-2244	2220	-1289
12952227	-2465	2929	-919
12952555	-4239	3559	-649
12952883	-6120	4168	-926
12953211	-7060	4817	-1092
12953539	-7175	5361	-1252
12953867	-7218	5723	-1551
12954195	-7321	6079	-1491
12954523	-8179	6863	-1569
12954851	-9505	7351	-2064
12955179	-11191	7098	-2660
12955507	-13818	7430	-3596
12955835	-16769	9106	-4099
12956163	-20058	10555	-4836
12956491	-23635	10078	-5863
12956819	-27530	9707	-7468
12957147	-30459	11143	-9405
12957475	-32768	12969	-10327
12957803	-32768	11417	-9602
12958131	-32768	8823	-8973
12958459	-32768	7368	-6684
12958787	-32768	4750	-5841
12959115	-32768	3724	-5903
12959443	-27196	926	-6095
12959771	-20832	-4160	-2110
12960099	-11141	-9741	3133
12960427	4673	-14311	6880
12960755	10609	-15456	6457
12961083	9264	-10149	4250
12961411	11986	-2374	5605
12961739	6197	10136	10345
12962067	2776	8654	8479
12962395	1379	-891	8164
12962723	2395	553	9439
12963051	2608	4033	8209
12963379	985	4218	6290
12963707	31	3663	4273
12964035	2345	2912	1030
12964363	1163	1805	-1542
12964691	-4318	-4423	-1128
12965019	-6682	-6116	-1503
12965347	-4560	-3702	85
12965675	856	-2598	271
12966003	3107	-2524	338
12966331	2580	-1701	590
12966659	1648	-1860	1056
12966987	1927	-2271	1359
12967315	2518	-1863	1774
12967643	3526	-1370	1448
12967971	3006	-995	1238
12968299	2149	-869	785
12968627	1089	-746	634
12968955	-1	-555	685
12969283	-726	-614	577
12969611	-816	-1198	232
12969939	-537	-642	76
12970267	-125	-297	-289
12970595	-42	-109	-576
12970923	-340	484	-751
12971251	-859	1040	-394
12971579	-1559	949	-93
12971907	-1352	-13	7
12972235	-130	-1417	79
12972563	1261	-1234	29
12972891	2486	-326	92
12973219	3194	-495	292
12973547	3283	-1131	429
12973875	3271	-1544	351
12974203	3155	-1506	129
12974531	3103	-1340	-39
12974859	3040	-1270	-292
12975187	2752	-1162	-588
12975515	2522	-798	-931
12975843	2823	-548	-1439
12976171	3222	-580	-1688
12976499	3444	-739	-2284
12976827	2550	-137	-2862
12977155	907	1729	-3372
12977483	-211	3747	-3144
12977811	-592	3296	-2031
12978139	-1771	-68	-858
12978467	-347	-3290	-1683
12978795	1765	-1874	-2302
12979123	3554	-876	-1994
12979451	3734	274	-1868
12979779	2848	950	-1783
12980107	1525	292	-1720
12980435	1228	-1259	-1699
12980763	1580	-1563	-1358
12981091	2673	-1004	-1247
12981419	3897	-916	-1093
12981747	4495	-1454	-798
12982075	4393	-1505	-575
12982403	4057	-1641	-378
12982731	3879	-2249	-432
12983059	3151	-2593	-385
12983387	2856	-2241	-439
12983715	2671	-1773	-335
12984043	2173	-1665	-80
12984371	2202	-2056	122
12984699	2506	-2770	289
12985027	3204	-2896	299
12985355	3134	-2628	429
12985683	2993	-2344	753
12986011	2888	-2188	910
12986339	3325	-2310	1485
12986667	3962	-2714	1871
12986995	4554	-3141	2284
12987323	4953	-3462	2991
12987651	6067	-4175	3694
12987979	6934	-4950	4539
12988307	7587	-4952	5096
12988635	8858	-3972	5480
12988963	9215	-3064	6147
12989291	9901	-2379	6944
12989619	10380	-889	6771
12989947	8407	351	6398
12990275	5124	808	5824
12990603	2846	762	5481
12990931	596	-338	5935
12991259	-922	-1980	6124
12991587	-219	-1411	5832
12991915	1687	1731	5032
12992243	-3353	4037	3852
12992571	11540	-2578	3261
12992899	2562	-1685	2774
12993227	15816	2489	2856
12993555	10304	1191	3138
12993883	11493	-834	2233
12994211	13247	-1457	1577
12994539	15584	-1602	61
12994867	15672	-2292	-662
12995195	16474	-4172	-1945
12995523	14994	-5481	-3140
12995851	13478	-7402	-4275
12996179	12116	-9481	-5801
12996507	9389	-10768	-6722
12996835	6899	-11756	-7645
12997163	3788	-12478	-7975
12997491	1186	-12309	-7693
12997819	-1069	-11422	-7297
12998147	-3778	-10352	-6892
12998475	-3757	-11588	-6174
12998803	-3510	-12460	-5714
12999131	-1988	-11353	-5783
12999459	1340	-11460	-6291
12999787	4275	-12308	-6971
13000115	5919	-12218	-7577
13000443	6354	-12073	-7800
13000771	6021	-11686	-8277
13001099	5008	-11324	-8663
13001427	4154	-11176	-9075
13001755	4516	-11004	-9287
13002083	2149	-9827	-10500
13002411	406	-8254	-11733
13002739	-2554	-6895	-12161
13003067	-7446	-2925	-12258
13003395	-9796	270	-11987
13003723	-16577	2533	-11127
13004051	-20963	1600	-8185
13004379	-19539	2183	-5640
13004707	-18953	7337	-864
13005035	-11135	8521	1658
13005363	-2039	4986	9328
13005691	6347	739	17223
13006019	10928	4000	15678
13006347	18496	2226	11584
13006675	28821	-5772	11001
13007003	28595	-6786	10494
13007331	22797	-2333	4194
13007659	11296	8654	-4762
13007987	-1508	24631	1599
13008315	-11171	20078	5955
13008643	-8766	1752	4572
13008971	-6225	-8062	3946
13009299	-2022	494	2689
13009627	-215	7813	1733
13009955	1490	9737	2460
13010283	1797	6848	3167
13010611	-72	4631	3295
13010939	-3167	4317	3257
13011267	-5499	5190	3214
13011595	-6887	5707	3010
13011923	-6997	5275	2767
13012251	-6950	4600	2556
13012579	-6804	4148	2504
13012907	-6884	4510	2772
13013235	-6647	5353	3029
13013563	-6645	5376	3075
13013891	-6507	5214	3007
13014219	-5717	4797	3118
13014547	-5215	4512	3170
13014875	-5562	4773	3454
13015203	-6302	4335	3633
13015531	-6785	3696	3780
13015859	-6519	3369	4187
13016187	-5394	2186	4414
13016515	-3358	608	4614
13016843	-1201	-110	5206
13017171	407	235	5935
13017499	-345	565	5829
13017827	-3279	1070	5927
13018155	-5348	3391	6730
13018483	-5669	5362	7038
13018811	-4851	3430	7109
13019139	-1513	298	7544
13019467	3559	156	12270
13019795	3821	405	13507
13020123	2811	4230	14685
13020451	1468	6454	14387
13020779	3302	7709	14802
13021107	-672	2556	14037
13021435	5360	-3035	10341
13021763	7897	3217	9745
13022091	19382	5372	7164
13022419	21561	920	4147
13022747	14072	-992	1667
13023075	17955	-3297	-3381
13023403	14459	-4778	-7267
13023731	16341	-6425	-9578
13024059	10725	-10054	-11080
13024387	368	-12538	-11658
13024715	-3353	-11345	-9876
13025043	-6466	-11752	-10952
13025371	-4760	-13109	-10386
13025699	-874	-18070	-11536
13026027	3562	-23329	-13500
13026355	10838	-25643	-14666
13026683	14205	-27975	-15633
13027011	15060	-29108	-15479
13027339	17063	-29910	-15358
13027667	17525	-31765	-15373
13027995	17386	-32768	-13710
13028323	16060	-32307	-11785
13028651	12516	-30823	-9386
13028979	9939	-25082	-8322
13029307	10457	-20418	-5621
13029635	10400	-20396	-4403
13029963	12914	-22936	-3160
13030291	14886	-21014	-573
13030619	15784	-17701	1130
13030947	19665	-16293	2633
13031275	20183	-12212	3388
13031603	19767	-8651	4345
13031931	19237	-6629	4841
13032259	17885	1594	5069
13032587	13810	1629	5018
13032915	8168	549	4255
13033243	-99	387	3120
13033571	3956	1460	19
13033899	-2483	8610	-1682
13034227	-46	11587	2476
13034555	1051	-3602	6486
13034883	7636	-1010	1657
13035211	-1829	-2380	1349
13035539	6887	2838	28
13035867	2904	8820	520
13036195	4625	9024	1224
13036523	3433	5169	1368
13036851	4057	2699	1326
13037179	4129	3270	1599
13037507	2366	5535	1338
13037835	315	6378	677
13038163	-1162	7206	622
13038491	-590	6936	926
13038819	908	2203	2603
13039147	2675	-541	3537
13039475	3742	1048	4184
13039803	4238	943	3420
13040131	5340	-465	3381
13040459	5782	816	3320
13040787	5603	3453	3182
13041115	6433	3770	2183
13041443	6573	4615	890
13041771	5793	6915	-522
13042099	3250	6885	-1234
13042427	289	2766	-1229
13042755	-2521	1275	-1882
13043083	-4014	4166	-1834
13043411	-4828	5104	-2260
13043739	-4941	4439	-2007
13044067	-4631	3848	-2236
13044395	-3702	2895	-1906
13044723	-2549	2524	-1651
13045051	-1529	2774	-888
13045379	-94	2282	-481
13045707	474	1804	-283
13046035	743	1923	-191
13046363	781	1688	28
13046691	378	606	554
13047019	684	-122	797
13047347	1207	197	637
13047675	1686	1441	395
13048003	1621	1549	227
13048331	1350	1178	39
13048659	557	1415	-39
13048987	-72	1332	-112
13049315	-169	780	-181
13049643	-424	496	-327
13049971	-453	785	-368
13050299	-332	489	-365
13050627	-188	192	-324
13050955	-53	378	-393
13051283	277	206	-356
13051611	257	-75	-416
13051939	350	-285	-433
13052267	427	-333	-469
13052595	277	-2	-429
13052923	128	-303	-391
13053251	117	-577	-369
13053579	200	-258	-444
13053907	321	-247	-588
13054235	197	-463	-658
13054563	183	-320	-677
13054891	-9	-66	-682
13055219	-208	-55	-654
13055547	-285	-20	-682
13055875	-312	-46	-747
13056203	-295	-90	-778
13056531	-232	-63	-773
13056859	2	8	-767
13057187	89	179	-772
13057515	127	-9	-761
13057843	7	-109	-714
13058171	-9	52	-708
13058499	-42	-31	-674
13058827	78	-119	-618
13059155	256	-72	-634
13059483	334	-29	-590
13059811	369	-58	-603
13060139	186	207	-707
13060467	-26	246	-672
13060795	-19	158	-638
13061123	13	114	-623
13061451	98	69	-623
13061779	184	164	-651
13062107	296	320	-686
13062435	434	452	-660
13062763	627	402	-631
13063091	875	349	-637
13063419	958	357	-667
13063747	918	346	-702
13064075	887	430	-707
13064403	832	472	-692
13064731	864	482	-657
13065059	1003	535	-634
13065387	1003	518	-591
13065715	1052	527	-550
13066043	1105	581	-505
13066371	1235	650	-489
13066699	1366	796	-437
13067027	1562	821	-407
13067355	1683	718	-407
13067683	1790	795	-379
13068011	1899	845	-332
13068339	2003	874	-264
13068667	1998	1123	-162
13068995	2063	1172	-90
13069323	2213	1027	-46
13069651	2373	1067	32
13069979	2570	1094	104
13070307	2707	1126	215
13070635	2793	1139	387
13070963	2968	1174	550
13071291	3010	1281	689
13071619	3035	1387	839
13071947	3207	957	951
13072275	3406	385	987
13072603	3819	418	1051
13072931	4372	416	947
13073259	4863	190	816
13073587	4763	577	889
13073915	4693	394	1011
13074243	4821	-110	1108
13074571	4737	44	1261
13074899	4752	102	1301
13075227	4811	-27	1344
13075555	4976	-5	1385
13075883	5111	-78	1335
13076211	4968	101	1345
13076539	4713	99	1389
13076867	4285	-119	1370
13077195	3736	-52	1351
13077523	3095	135	1194
13077851	2479	319	988
13078179	2204	446	896
13078507	2408	-226	778
13078835	2194	-671	748
13079163	2245	-320	890
13079491	2296	-539	1022
13079819	2462	-906	1136
13080147	2702	-798	1288
13080475	3123	-839	1527
13080803	3392	-1241	1841
13081131	3818	-1538	2235
13081459	4366	-2236	2663
13081787	4776	-2544	3206
13082115	5991	-2806	3706
13082443	5965	-3090	4117
13082771	7095	-3094	4541
13083099	7221	-3660	4723
13083427	7706	-3528	4927
13083755	7912	-3492	4876
13084083	7270	-3753	4838
13084411	6471	-3293	4881
13084739	5590	-3528	4939
13085067	4643	-4432	4843
13085395	4174	-4323	4561
13085723	3781	-3701	4138
13086051	3369	-2822	3662
13086379	3121	-2158	2995
13086707	2730	-1072	2497
13087035	2053	-104	2095
13087363	1041	15	1571
13087691	-270	77	1277
13088019	-1535	-1064	961
13088347	-2627	-2767	527
13088675	-3116	-923	-170
13089003	-3444	433	-162
13089331	-3292	378	-35
13089659	-2790	-238	26
13089987	-1987	-874	13
13090315	-1237	-330	-82
13090643	-1087	143	-126
13090971	-1328	-325	61
13091299	-1347	-615	169
13091627	-1507	-1120	356
13091955	-1501	-1199	492
13092283	-1123	-1824	607
13092611	-948	-1084	660
13092939	-549	-1036	725
13093267	-114	-625	740
13093595	166	-824	707
13093923	293	-1237	795
13094251	308	-1280	845
13094579	222	-1217	920
13094907	154	-1216	935
13095235	-34	-1252	908
13095563	-121	-962	889
13095891	-375	-705	873
13096219	-589	-665	807
13096547	-593	-607	683
13096875	-796	-389	557
13097203	-901	-22	419
13097531	-959	-150	320
13097859	-862	-311	151
13098187	-689	102	39
13098515	-718	224	-12
13098843	-819	80	-40
13099171	-763	201	-77
13099499	-679	179	-34
13099827	-624	24	47
13100155	-556	117	45
13100483	-499	142	33
13100811	-409	215	14
13101139	-387	335	49
13101467	-353	223	108
13101795	-313	154	134
13102123	-269	154	142
13102451	-175	286	188
13102779	-182	429	209
13103107	-212	324	231
13103435	-236	365	266
13103763	-223	388	296
13104091	-166	193	332
13104419	-53	296	338
13104747	101	280	399
13105075	240	6	426
13105403	374	72	431
13105731	402	369	445
13106059	293	435	498
13106387	128	264	544
13106715	34	465	553
13107043	-23	312	546
13107371	17	-23	508
13107699	82	212	416
13108027	37	432	325
13108355	-91	250	293
13108683	-122	124	239
13109011	216	338	157
13109339	279	88	58
13109667	122	192	-60
13109995	-124	309	-113
13110323	-328	-73	-103
13110651	-273	-100	-27
13110979	-175	-46	52
13111307	-154	-318	114
13111635	-220	-122	116
13111963	-264	264	151
13112291	-198	58	288
13112619	64	-468	318
13112947	397	-1412	282
13113275	850	-1368	261
13113603	903	-812	393
13113931	756	-1279	566
13114259	551	-2020	523
13114587	449	-1782	540
13114915	350	-1502	607
13115243	191	-1951	701
13115571	51	-2376	804
13115899	-69	-2760	939
13116227	-276	-2829	1037
13116555	-596	-2815	1101
13116883	-509	-3285	1213
13117211	115	-4408	1490
13117539	683	-4462	1711
13117867	781	-4654	1934
13118195	824	-4755	2189
13118523	289	-5045	2393
13118851	169	-5363	2542
13119179	437	-5852	2650
13119507	1053	-6462	2795
13119835	1894	-6606	2813
13120163	2739	-6593	3130
13120491	3377	-6304	3606
13120819	4003	-5356	4267
13121147	4403	-4933	5122
13121475	5713	-5225	6052
13121803	7177	-6160	7521
13122131	8293	-8519	8698
13122459	8066	-10353	9910
13122787	8679	-10428	10505
13123115	9066	-10177	10648
13123443	9718	-10566	10483
13123771	10880	-11121	10112
13124099	11843	-11272	9544
13124427	12430	-10322	8078
13124755	14687	-9332	6156
13125083	18667	-9969	4685
13125411	15738	-5976	2728
13125739	18017	-1518	1215
13126067	15389	354	140
13126395	13284	-927	344
13126723	13084	-3827	-773
13127051	13211	-4078	-1925
13127379	12466	-2528	-2192
13127707	11609	-1718	-1468
13128035	11607	-3138	-1817
13128363	11934	-4148	-1328
13128691	12984	-4043	-1455
13129019	13975	-4890	-1717
13129347	15675	-6636	-2194
13129675	16256	-8575	-3395
13130003	17709	-9528	-3897
13130331	18541	-10654	-5196
13130659	19815	-11456	-5882
13130987	19936	-12663	-6491
13131315	19594	-13583	-6886
13131643	18702	-14723	-7287
13131971	17539	-15679	-7216
13132299	16315	-16829	-6950
13132627	15242	-17998	-6734
13132955	14208	-18927	-6704
13133283	12896	-19809	-6352
13133611	12253	-20559	-6326
13133939	11402	-21171	-6127
13134267	10092	-21263	-6102
13134595	9809	-20803	-6354
13134923	9811	-20023	-6722
13135251	10612	-19018	-6911
13135579	11544	-17535	-6745
13135907	11498	-15955	-6086
13136235	12106	-14133	-5012
13136563	11536	-13151	-3536
13136891	9369	-13470	-2151
13137219	6417	-13663	-431
13137547	4694	-12270	1179
13137875	4121	-9996	2318
13138203	4361	-8717	3101
13138531	5956	-7438	3174
13138859	8479	-5694	3284
13139187	10841	-3779	4027
13139515	12006	-2392	4892
13139843	11471	-765	5416
13140171	10802	1633	5751
13140499	9440	3102	5590
13140827	7557	3503	5265
13141155	5339	2947	5087
13141483	4628	2969	4681
13141811	3945	3832	3896
13142139	3162	3911	2830
13142467	2278	3678	2190
13142795	1505	3270	1743
13143123	1398	2563	1810
13143451	1369	2320	2309
13143779	2063	2795	2210
13144107	2232	2808	1993
13144435	2722	2793	2072
13144763	3174	3020	2031
13145091	3637	2983	2396
13145419	3241	2553	2152
13145747	2478	3030	2202
13146075	2126	3658	2057
13146403	1639	3820	1885
13146731	1123	3538	1820
13147059	1233	3061	1610
13147387	1347	2474	1340
13147715	1155	2619	1308
13148043	1227	3172	1304
13148371	948	2760	1150
13148699	667	2411	1125
13149027	477	2669	1003
13149355	304	2875	852
13149683	604	2338	796
13150011	1284	1660	780
13150339	893	2023	424
13150667	678	2593	452
13150995	566	2599	421
13151323	204	2194	462
13151651	321	2027	502
13151979	412	1827	373
13152307	657	1415	338
13152635	635	1047	85
13152963	459	1228	21
13153291	78	1601	175
13153619	-137	1522	259
13153947	-184	1405	317
13154275	249	1144	321
13154603	784	510	31
13154931	662	424	-9
13155259	358	1027	-17
13155587	137	289	175
13155915	-228	-354	286
13156243	-267	91	288
13156571	-167	748	336
13156899	-181	559	351
13157227	-11	183	338
13157555	85	518	325
13157883	126	657	312
13158211	117	358	287
13158539	176	239	258
13158867	106	119	203
13159195	149	-83	149
13159523	201	-58	64
13159851	278	39	102
13160179	267	-145	100
13160507	208	-110	147
13160835	126	-83	104
13161163	103	30	59
13161491	-53	187	-16
13161819	-103	20	-27
13162147	-138	-82	-33
13162475	-204	37	-95
13162803	-188	-93	-156
13163131	-148	-37	-197
13163459	-127	138	-204
13163787	-104	-28	-204
13164115	-100	-51	-197
13164443	-92	31	-183
13164771	-88	-50	-244
13165099	-174	150	-261
13165427	-317	213	-257
13165755	-381	-94	-238
13166083	-339	-112	-277
13166411	-275	16	-304
13166739	-249	27	-282
13167067	-281	65	-251
13167395	-305	169	-237
13167723	-339	104	-267
13168051	-330	123	-294
13168379	-313	105	-292
13168707	-311	-201	-258
13169035	-277	-55	-242
13169363	-191	102	-209
13169691	-136	25	-176
13170019	-167	-12	-113
13170347	-239	-120	-67
13170675	-282	-137	-81
13171003	-251	123	-86
13171331	-289	53	-9
13171659	-275	-9	30
13171987	-239	176	33
13172315	-177	138	23
13172643	-118	50	20
13172971	-84	175	23
13173299	-96	150	44
13173627	-55	142	75
13173955	-80	189	70
13174283	-117	286	148
13174611	-154	317	174
13174939	-115	451	180
13175267	-91	526	184
13175595	-1	545	160
13175923	6	662	130
13176251	-7	482	176
13176579	5	305	198
13176907	77	139	251
13177235	147	123	274
13177563	177	332	211
13177891	246	194	170
13178219	222	234	129
13178547	166	249	83
13178875	271	420	64
13179203	182	374	82
13179531	126	242	119
13179859	201	108	95
13180187	160	-14	74
13180515	91	288	64
13180843	29	336	56
13181171	54	283	70
13181499	79	346	89
13181827	214	343	85
13182155	195	169	81
13182483	249	158	50
13182811	140	104	32
13183139	-46	245	86
13183467	-52	251	163
13183795	-109	-32	219
13184123	-98	-66	247
13184451	-59	192	250
13184779	25	294	246
13185107	-27	385	278
13185435	62	319	267
13185763	356	-4	225
13186091	512	-135	234
13186419	457	-102	224
13186747	427	-210	252
13187075	444	-487	215
13187403	625	-787	151
13187731	592	-861	125
13188059	533	-817	103
13188387	447	-1143	93
13188715	526	-1535	73
13189043	574	-1525	10
13189371	628	-1435	-53
13189699	527	-1488	-159
13190027	447	-1588	-313
13190355	319	-1613	-402
13190683	246	-1682	-460
13191011	212	-2026	-564
13191339	239	-2385	-783
13191667	301	-2521	-913
13191995	343	-2515	-1064
13192323	269	-2552	-1175
13192651	68	-2705	-1252
13192979	-374	-3093	-1418
13193307	-660	-3427	-1553
13193635	-627	-3679	-1741
13193963	-320	-3904	-1974
13194291	-163	-3941	-2250
13194619	-422	-3901	-2379
13194947	-779	-3809	-2592
13195275	-1363	-4321	-2965
13195603	-1423	-4747	-3305
13195931	-1573	-4865	-3750
13196259	-1778	-4965	-4137
13196587	-1961	-5024	-4651
13196915	-2221	-5102	-5045
13197243	-2838	-5337	-5542
13197571	-3608	-5540	-5994
13197899	-4167	-5825	-6613
13198227	-4278	-6198	-7040
13198555	-5791	-5924	-7581
13198883	-7127	-6014	-7946
13199211	-9133	-5972	-8496
13199539	-9618	-5909	-8450
13199867	-12166	-6513	-7918
13200195	-13462	-6719	-7044
13200523	-14138	-6451	-5867
13200851	-14675	-4554	-4698
13201179	-14491	-2373	-3044
13201507	-13143	36	-1613
13201835	-11788	3257	-142
13202163	-11188	7100	1733
13202491	-11179	9177	3492
13202819	-11947	10496	5296
13203147	-12635	12131	6758
13203475	-11931	12544	7377
13203803	-10292	15104	7401
13204131	-9913	14141	8030
13204459	-9322	13046	7958
13204787	-9402	13544	7827
13205115	-8831	13602	8437
13205443	-8889	13152	8440
13205771	-8797	11817	8477
13206099	-9010	10786	8638
13206427	-8671	10860	8780
13206755	-8722	11354	8991
13207083	-8476	10260	8716
13207411	-8241	8946	8435
13207739	-7781	8643	7899
13208067	-7147	8680	7192
13208395	-6951	8086	6367
13208723	-6927	7316	5419
13209051	-6787	6687	4391
13209379	-6727	6091	3197
13209707	-7636	6017	2079
13210035	-8633	6471	988
13210363	-9797	6629	-326
13210691	-10998	6366	-1200
13211019	-12178	6021	-1863
13211347	-13338	5679	-2841
13211675	-14506	5920	-3828
13212003	-15233	6310	-4492
13212331	-15696	5974	-5248
13212659	-15475	5326	-5881
13212987	-14020	5052	-6488
13213315	-12800	5959	-7014
13213643	-11169	7241	-7613
13213971	-9230	8166	-8123
13214299	-6878	9262	-7849
13214627	-4463	9387	-7224
13214955	-3962	8823	-6459
13215283	-4947	9035	-5753
13215611	-4957	6832	-5001
13215939	-6826	2263	-3909
13216267	-6391	-1259	-3314
13216595	-5224	1058	-1814
13216923	-2420	6576	-496
13217251	789	7055	944
13217579	3798	4697	529
13217907	6388	4042	-954
13218235	7890	4541	-1770
13218563	7450	4463	-1741
13218891	4138	3723	-1707
13219219	-4406	4257	-156
13219547	-8011	4249	-304
13219875	-8664	3064	-776
13220203	-5843	1848	-1291
13220531	-2757	2683	-1253
13220859	-1040	4365	-1327
13221187	-1250	4564	-877
13221515	-2693	4054	-809
13221843	-4066	3468	-910
13222171	-4278	3153	-1206
13222499	-4002	3128	-1491
13222827	-3527	3291	-1569
13223155	-3474	3591	-1402
13223483	-4382	3195	-1247
13223811	-5239	3302	-1160
13224139	-6294	3669	-1343
13224467	-6782	4222	-1557
13224795	-7375	4907	-1925
13225123	-7897	5416	-2224
13225451	-8740	6170	-2626
13225779	-9703	7179	-3047
13226107	-10549	7497	-3447
13226435	-11610	7288	-3885
13226763	-12540	7009	-4325
13227091	-13624	6961	-4681
13227419	-14520	7565	-4908
13227747	-15178	7893	-5033
13228075	-15510	7873	-5062
13228403	-15564	7662	-5108
13228731	-15552	7880	-5233
13229059	-15639	8406	-5371
13229387	-15927	8476	-5513
13229715	-16244	7893	-5601
13230043	-16496	7457	-5671
13230371	-16691	7394	-5708
13230699	-16734	7380	-5813
13231027	-16598	6807	-5907
13231355	-16720	6303	-5900
13231683	-16396	6046	-5852
13232011	-15578	5243	-5570
13232339	-14382	4152	-5130
13232667	-12974	3591	-4715
13232995	-11705	2506	-3405
13233323	-11024	1348	-3355
13233651	-10531	923	-3397
13233979	-10088	1056	-3493
13234307	-9985	1109	-3790
13234635	-10527	1243	-4089
13234963	-11060	2072	-4601
13235291	-11979	2755	-4916
13235619	-12891	3261	-5498
13235947	-13283	3512	-5291
13236275	-14042	3016	-3179
13236603	-14358	-1680	-1429
13236931	-11658	-5460	-1435
13237259	-8115	-2276	-2457
13237587	-3535	2696	-2943
13237915	-3081	2940	-3116
13238243	-3755	2699	-2426
13238571	-5347	2627	-1900
13238899	-6279	1689	-1508
13239227	-7820	-94	-1662
13239555	-7640	-176	-1860
13239883	-6340	1023	-1912
13240211	-5715	1127	-1880
13240539	-5585	794	-1610
13240867	-5138	484	-1513
13241195	-4039	15	-1464
13241523	-2935	-305	-1240
13241851	-1860	-1048	-850
13242179	-1372	-1625	-390
13242507	-742	-1450	-47
13242835	-89	-1142	159
13243163	561	-923	266
13243491	854	-475	456
13243819	523	-514	628
13244147	14	-1200	676
13244475	-208	-1774	458
13244803	-501	-1470	237
13245131	-485	-1093	39
13245459	-438	-886	-104
13245787	-316	-918	-85
13246115	-177	-957	78
13246443	27	-966	209
13246771	311	-763	345
13247099	459	-579	493
13247427	717	-383	586
13247755	1001	-205	630
13248083	811	-221	742
13248411	647	-216	849
13248739	381	-647	821
13249067	336	-601	814
13249395	465	-186	699
13249723	466	-159	620
13250051	422	-82	601
13250379	403	236	564
13250707	435	156	511
13251035	370	182	439
13251363	354	454	446
13251691	190	388	391
13252019	191	414	395
13252347	111	227	433
13252675	83	330	406
13253003	140	416	352
13253331	247	276	277
13253659	234	373	255
13253987	313	316	247
13254315	225	94	243
13254643	269	273	261
13254971	258	268	237
13255299	198	228	220
13255627	122	231	180
13255955	78	135	169
13256283	-15	38	133
13256611	29	-7	104
13256939	79	10	52
13257267	106	18	25
13257595	74	-17	-20
13257923	124	13	-30
13258251	110	-85	-31
13258579	112	-64	-20
13258907	139	-201	-34
13259235	136	-158	-50
13259563	185	-1	-40
13259891	196	-199	-50
13260219	179	-160	-47
13260547	213	-138	-70
13260875	154	-115	-60
13261203	169	-7	-44
13261531	220	-38	-52
13261859	307	-25	-28
13262187	381	-123	-18
13262515	898	-127	78
13262843	1227	-3	122
13263171	1415	130	180
13263499	1560	178	224
13263827	1692	200	265
13264155	1700	208	337
13264483	1764	189	408
13264811	1985	213	503
13265139	2365	242	557
13265467	2783	135	580
13265795	3104	34	714
13266123	3579	-143	842
13266451	4032	-518	1014
13266779	4491	-758	1278
13267107	5020	-1231	1645
13267435	5425	-1921	2164
13267763	5882	-2374	2716
13268091	6531	-2555	3278
13268419	7079	-2812	3824
13268747	7484	-3105	4209
13269075	7784	-3275	4516
13269403	8406	-3430	4711
13269731	8882	-3492	4747
13270059	9217	-3663	4636
13270387	9485	-3806	4373
13270715	9505	-3831	4105
13271043	9442	-3807	3915
13271371	9198	-3743	3823
13271699	8905	-3577	3694
13272027	8650	-3321	3526
13272355	8358	-3034	3261
13272683	8203	-2861	2983
13273011	8264	-2651	2735
13273339	8424	-2200	2367
13273667	8689	-1812	2061
13273995	8877	-1306	1589
13274323	8789	-671	998
13274651	8397	-303	405
13274979	7907	-64	-201
13275307	7413	81	-802
13275635	6876	-226	-1220
13275963	6086	-678	-1531
13276291	5221	-952	-1902
13276619	4533	-1160	-2221
13276947	4077	-974	-2434
13277275	3524	-614	-2560
13277603	3178	-501	-2647
13277931	3216	-544	-2820
13278259	3555	-715	-3067
13278587	3424	-744	-3589
13278915	3337	-338	-4030
13279243	2800	456	-4566
13279571	2264	1061	-5311
13279899	2068	1816	-5903
13280227	2411	3021	-5841
13280555	2244	2495	-4869
13280883	1684	-1607	-3361
13281211	1398	-6085	-2703
13281539	2051	-3525	-3299
13281867	2311	1557	-4529
13282195	2185	4016	-5132
13282523	1539	2237	-4910
13282851	707	-946	-4277
13283179	602	-1636	-3891
13283507	361	-420	-3755
13283835	277	-27	-3736
13284163	351	-746	-3495
13284491	560	-1370	-3189
13284819	843	-1452	-2942
13285147	1255	-1412	-2456
13285475	1504	-1448	-2048
13285803	2156	-1965	-1587
13286131	3524	-3413	-1343
13286459	3052	-3517	-1294
13286787	3214	-2865	-1295
13287115	2835	-2664	-1085
13287443	2333	-2822	-1072
13287771	2243	-3301	-1049
13288099	1692	-3059	-1079
13288427	1573	-2537	-1155
13288755	1491	-2138	-1107
13289083	1715	-2454	-1087
13289411	2069	-2581	-918
13289739	2454	-2660	-730
13290067	2960	-2595	-469
13290395	3391	-2464	-287
13290723	3710	-2332	-157
13291051	3972	-2171	-115
13291379	4024	-2184	-110
13291707	3872	-2166	34
13292035	3687	-2080	86
13292363	3587	-1899	196
13292691	3390	-1892	219
13293019	3274	-1979	279
13293347	3265	-1909	239
13293675	3223	-1955	249
13294003	3353	-2108	374
13294331	3440	-2230	418
13294659	3628	-2139	531
13294987	3661	-2133	552
13295315	3931	-2174	548
13295643	4236	-2178	494
13295971	4450	-2375	536
13296299	4627	-2510	665
13296627	4549	-2484	774
13296955	4572	-2339	902
13297283	5050	-2455	964
13297611	5836	-2844	1127
13297939	6701	-3262	1355
13298267	7145	-3573	1375
13298595	7406	-3235	1285
13298923	7229	-3193	1352
13299251	6878	-3242	1377
13299579	6870	-3448	1522
13299907	7466	-4074	1780
13300235	7697	-4239	1898
13300563	8044	-3814	1991
13300891	8173	-3979	2108
13301219	8184	-4033	2165
13301547	8417	-4137	2218
13301875	8878	-4441	2355
13302203	9406	-4349	2428
13302531	9667	-3927	2409
13302859	9660	-3908	2496
13303187	9578	-4253	2503
13303515	9785	-4733	2522
13303843	9710	-4740	2555
13304171	10055	-4459	2597
13304499	9902	-4305	2742
13304827	9581	-4127	2768
13305155	9565	-3811	2771
13305483	9961	-4307	2860
13305811	10092	-4451	2893
13306139	10136	-4098	2900
13306467	9945	-3986	3076
13306795	9771	-4410	3024
13307123	9293	-4087	2975
13307451	9513	-3819	2924
13307779	9688	-4035	2910
13308107	9792	-4000	2837
13308435	9749	-3847	2851
13308763	9541	-3692	2820
13309091	9145	-3359	2809
13309419	8857	-3319	2771
13309747	8576	-3390	2713
13310075	8563	-3187	2640
13310403	8619	-2964	2671
13310731	8495	-2598	2654
13311059	8097	-2502	2633
13311387	7903	-2554	2590
13311715	7804	-2610	2553
13312043	7679	-2687	2563
13312371	7538	-2361	2408
13312699	7355	-1912	2371
13313027	7091	-1959	2298
13313355	6873	-1946	2165
13313683	6730	-1669	2132
13314011	6654	-1886	2234
13314339	6455	-2597	2515
13314667	6413	-2653	2729
13314995	6373	-2876	2898
13315323	6592	-3383	3074
13315651	7449	-3472	3241
13315979	8694	-3290	3310
13316307	9729	-3221	3410
13316635	10395	-3502	3621
13316963	10400	-3673	3913
13317291	10162	-3681	4047
13317619	10075	-3565	3965
13317947	10123	-3135	3743
13318275	10223	-2679	3585
13318603	10087	-2470	3528
13318931	9672	-2433	3555
13319259	9015	-2492	3474
13319587	8507	-2440	3284
13319915	8416	-2286	3006
13320243	8164	-2200	2758
13320571	7079	-1689	2104
13320899	6160	-1066	1772
13321227	5169	-596	1458
13321555	4360	-713	1087
13321883	3723	-713	860
13322211	3136	-345	580
13322539	2555	198	262
13322867	1919	627	-51
13323195	1165	942	-334
13323523	237	1271	-670
13323851	-804	1826	-957
13324179	-1898	2347	-1036
13324507	-2947	2496	-1064
13324835	-3685	2241	-658
13325163	-4044	1271	-329
13325491	-3620	240	-307
13325819	-3331	352	-520
13326147	-3140	1303	-714
13326475	-3506	2174	-823
13326803	-4052	2538	-866
13327131	-4510	2128	-770
13327459	-4139	1436	-530
13327787	-3071	625	-479
13328115	-1979	678	-307
13328443	-1066	1001	-165
13328771	-715	976	-108
13329099	-263	735	-231
13329427	-327	693	-360
13329755	-215	689	-319
13330083	-302	333	-279
13330411	-570	96	-285
13330739	-672	235	-192
13331067	-688	363	-91
13331395	-518	212	-49
13331723	16	16	-90
13332051	171	-176	-121
13332379	256	-207	-81
13332707	266	-51	5
13333035	153	8	30
13333363	62	0	64
13333691	69	6	54
13334019	106	-98	55
13334347	122	-109	37
13334675	82	-84	79
13335003	77	-88	26
13335331	83	-157	-26
13335659	52	-119	-59
13335987	-37	-9	-37
13336315	-167	49	-59
13336643	-332	5	-81
13336971	-396	10	-146
13337299	-376	17	-194
13337627	-379	72	-153
13337955	-386	152	-159
13338283	-394	145	-82
13338611	-446	63	22
13338939	-404	125	69
13339267	-281	284	60
13339595	-134	330	65
13339923	-151	360	47
13340251	-181	379	22
13340579	-198	344	8
13340907	-170	251	-47
13341235	-50	257	-50
13341563	106	204	-61
13341891	153	114	-89
13342219	99	136	-42
13342547	37	227	-41
13342875	5	213	-40
13343203	-18	201	-51
13343531	-66	264	-26
13343859	-3	231	-36
13344187	38	68	-55
13344515	-116	3	-83
13344843	-131	85	-92
13345171	-152	251	-79
13345499	-120	262	-68
13345827	-174	14	-122
13346155	-60	62	-104
13346483	129	190	-114
13346811	113	168	-145
13347139	13	172	-129
13347467	78	222	-129
13347795	-95	152	-150
13348123	-41	164	-144
13348451	-16	59	-157
13348779	-61	204	-250
13349107	-36	648	-220
13349435	-43	654	-239
13349763	-291	831	-415
13350091	-327	1011	-477
13350419	-504	1117	-447
13350747	-960	1082	-411
13351075	-1098	1083	-395
13351403	-1165	1219	-481
13351731	-810	1430	-548
13352059	-576	1545	-601
13352387	-572	1604	-760
13352715	-575	1753	-834
13353043	-777	2002	-1006
13353371	-1242	2021	-1106
13353699	-1563	1972	-1100
13354027	-1828	1885	-1063
13354355	-1727	1618	-1037
13354683	-1363	1559	-924
13355011	-986	1583	-896
13355339	-427	1449	-881
13355667	20	1234	-947
13355995	366	913	-1032
13356323	583	697	-1069
13356651	717	838	-1071
13356979	709	876	-1112
13357307	691	869	-1266
13357635	785	832	-1400
13357963	830	722	-1448
13358291	780	405	-1504
13358619	596	185	-1626
13358947	707	196	-1720
13359275	776	252	-1712
13359603	1027	14	-1798
13359931	1333	-508	-1754
13360259	1482	-776	-1720
13360587	1435	-461	-1710
13360915	1242	-193	-1718
13361243	1151	-312	-1771
13361571	1124	-600	-1739
13361899	955	-808	-1666
13362227	786	-852	-1563
13362555	648	-850	-1451
13362883	577	-833	-1408
13363211	703	-818	-1340
13363539	763	-785	-1310
13363867	710	-701	-1242
13364195	680	-705	-1158
13364523	675	-803	-1090
13364851	715	-868	-987
13365179	756	-868	-951
13365507	745	-868	-858
13365835	768	-946	-768
13366163	703	-987	-639
13366491	634	-959	-561
13366819	698	-958	-470
13367147	720	-901	-471
13367475	706	-777	-496
13367803	521	-669	-452
13368131	380	-695	-409
13368459	203	-739	-404
13368787	14	-825	-437
13369115	16	-913	-422
13369443	-16	-760	-349
13369771	-155	-704	-286
13370099	-259	-823	-226
13370427	-364	-701	-218
13370755	-461	-718	-144
13371083	-485	-702	-93
13371411	-515	-690	-94
13371739	-603	-726	23
13372067	-689	-632	40
13372395	-920	-520	69
13372723	-1193	-453	79
13373051	-1555	-361	87
13373379	-1968	-343	114
13373707	-2383	-336	98
13374035	-2567	-323	90
13374363	-2870	-214	47
13374691	-3175	-132	56
13375019	-3484	231	-5
13375347	-3701	600	-39
13375675	-3978	603	-136
13376003	-3984	282	-276
13376331	-3891	-190	-375
13376659	-4547	16	-487
13376987	-4762	416	-529
13377315	-4949	-335	-663
13377643	-5726	108	-1306
13377971	-5565	895	-1565
13378299	-5657	1206	-1804
13378627	-5583	1362	-1950
13378955	-5898	1966	-2096
13379283	-6201	2597	-2238
13379611	-6732	3264	-2312
13379939	-7353	3889	-2474
13380267	-7918	4066	-2340
13380595	-8537	3810	-2247
13380923	-9003	3351	-2049
13381251	-8470	3292	-1884
13381579	-7758	3280	-1654
13381907	-6525	3459	-1433
13382235	-5019	3696	-1330
13382563	-3624	3611	-1412
13382891	-2125	3686	-1537
13383219	-715	3775	-1667
13383547	498	3736	-1706
13383875	1239	3888	-1649
13384203	1483	3892	-1697
13384531	1055	3821	-1783
13384859	219	3635	-1771
13385187	-894	3295	-1955
13385515	-1850	2801	-2080
13385843	-2326	2601	-2263
13386171	-2678	2276	-2415
13386499	-2563	1973	-2523
13386827	-2621	1007	-2526
13387155	317	-5598	-1265
13387483	1473	-4330	1029
13387811	1908	-302	1424
13388139	98	620	-644
13388467	2472	982	-1461
13388795	3482	-1641	-1058
13389123	2950	-730	-1410
13389451	2136	-83	-1396
13389779	3276	616	46
13390107	2552	-807	552
13390435	332	-491	27
13390763	-307	-342	-537
13391091	-1423	-722	-909
13391419	-2016	-566	-1146
13391747	-2262	-948	-1085
13392075	-1637	-780	-989
13392403	-1275	-802	-881
13392731	-1127	-646	-717
13393059	-916	-579	-660
13393387	-890	-1028	-790
13393715	-464	-831	-961
13394043	183	-593	-1039
13394371	795	-305	-977
13394699	936	-223	-956
13395027	619	-214	-973
13395355	86	-223	-956
13395683	-244	-359	-1026
13396011	-498	-517	-1056
13396339	-404	-465	-964
13396667	-309	-516	-947
13396995	-85	-549	-934
13397323	-91	-592	-971
13397651	-101	-527	-961
13397979	-214	-452	-968
13398307	-308	-378	-906
13398635	-690	-346	-858
13398963	-851	-427	-918
13399291	-901	-381	-951
13399619	-907	-434	-967
13399947	-849	-416	-965
13400275	-800	-384	-976
13400603	-661	-390	-952
13400931	-637	-349	-890
13401259	-548	-263	-840
13401587	-396	-146	-791
13401915	-307	-166	-769
13402243	-320	-190	-750
13402571	-274	-147	-731
13402899	-264	-182	-695
13403227	-331	-165	-681
13403555	-237	-175	-683
13403883	-202	-181	-667
13404211	-138	-113	-631
13404539	-122	-69	-596
13404867	-136	-77	-574
13405195	-179	-73	-561
13405523	-150	-85	-534
13405851	-120	-12	-512
13406179	-30	67	-499
13406507	-125	131	-449
13406835	-207	60	-412
13407163	-295	10	-396
13407491	-273	-23	-374
13407819	-165	-96	-371
13408147	-7	-23	-354
13408475	222	109	-282
13408803	252	97	-260
13409131	255	124	-254
13409459	147	169	-214
13409787	130	175	-170
13410115	55	177	-163
13410443	97	108	-138
13410771	97	115	-115
13411099	135	117	-120
13411427	121	46	-100
13411755	172	130	-105
13412083	123	120	-101
13412411	94	155	-59
13412739	82	170	-46
13413067	40	194	-25
13413395	-2	189	-15
13413723	-1	232	28
13414051	26	252	48
13414379	110	266	99
13414707	193	237	114
13415035	270	247	119
13415363	290	283	142
13415691	308	304	161
13416019	278	299	197
13416347	209	233	197
13416675	205	280	202
13417003	321	285	233
13417331	354	308	243
13417659	343	366	285
13417987	278	375	336
13418315	253	332	355
13418643	339	428	366
13418971	470	466	387
13419299	570	429	391
13419627	627	457	398
13419955	612	429	403
13420283	657	459	405
13420611	646	476	408
13420939	659	414	400
13421267	597	348	391
13421595	605	409	409
13421923	590	415	433
13422251	488	416	442
13422579	518	447	453
13422907	552	456	441
13423235	650	533	433
13423563	705	545	427
13423891	711	626	458
13424219	748	520	432
13424547	772	446	391
13424875	736	496	384
13425203	715	516	405
13425531	646	421	382
13425859	605	456	373
13426187	626	479	325
13426515	611	500	307
13426843	555	510	305
13427171	446	439	289
13427499	324	463	263
13427827	207	453	268
13428155	174	435	265
13428483	151	394	259
13428811	149	349	227
13429139	192	339	205
13429467	268	432	193
13429795	231	372	161
13430123	206	368	160
13430451	123	353	135
13430779	70	332	144
13431107	-8	323	118
13431435	-11	334	97
13431763	37	279	99
13432091	105	286	84
13432419	165	243	80
13432747	167	260	68
13433075	179	157	59
13433403	173	195	64
13433731	174	175	52
13434059	186	199	43
13434387	146	175	39
13434715	92	183	46
13435043	114	168	36
13435371	104	178	36
13435699	132	173	47
13436027	147	235	25
13436355	125	187	32
13436683	132	183	10
13437011	143	122	-2
13437339	140	141	-19
13437667	136	130	-28
13437995	79	83	-47
13438323	6	157	-46
13438651	-33	117	-42
13438979	-42	105	-40
13439307	14	77	-56
13439635	63	77	-75
13439963	96	145	-60
13440291	98	165	-68
13440619	41	142	-87
13440947	-48	172	-84
13441275	-105	145	-84
13441603	-132	84	-95
13441931	-6	97	-87
13442259	85	176	-77
13442587	157	131	-74
13442915	168	159	-73
13443243	108	87	-75
13443571	79	93	-59
13443899	57	113	-61
13444227	-26	68	-72
13444555	19	99	-65
13444883	53	97	-61
13445211	10	61	-76
13445539	-22	71	-64
13445867	-27	130	-49
13446195	-18	61	-52
13446523	30	117	-60
13446851	56	145	-44
13447179	10	130	-56
13447507	-24	129	-48
13447835	-52	102	-42
13448163	-57	66	-63
13448491	-10	108	-57
13448819	49	101	-66
13449147	53	91	-68
13449475	69	107	-71
13449803	76	106	-64
13450131	61	103	-73
13450459	52	119	-76
13450787	41	126	-88
13451115	19	132	-77
13451443	-18	130	-91
13451771	-64	118	-86
13452099	-92	84	-87
13452427	-101	113	-106
13452755	-77	61	-87
13453083	-67	91	-102
13453411	-65	104	-84
13453739	-67	141	-96
13454067	-123	159	-76
13454395	-121	146	-69
13454723	-135	143	-80
13455051	-113	128	-69
13455379	-35	187	-67
13455707	20	134	-55
13456035	37	115	-53
13456363	87	56	-61
13456691	67	22	-76
13457019	95	58	-54
13457347	140	22	-64
13457675	77	12	-69
13458003	92	25	-53
13458331	85	54	-52
13458659	63	73	-67
13458987	50	52	-65
13459315	70	77	-47
13459643	81	91	-57
13459971	82	106	-52
13460299	76	153	-50
13460627	-6	171	-41
13460955	-25	183	-33
13461283	20	161	-47
13461611	-42	148	-48
13461939	50	168	-35
13462267	51	201	-53
13462595	42	179	-43
13462923	8	136	-39
13463251	10	167	-34
13463579	20	158	-28
13463907	29	174	-13
13464235	73	136	-26
13464563	62	167	-30
13464891	82	163	-16
13465219	47	166	-24
13465547	52	184	-31
13465875	62	172	-28
13466203	45	158	-23
13466531	17	137	-56
13466859	23	102	-48
13467187	-3	149	-29
13467515	2	134	-42
13467843	-36	128	-45
13468171	-71	134	-35
13468499	-87	70	-57
13468827	-63	65	-59
13469155	-78	107	-70
13469483	-64	76	-70
13469811	-103	86	-89
13470139	-177	85	-95
13470467	-163	159	-66
13470795	-201	126	-53
13471123	-193	142	-83
13471451	-216	119	-73
13471779	-197	125	-89
13472107	-161	118	-87
13472435	-135	136	-82
13472763	-155	151	-72
13473091	-154	153	-79
13473419	-174	186	-65
13473747	-198	137	-77
13474075	-159	154	-61
13474403	-121	157	-58
13474731	-110	140	-64
13475059	-129	140	-63
13475387	-147	202	-51
13475715	-155	169	-54
13476043	-153	177	-46
13476371	-121	168	-48
13476699	-118	133	-45
13477027	-87	167	-42
13477355	-47	151	-36
13477683	-27	181	-32
13478011	-20	210	-31
13478339	17	189	-11
13478667	24	219	-15
13478995	22	182	-11
13479323	32	193	-21
13479651	48	199	-11
13479979	40	165	-19
13480307	57	208	-17
13480635	72	193	-8
13480963	32	190	3
13481291	18	152	-22
13481619	42	173	-26
13481947	59	227	5
13482275	31	200	-16
13482603	36	177	-34
13482931	-15	127	-36
13483259	-18	132	-47
13483587	-25	136	-46
13483915	-30	199	-39
13484243	-23	168	-45
13484571	-45	146	-59
13484899	-48	169	-44
13485227	-63	143	-65
13485555	-42	156	-78
13485883	-54	174	-75
13486211	-58	174	-72
13486539	-80	196	-66
13486867	-113	192	-60
13487195	-71	187	-59
13487523	-44	180	-66
13487851	-54	167	-59
13488179	-44	209	-58
13488507	-38	225	-53
13488835	-74	192	-56
13489163	-41	185	-61
13489491	-59	175	-45
13489819	-57	163	-60
13490147	-92	182	-60
13490475	-120	200	-61
13490803	-211	161	-76
13491131	-188	152	-61
13491459	-91	150	-58
13491787	-73	169	-64
13492115	-51	192	-51
13492443	-58	162	-55
13492771	-22	173	-56
13493099	7	180	-46
13493427	52	181	-47
13493755	45	198	-43
13494083	10	198	-52
13494411	-26	187	-42
13494739	-46	180	-56
13495067	-20	157	-42
13495395	-20	169	-57
13495723	-25	183	-47
13496051	-1	181	-56
13496379	-14	187	-45
13496707	-2	185	-46
13497035	-22	204	-42
13497363	-29	191	-49
13497691	3	186	-50
13498019	24	194	-54
13498347	58	177	-53
13498675	72	210	-60
13499003	50	167	-58
13499331	-1	197	-62
13499659	-25	193	-50
13499987	-26	150	-62
13500315	0	177	-56
13500643	26	180	-48
13500971	33	189	-52
13501299	36	187	-37
13501627	34	179	-41
13501955	56	186	-50
13502283	39	176	-52
13502611	14	181	-42
13502939	22	161	-42
13503267	28	152	-45
13503595	29	175	-53
13503923	15	170	-58
13504251	1	172	-45
13504579	-1	159	-48
13504907	-45	157	-51
13505235	-67	171	-47
13505563	-63	155	-56
13505891	-40	132	-55
13506219	9	163	-56
13506547	-1	147	-56
13506875	-1	156	-51
13507203	0	163	-44
13507531	-7	154	-37
13507859	40	132	-50
13508187	45	138	-57
13508515	50	168	-45
13508843	4	177	-38
13509171	-28	182	-32
13509499	-28	169	-50
13509827	-40	154	-46
13510155	-28	161	-46
13510483	-14	160	-44
13510811	-17	140	-34
13511139	-1	159	-35
13511467	-2	143	-54
13511795	-1	154	-54
13512123	-6	157	-41
13512451	-21	149	-55
13512779	-15	132	-47
13513107	2	169	-44
13513435	5	184	-40
13513763	-18	160	-41
13514091	20	178	-46
13514419	1	179	-45
13514747	7	156	-42
13515075	-22	170	-39
13515403	-26	157	-40
13515731	-33	167	-28
13516059	-23	179	-43
13516387	-25	160	-39
13516715	-35	163	-38
13517043	-43	152	-37
13517371	-38	171	-34
13517699	-45	161	-17
13518027	-63	165	-25
13518355	-47	155	-36
13518683	-8	161	-34
13519011	18	159	-46
13519339	-17	136	-44
13519667	-29	148	-52
13519995	-54	128	-38
13520323	-116	137	-50
13520651	-76	160	-41
13520979	-59	135	-45
13521307	-56	133	-39
13521635	-49	129	-48
13521963	-42	140	-32
13522291	-30	132	-37
13522619	-10	104	-37
13522947	13	160	-31
13523275	28	142	-24
13523603	15	149	-26
13523931	-31	156	-22
13524259	-18	150	-29
13524587	-25	158	-19
13524915	-38	174	-27
13525243	-30	138	-32
13525571	-44	167	-18
13525899	-46	149	-33
13526227	-38	169	-31
13526555	-46	170	-37
13526883	-54	155	-29
13527211	-29	162	-37
13527539	-21	172	-33
13527867	-9	152	-35
13528195	7	151	-34
13528523	5	171	-21
13528851	9	174	-24
13529179	-8	163	-26
13529507	-17	168	-24
13529835	-21	170	-31
13530163	-15	167	-29
13530491	-28	179	-29
13530819	-45	160	-23
13531147	-37	157	-34
13531475	-71	149	-34
13531803	-73	171	-25
13532131	-83	177	-23
13532459	-56	176	-22
13532787	-19	172	-41
13533115	-28	196	-31
13533443	-4	171	-41
13533771	-27	205	-30
13534099	-75	186	-25
13534427	-75	167	-27
13534755	-48	180	-27
13535083	-21	155	-25
13535411	-31	204	-22
13535739	-38	197	-15
13536067	-68	169	-20
13536395	-70	184	-15
13536723	-55	151	-17
13537051	-42	160	-4
13537379	-45	183	-6
13537707	-31	187	2
13538035	9	196	6
13538363	2	186	-12
13538691	10	205	-8
13539019	7	184	8
13539347	-12	204	2
13539675	-32	179	7
13540003	-26	176	0
13540331	-40	177	-7
13540659	-35	199	-11
13540987	-73	174	-5
13541315	-63	195	-4
13541643	-42	201	-3
13541971	-2	193	-1
13542299	41	184	2
13542627	73	162	-4
13542955	68	177	4
13543283	38	192	2
13543611	-16	195	11
13543939	-34	161	13
13544267	-18	187	16
13544595	-16	182	13
13544923	8	176	11
13545251	-20	187	13
13545579	-46	173	9
13545907	-35	197	17
13546235	-19	189	3
13546563	-4	181	20
13546891	-2	189	11
13547219	-35	166	7
13547547	-18	173	13
13547875	-4	155	9
13548203	9	182	10
13548531	4	182	15
13548859	0	126	1
13549187	-29	170	12
13549515	-4	170	11
13549843	-27	152	12
13550171	-72	177	5
13550499	-68	134	19
13550827	-65	116	7
13551155	-26	143	14
13551483	-14	183	25
13551811	-18	188	27
13552139	-21	164	39
13552467	5	169	41
13552795	89	182	42
13553123	86	137	27
13553451	94	189	41
13553779	39	217	53
13554107	-7	199	56
13554435	7	218	63
13554763	-1	260	63
13555091	29	264	65
13555419	23	261	70
13555747	33	283	85
13556075	15	315	82
13556403	-1	317	94
13556731	48	322	101
13557059	45	326	95
13557387	38	423	100
13557715	2	439	114
13558043	0	465	135
13558371	102	493	147
13558699	136	378	141
13559027	156	258	94
13559355	64	240	51
13559683	16	412	119
13560011	-115	406	125
13560339	-197	294	114
13560667	199	-199	94
13560995	347	-246	51
13561323	373	20	87
13561651	346	0	113
13561979	515	280	120
13562307	581	292	148
13562635	534	150	197
13562963	697	17	318
13563291	672	-45	362
13563619	474	233	522
13563947	586	492	670
13564275	401	1131	968
13564603	570	1763	1236
13564931	260	2265	1583
13565259	296	2470	1793
13565587	892	1802	1887
13565915	1111	2051	1929
13566243	1583	2687	1954
13566571	1673	4152	2305
13566899	817	4729	2714
13567227	-470	4447	2866
13567555	-1511	4579	2894
13567883	-2002	4780	2907
13568211	-2042	5271	3195
13568539	-2337	5405	3615
13568867	-1352	5292	3584
13569195	-281	3770	3524
13569523	1460	2047	3506
13569851	2385	2652	3378
13570179	2786	3249	3056
13570507	2619	2777	2976
13570835	2689	1357	2683
13571163	2372	1369	1795
13571491	1803	2384	887
13571819	511	3397	256
13572147	-1370	3138	145
13572475	-1857	552	-251
13572803	-1334	-1053	-926
13573131	-568	260	-1472
13573459	-1009	1883	-1845
13573787	-1413	1767	-2087
13574115	-1111	610	-2392
13574443	-1453	-961	-2570
13574771	-1442	-2746	-2429
13575099	-1822	-4736	-2337
13575427	-1914	-6673	-2075
13575755	-1870	-7952	-1540
13576083	-2723	-8388	-1413
13576411	-3759	-8823	-1893
13576739	-5648	-7219	-2086
13577067	-5719	-2045	-3050
13577395	-10261	-1910	-3768
13577723	-11315	-8661	-3448
13578051	-9523	-7184	-2918
13578379	-3647	-764	-2383
13578707	847	-1069	-134
13579035	1408	1401	829
13579363	1223	1651	1146
13579691	322	857	1458
13580019	-281	767	1589
13580347	275	433	1644
13580675	1453	279	1495
13581003	2582	849	1516
13581331	3219	488	1270
13581659	2870	573	1158
13581987	1848	842	1013
13582315	511	488	797
13582643	-512	131	523
13582971	-395	-119	213
13583299	-163	513	46
13583627	279	1080	259
13583955	87	1357	481
13584283	-622	2346	620
13584611	-1261	3712	563
13584939	-2025	2824	445
13585267	-3303	2779	256
13585595	11243	-5182	925
13585923	-1828	6538	-465
13586251	10525	7371	-348
13586579	4269	3151	3151
13586907	2620	9286	-1743
13587235	7818	-9699	-1990
13587563	6203	-13666	-372
13587891	-26169	32767	-5368
13588219	13499	8689	-1994
13588547	17876	-12997	7344
13588875	-16661	8397	4505
13589203	9517	5501	-744
13589531	-5643	-7241	-2881
13589859	-10046	-19706	-3247
13590187	-13522	-20600	2380
13590515	-9048	-6189	6732
13590843	-5844	13989	1865
13591171	2567	22911	-3319
13591499	8216	5345	-1401
13591827	8771	-12254	-1635
13592155	8757	-12641	-2466
13592483	5191	-6392	-1013
13592811	1331	-1086	-1164
13593139	-1578	638	-1605
13593467	-3965	-2614	-1353
13593795	-3496	-3535	-973
13594123	-2596	-2145	-1557
13594451	-976	-2302	-1083
13594779	-210	-2909	-1213
13595107	1378	-1879	-1013
13595435	1911	-141	-787
13595763	1808	-116	-757
13596091	1705	-596	-855
13596419	1817	-661	-753
13596747	1682	-556	-567
13597075	1509	-438	-477
13597403	1147	-393	-288
13597731	599	-336	-127
13598059	189	-297	-70
13598387	-107	-369	-24
13598715	-331	-579	-4
13599043	-552	-539	58
13599371	-600	-385	38
13599699	-673	-517	63
13600027	-706	-557	24
13600355	-628	-338	-46
13600683	-579	-212	-32
13601011	-456	-160	-51
13601339	-348	-133	-86
13601667	-169	-54	-93
13601995	135	-213	-134
13602323	537	-198	-160
13602651	1062	-108	-192
13602979	1398	-86	-264
13603307	1619	78	-291
13603635	1667	223	-253
13603963	1462	196	-265
13604291	1170	127	-255
13604619	862	59	-268
13604947	591	62	-243
13605275	388	2	-194
13605603	176	-127	-169
13605931	-46	-34	-155
13606259	-372	-14	-99
13606587	-604	-108	-57
13606915	-741	-142	-94
13607243	-637	-81	-74
13607571	-594	-25	-77
13607899	-515	52	-31
13608227	-440	81	-38
13608555	-363	69	-22
13608883	-273	88	-37
13609211	-216	162	-21
13609539	-85	275	-9
13609867	-17	175	-11
13610195	92	163	-33
13610523	114	204	-46
13610851	43	175	-45
13611179	-1	136	-56
13611507	-8	89	-58
13611835	45	142	-41
13612163	56	133	-67
13612491	66	91	-89
13612819	-11	119	-95
13613147	-87	180	-68
13613475	-157	104	-25
13613803	-148	97	-7
13614131	-225	76	15
13614459	-101	149	21
13614787	-4	106	44
13615115	92	241	52
13615443	85	151	60
13615771	21	108	64
13616099	21	135	67
13616427	-33	120	63
13616755	5	207	71
13617083	18	178	61
13617411	11	145	49
13617739	13	191	50
13618067	53	256	41
13618395	85	171	6
13618723	101	147	-16
13619051	88	165	-9
13619379	78	248	-14
13619707	36	189	-11
13620035	-48	89	-18
13620363	-42	145	-6
13620691	-23	182	-18
13621019	-78	198	-8
13621347	-97	139	-1
13621675	-112	148	1
13622003	-88	217	-2
13622331	-43	172	-2
13622659	15	133	-26
13622987	67	121	-19
13623315	101	164	-4
13623643	85	167	-7
13623971	76	134	-8
13624299	119	110	-20
13624627	126	110	-25
13624955	163	96	-17
13625283	112	130	-9
13625611	56	176	13
13625939	50	101	12
13626267	93	53	-23
13626595	97	142	-13
13626923	171	92	-4
13627251	172	34	-13
13627579	129	26	-28
13627907	151	36	-13
13628235	118	109	-17
13628563	127	70	-27
13628891	116	41	-40
13629219	132	47	-39
13629547	98	56	-46
13629875	112	32	-53
13630203	110	22	-60
13630531	120	52	-51
13630859	83	50	-51
13631187	51	109	-45
13631515	8	64	-43
13631843	14	65	-39
13632171	34	90	-41
13632499	34	102	-52
13632827	87	61	-55
13633155	90	76	-60
13633483	88	105	-64
13633811	-2	90	-47
13634139	-23	57	-62
13634467	-39	55	-70
13634795	-34	97	-59
13635123	-38	49	-71
13635451	1	103	-78
13635779	-11	110	-84
13636107	16	109	-100
13636435	-2	72	-94
13636763	4	57	-106
13637091	-16	94	-98
13637419	-20	98	-99
13637747	-20	91	-114
13638075	-47	80	-114
13638403	-47	90	-111
13638731	-46	103	-119
13639059	-18	104	-117
13639387	-3	92	-115
13639715	29	105	-125
13640043	-20	73	-143
13640371	-84	104	-139
13640699	-121	78	-124
13641027	-133	54	-131
13641355	-114	61	-136
13641683	-52	101	-147
13642011	-61	54	-135
13642339	-7	46	-153
13642667	-10	35	-150
13642995	38	38	-160
13643323	39	7	-151
13643651	66	4	-160
13643979	100	-44	-156
13644307	158	-4	-160
13644635	197	70	-166
13644963	148	99	-210
13645291	-52	47	-208
13645619	-170	-18	-199
13645947	-166	-4	-207
13646275	-181	33	-220
13646603	-157	8	-211
13646931	-156	30	-216
13647259	-191	75	-214
13647587	-199	75	-223
13647915	-276	52	-231
13648243	-282	24	-218
13648571	-246	9	-215
13648899	-216	36	-209
13649227	-147	27	-223
13649555	-136	-7	-219
13649883	-103	-27	-210
13650211	-13	-81	-218
13650539	88	-83	-215
13650867	162	-11	-199
13651195	236	-60	-199
13651523	252	-67	-207
13651851	267	-37	-192
13652179	260	-9	-185
13652507	241	-19	-201
13652835	192	-48	-218
13653163	133	18	-208
13653491	72	51	-210
13653819	-62	43	-229
13654147	-211	33	-234
13654475	-339	11	-230
13654803	-347	23	-218
13655131	-351	27	-231
13655459	-339	35	-224
13655787	-367	26	-226
13656115	-416	23	-232
13656443	-416	-25	-218
13656771	-423	-55	-240
13657099	-374	22	-233
13657427	-394	-45	-256
13657755	-411	-50	-247
13658083	-406	-40	-264
13658411	-469	-43	-284
13658739	-447	-76	-280
13659067	-428	-57	-289
13659395	-387	-41	-282
13659723	-369	-42	-288
13660051	-382	-20	-292
13660379	-388	33	-290
13660707	-476	32	-295
13661035	-552	-24	-288
13661363	-591	-12	-294
13661691	-588	2	-290
13662019	-610	2	-314
13662347	-660	0	-292
13662675	-638	5	-287
13663003	-667	-42	-287
13663331	-635	-38	-267
13663659	-523	-15	-269
13663987	-514	-20	-248
13664315	-431	-61	-242
13664643	-373	-89	-227
13664971	-254	-73	-248
13665299	-146	-99	-246
13665627	-49	-45	-239
13665955	-51	-82	-234
13666283	-126	-21	-218
13666611	-225	-45	-215
13666939	-294	-44	-229
13667267	-315	-87	-205
13667595	-278	-36	-216
13667923	-189	-34	-228
13668251	-147	-58	-197
13668579	-123	-27	-175
13668907	-95	-84	-171
13669235	-56	-52	-162
13669563	-2	-30	-151
13669891	17	3	-138
13670219	3	10	-114
13670547	30	7	-110
13670875	15	1	-87
13671203	-7	16	-85
13671531	-40	88	-53
13671859	-51	5	-73
13672187	-46	51	-80
13672515	-49	27	-67
13672843	-42	25	-59
13673171	-46	41	-56
13673499	-3	17	-48
13673827	29	25	-54
13674155	61	40	-52
13674483	45	39	-39
13674811	44	28	-25
13675139	80	51	-33
13675467	124	56	-27
13675795	137	75	-13
13676123	163	82	-20
13676451	162	85	-10
13676779	174	79	-20
13677107	151	107	-11
13677435	141	54	0
13677763	138	100	-6
13678091	131	135	1
13678419	109	90	4
13678747	91	84	-1
13679075	104	101	-3
13679403	99	94	11
13679731	100	130	-4
13680059	81	107	-12
13680387	42	132	5
13680715	31	146	5
