Time Stamp	Gyroscope X	Gyroscope Y	Gyroscope Z
RAW	RAW	RAW	RAW
no units	no units	no units	no units
5389605	-97	125	-62
5389933	-87	126	-58
5390261	-69	137	-50
5390589	-99	135	-55
5390917	-86	129	-60
5391245	-103	142	-60
5391573	-101	122	-48
5391901	-84	136	-36
5392229	-90	131	-44
5392557	-93	130	-40
5392885	-77	124	-43
5393213	-84	121	-34
5393541	-78	130	-32
5393869	-75	127	-23
5394197	-75	124	-22
5394525	-71	112	-18
5394853	-74	121	-17
5395181	-64	122	-5
5395509	-64	129	-5
5395837	-87	117	5
5396165	-72	126	2
5396493	-78	116	15
5396821	-78	117	7
5397149	-68	128	12
5397477	-83	130	0
5397805	-64	125	11
5398133	-77	120	0
5398461	-69	123	11
5398789	-65	119	1
5399117	-68	136	7
5399445	-48	135	13
5399773	-29	120	-10
5400101	-18	129	0
5400429	-40	140	10
5400757	-50	134	-3
5401085	-61	124	2
5401413	-53	135	3
5401741	-54	135	-14
5402069	-53	145	2
5402397	-37	142	-5
5402725	-40	142	-6
5403053	-32	132	-23
5403381	-38	133	-11
5403709	-40	125	-9
5404037	-48	122	-9
5404365	-51	128	-10
5404693	-49	140	-9
5405021	-35	129	-13
5405349	-28	144	-16
5405677	-35	121	-11
5406005	-36	119	-22
5406333	-53	129	-16
5406661	-47	135	-1
5406989	-70	138	-16
5407317	-84	153	-7
5407645	-65	133	-14
5407973	-51	135	-18
5408301	-46	130	-19
5408629	-69	135	-3
5408957	-59	115	-18
5409285	-70	130	-8
5409613	-84	119	-7
5409941	-75	141	-13
5410269	-74	137	-21
5410597	-70	128	-20
5410925	-51	139	-16
5411253	-69	144	-14
5411581	-65	143	-15
5411909	-77	139	-14
5412237	-98	132	-18
5412565	-109	136	-33
5412893	-94	137	-20
5413221	-92	143	-23
5413549	-92	139	-29
5413877	-90	135	-33
5414205	-79	132	-25
5414533	-80	137	-25
5414861	-87	137	-23
5415189	-92	132	-28
5415517	-93	133	-21
5415845	-112	133	-27
5416173	-106	145	-27
5416501	-117	141	-22
5416829	-93	131	-25
5417157	-91	132	-27
5417485	-96	146	-30
5417813	-91	132	-26
5418141	-112	136	-8
5418469	-126	150	-25
5418797	-135	141	-28
5419125	-134	143	-33
5419453	-120	142	-25
5419781	-108	148	-20
5420109	-109	142	-27
5420437	-108	152	-25
5420765	-112	152	-27
5421093	-119	143	-27
5421421	-135	147	-35
5421749	-128	148	-21
5422077	-125	143	-18
5422405	-120	145	-22
5422733	-111	159	-10
5423061	-123	163	-25
5423389	-97	165	-35
5423717	-106	150	-32
5424045	-134	155	-26
5424373	-136	163	-19
5424701	-125	173	-18
5425029	-122	165	-21
5425357	-101	178	-33
5425685	-104	172	-37
5426013	-102	179	-29
5426341	-119	166	-33
5426669	-136	175	-21
5426997	-126	176	-33
5427325	-129	174	-19
5427653	-125	188	-27
5427981	-87	184	-24
5428309	-88	194	-31
5428637	-95	182	-1
5428965	-74	192	-13
5429293	-84	189	-4
5429621	-90	199	-17
5429949	-78	193	-8
5430277	-69	199	-16
5430605	-73	198	-7
5430933	-95	203	22
5431261	-111	207	-2
5431589	-102	206	10
5431917	-93	208	5
5432245	-97	195	30
5432573	-102	215	9
5432901	-94	207	21
5433229	-87	212	28
5433557	-100	198	31
5433885	-104	210	15
5434213	-76	232	16
5434541	-74	231	27
5434869	-82	232	8
5435197	-124	255	2
5435525	-105	230	12
5435853	-129	248	16
5436181	-116	240	5
5436509	-119	226	2
5436837	-85	229	25
5437165	-63	249	36
5437493	-69	229	39
5437821	-65	241	31
5438149	-61	239	47
5438477	-58	228	67
5438805	-72	227	65
5439133	-96	213	55
5439461	-113	225	61
5439789	-108	216	89
5440117	-106	230	62
5440445	-112	230	72
5440773	-93	225	66
5441101	-67	229	82
5441429	-84	224	82
5441757	-96	216	76
5442085	-111	220	86
5442413	-120	227	91
5442741	-96	217	83
5443069	-100	243	70
5443397	-71	235	57
5443725	-57	246	69
5444053	-41	219	70
5444381	-46	240	66
5444709	-56	230	59
5445037	-49	233	56
5445365	-63	245	32
5445693	-77	242	17
5446021	-77	244	24
5446349	-98	229	12
5446677	-111	227	20
5447005	-117	218	12
5447333	-133	222	16
5447661	-120	221	16
5447989	-96	214	11
5448317	-95	235	7
5448645	-95	212	2
5448973	-92	224	11
5449301	-139	190	-10
5449629	-158	186	23
5449957	-157	196	23
5450285	-152	207	27
5450613	-145	198	21
5450941	-121	207	17
5451269	-116	192	23
5451597	-145	190	12
5451925	-146	200	18
5452253	-155	195	4
5452581	-164	195	14
5452909	-152	196	15
5453237	-134	203	9
5453565	-103	198	7
5453893	-81	217	3
5454221	-70	194	2
5454549	-62	193	11
5454877	-88	200	6
5455205	-96	210	1
5455533	-90	203	-6
5455861	-95	192	-3
5456189	-93	189	-19
5456517	-70	189	-14
5456845	-61	193	-6
5457173	-68	199	-21
5457501	-101	175	-15
5457829	-105	175	9
5458157	-99	188	-13
5458485	-99	187	-15
5458813	-97	186	-20
5459141	-103	192	-19
5459469	-90	192	-14
5459797	-86	190	-21
5460125	-98	199	-14
5460453	-57	192	-20
5460781	-54	195	-20
5461109	-56	188	-27
5461437	-56	194	-34
5461765	-80	208	-36
5462093	-82	196	-35
5462421	-99	179	-41
5462749	-104	176	-42
5463077	-87	193	-32
5463405	-67	178	-36
5463733	-52	186	-44
5464061	-39	175	-48
5464389	-47	186	-43
5464717	-62	175	-60
5465045	-86	183	-46
5465373	-107	175	-51
5465701	-114	179	-70
5466029	-132	157	-57
5466357	-146	178	-68
5466685	-131	168	-72
5467013	-100	174	-66
5467341	-82	165	-73
5467669	-91	171	-73
5467997	-99	155	-89
5468325	-121	149	-84
5468653	-113	168	-85
5468981	-118	175	-85
5469309	-99	156	-79
5469637	-95	163	-99
5469965	-112	150	-94
5470293	-103	164	-82
5470621	-112	144	-82
5470949	-114	151	-99
5471277	-117	160	-94
5471605	-128	153	-88
5471933	-117	149	-84
5472261	-103	151	-97
5472589	-111	139	-88
5472917	-114	131	-87
5473245	-88	129	-98
5473573	-99	123	-96
5473901	-101	118	-97
5474229	-105	118	-96
5474557	-127	129	-89
5474885	-101	126	-86
5475213	-115	115	-93
5475541	-104	112	-85
5475869	-107	104	-86
5476197	-103	106	-71
5476525	-117	111	-72
5476853	-98	108	-84
5477181	-109	99	-86
5477509	-123	102	-73
5477837	-132	114	-79
5478165	-137	100	-61
5478493	-133	105	-77
5478821	-98	97	-71
5479149	-94	93	-58
5479477	-79	84	-64
5479805	-80	104	-61
5480133	-67	95	-69
5480461	-67	93	-65
5480789	-76	112	-64
5481117	-78	99	-62
5481445	-82	98	-57
5481773	-69	122	-70
5482101	-53	119	-82
5482429	-51	106	-67
5482757	-64	110	-85
5483085	-85	125	-82
5483413	-67	115	-77
5483741	-67	112	-68
5484069	-54	114	-75
5484397	-34	106	-79
5484725	-32	112	-74
5485053	-34	117	-68
5485381	-55	105	-67
5485709	-46	117	-78
5486037	-39	112	-75
5486365	-51	121	-79
5486693	-53	96	-66
5487021	-46	95	-71
5487349	-49	113	-81
5487677	-36	110	-74
5488005	-44	111	-73
5488333	-49	112	-66
5488661	-48	110	-61
5488989	-15	122	-68
5489317	-24	107	-79
5489645	-20	111	-69
5489973	-19	111	-62
5490301	-10	117	-61
5490629	-32	120	-59
5490957	-1	117	-60
5491285	-9	120	-72
5491613	-9	115	-59
5491941	-37	123	-64
5492269	-28	116	-71
5492597	-44	128	-76
5492925	-42	119	-77
5493253	-43	128	-83
5493581	-44	122	-84
5493909	-69	124	-82
5494237	-67	112	-78
5494565	-63	115	-71
5494893	-67	115	-80
5495221	-52	131	-80
5495549	-44	116	-74
5495877	-33	108	-84
5496205	-37	118	-89
5496533	-20	133	-81
5496861	-37	110	-89
5497189	-31	128	-82
5497517	-41	116	-84
5497845	-42	128	-73
5498173	-39	122	-87
5498501	-44	120	-85
5498829	-50	125	-67
5499157	-56	126	-66
5499485	-58	122	-74
5499813	-50	125	-58
5500141	-51	116	-70
5500469	-49	120	-61
5500797	-34	130	-62
5501125	-40	120	-73
5501453	-50	128	-64
5501781	-54	113	-59
5502109	-65	123	-66
5502437	-87	121	-63
5502765	-77	134	-53
5503093	-72	118	-64
5503421	-66	119	-63
5503749	-32	119	-58
5504077	-15	116	-49
5504405	-24	138	-57
5504733	-21	139	-50
5505061	-15	130	-57
5505389	-31	124	-59
5505717	-44	124	-44
5506045	-49	129	-45
5506373	-53	131	-47
5506701	-45	139	-45
5507029	-31	137	-53
5507357	-15	127	-59
5507685	-15	131	-47
5508013	-24	127	-49
5508341	-31	138	-56
5508669	-47	135	-61
5508997	-57	131	-49
5509325	-41	125	-58
5509653	-57	120	-54
5509981	-49	114	-45
5510309	-47	113	-55
5510637	-32	119	-46
5510965	-39	110	-44
5511293	-21	121	-71
5511621	-17	106	-68
5511949	-11	121	-69
5512277	12	117	-60
5512605	-3	123	-57
5512933	1	117	-58
5513261	15	109	-64
5513589	14	115	-72
5513917	27	117	-65
5514245	12	110	-59
5514573	-4	115	-58
5514901	-5	112	-62
5515229	-20	97	-67
5515557	-25	120	-57
5515885	-29	122	-62
5516213	-36	110	-60
5516541	-34	101	-63
5516869	-44	93	-55
5517197	-42	90	-59
5517525	-35	101	-48
5517853	-38	97	-49
5518181	-54	106	-39
5518509	-48	103	-38
5518837	-52	105	-28
5519165	-33	94	-39
5519493	-26	106	-31
5519821	15	102	-32
5520149	17	102	-35
5520477	19	87	-23
5520805	0	85	-30
5521133	-21	95	-29
5521461	-28	95	-22
5521789	-19	98	-31
5522117	-36	82	-22
5522445	-32	91	-22
5522773	-41	89	-37
5523101	-54	95	-39
5523429	-44	93	-31
5523757	-61	95	-24
5524085	-48	94	-22
5524413	-54	94	-35
5524741	-40	88	-24
5525069	-46	84	-30
5525397	-57	85	-20
5525725	-59	86	-28
5526053	-62	81	-9
5526381	-49	91	-14
5526709	-39	88	-19
5527037	-37	93	-15
5527365	-22	102	-25
5527693	-27	97	-27
5528021	-27	110	-28
5528349	-34	98	-26
5528677	-40	89	-32
5529005	-40	102	-26
5529333	-33	99	-24
5529661	-41	97	-40
5529989	-23	101	-35
5530317	-17	91	-38
5530645	-11	100	-39
5530973	2	99	-34
5531301	-26	100	-38
5531629	-20	103	-34
5531957	-34	92	-29
5532285	-53	89	-44
5532613	-39	92	-35
5532941	-37	101	-47
5533269	-37	97	-44
5533597	-38	84	-34
5533925	-44	96	-36
5534253	-36	95	-35
5534581	-41	102	-45
5534909	-32	104	-43
5535237	-34	99	-42
5535565	-41	108	-34
5535893	-38	97	-41
5536221	-32	92	-33
5536549	-18	84	-29
5536877	-6	107	-33
5537205	-11	102	-27
5537533	3	118	-27
5537861	4	109	-25
5538189	-11	120	-38
5538517	-18	115	-23
5538845	-18	114	-16
5539173	-28	114	-35
5539501	-2	109	-24
5539829	-3	122	-30
5540157	-3	113	-30
5540485	-14	109	-35
5540813	-36	114	-30
5541141	-25	115	-35
5541469	-36	124	-36
5541797	-30	105	-38
5542125	-22	116	-46
5542453	-27	105	-29
5542781	-22	119	-30
5543109	-29	114	-29
5543437	-21	124	-30
5543765	-6	106	-27
5544093	-12	117	-26
5544421	-8	119	-30
5544749	-7	118	-23
5545077	-13	126	-27
5545405	-16	116	-39
5545733	-16	115	-30
5546061	5	118	-23
5546389	2	125	-26
5546717	-4	105	-33
5547045	-15	101	-26
5547373	-17	119	-24
5547701	-34	135	-31
5548029	-37	117	-31
5548357	-38	117	-40
5548685	-39	112	-33
5549013	-38	105	-28
5549341	-42	113	-30
5549669	-21	113	-24
5549997	-32	109	-18
5550325	-36	117	-24
5550653	-34	118	-34
5550981	-59	112	-23
5551309	-57	105	-18
5551637	-57	113	-18
5551965	-51	119	-27
5552293	-43	114	-16
5552621	-42	114	-28
5552949	-56	123	-33
5553277	-53	123	-29
5553605	-64	117	-25
5553933	-40	119	-30
5554261	-32	134	-39
5554589	-32	126	-36
5554917	-32	133	-39
5555245	-32	120	-31
5555573	-45	127	-31
5555901	-47	106	-34
5556229	-49	127	-22
5556557	-45	121	-24
5556885	-26	114	-22
5557213	-26	113	-25
5557541	-33	114	-18
5557869	-31	111	-13
5558197	-12	113	-18
5558525	-33	116	-15
5558853	-38	117	-26
5559181	-31	131	-20
5559509	-42	107	-14
5559837	-58	106	-12
5560165	-47	125	-31
5560493	-70	120	-21
5560821	-44	125	-20
5561149	-57	138	-21
5561477	-44	130	-14
5561805	-42	124	-33
5562133	-45	140	-36
5562461	-40	129	-34
5562789	-50	134	-31
5563117	-61	135	-35
5563445	-55	124	-21
5563773	-49	128	-38
5564101	-23	138	-37
5564429	-49	126	-31
5564757	-50	136	-34
5565085	-59	133	-29
5565413	-57	139	-42
5565741	-54	145	-28
5566069	-68	129	-31
5566397	-61	136	-34
5566725	-57	139	-33
5567053	-39	141	-34
5567381	-39	137	-30
5567709	-46	133	-36
5568037	-58	139	-38
5568365	-55	141	-34
5568693	-51	128	-25
5569021	-46	126	-37
5569349	-38	127	-36
5569677	-57	135	-33
5570005	-55	119	-38
5570333	-53	128	-31
5570661	-87	129	-37
5570989	-75	141	-25
5571317	-85	147	-26
5571645	-67	130	-33
5571973	-39	134	-24
5572301	-56	127	-33
5572629	-45	124	-44
5572957	-57	125	-48
5573285	-67	130	-39
5573613	-60	128	-44
5573941	-54	127	-43
5574269	-72	127	-45
5574597	-88	137	-37
5574925	-91	144	-40
5575253	-79	141	-45
5575581	-81	141	-51
5575909	-64	146	-40
5576237	-46	145	-50
5576565	-48	156	-60
5576893	-60	150	-61
5577221	-61	132	-41
5577549	-76	141	-55
5577877	-82	150	-65
5578205	-75	147	-48
5578533	-69	145	-45
5578861	-53	128	-44
5579189	-68	139	-49
5579517	-77	139	-42
5579845	-96	131	-37
5580173	-99	139	-35
5580501	-101	130	-39
5580829	-87	135	-48
5581157	-90	132	-41
5581485	-72	135	-36
5581813	-67	131	-43
5582141	-69	145	-36
5582469	-51	138	-39
5582797	-65	136	-31
5583125	-60	133	-36
5583453	-74	147	-38
5583781	-54	147	-26
5584109	-67	134	-37
5584437	-59	145	-36
5584765	-73	140	-34
5585093	-48	143	-37
5585421	-52	149	-31
5585749	-49	140	-39
5586077	-64	137	-34
5586405	-81	145	-43
5586733	-75	141	-44
5587061	-70	142	-44
5587389	-79	147	-41
5587717	-64	144	-31
5588045	-62	166	-38
5588373	-63	144	-35
5588701	-65	156	-33
5589029	-66	154	-34
5589357	-53	143	-37
5589685	-53	141	-38
5590013	-49	153	-32
5590341	-56	156	-38
5590669	-52	154	-30
5590997	-60	153	-31
5591325	-46	155	-34
5591653	-58	145	-34
5591981	-66	146	-44
5592309	-49	157	-40
5592637	-71	146	-38
5592965	-56	164	-43
5593293	-43	161	-37
5593621	-45	156	-42
5593949	-60	146	-38
5594277	-65	153	-38
5594605	-53	154	-45
5594933	-46	147	-33
5595261	-47	152	-35
5595589	-66	144	-32
5595917	-79	148	-42
5596245	-83	167	-34
5596573	-84	149	-25
5596901	-70	151	-29
5597229	-63	149	-23
5597557	-63	155	-28
5597885	-57	155	-42
5598213	-55	176	-25
5598541	-51	160	-28
5598869	-59	157	-36
5599197	-43	159	-34
5599525	-61	149	-40
5599853	-60	158	-26
5600181	-49	167	-23
5600509	-50	164	-37
5600837	-65	163	-17
5601165	-61	169	-36
5601493	-61	164	-37
5601821	-65	166	-34
5602149	-67	153	-20
5602477	-86	148	-28
5602805	-83	146	-37
5603133	-78	156	-23
5603461	-71	155	-16
5603789	-76	143	-23
5604117	-72	155	-26
5604445	-70	149	-25
5604773	-61	154	-20
5605101	-75	150	-12
5605429	-68	138	-16
5605757	-70	157	-17
5606085	-88	156	-14
5606413	-75	130	-15
5606741	-79	146	-12
5607069	-85	147	-13
5607397	-71	146	-24
5607725	-75	149	-26
5608053	-76	148	-23
5608381	-73	149	-28
5608709	-69	155	-27
5609037	-80	158	-20
5609365	-92	153	-22
5609693	-95	151	-32
5610021	-103	159	-26
5610349	-99	154	-20
5610677	-86	158	-19
5611005	-84	149	-28
5611333	-78	153	-20
5611661	-86	149	-16
5611989	-101	152	-13
5612317	-86	160	-27
5612645	-73	152	-20
5612973	-69	155	-26
5613301	-74	141	-32
5613629	-97	145	-26
5613957	-92	161	-30
5614285	-91	153	-17
5614613	-86	162	-21
5614941	-72	147	-24
5615269	-69	147	-38
5615597	-52	153	-37
5615925	-82	146	-23
5616253	-97	150	-19
5616581	-90	156	-19
5616909	-72	153	-29
5617237	-75	149	-30
5617565	-73	163	-23
5617893	-86	136	-30
5618221	-97	141	-35
5618549	-105	144	-20
5618877	-100	143	-14
5619205	-99	152	-25
5619533	-86	148	-17
5619861	-70	150	-11
5620189	-84	141	-16
5620517	-74	155	-26
5620845	-71	157	-12
5621173	-71	151	-21
5621501	-68	165	-24
5621829	-70	153	-21
5622157	-79	161	-18
5622485	-67	161	-19
5622813	-76	154	-16
5623141	-65	157	-18
5623469	-48	166	-15
5623797	-45	159	-11
5624125	-32	161	-9
5624453	-23	143	-12
5624781	-38	143	-8
5625109	-46	140	-5
5625437	-53	138	7
5625765	-70	136	-12
5626093	-59	141	-5
5626421	-80	143	1
5626749	-77	145	-5
5627077	-71	144	-3
5627405	-68	153	-6
5627733	-68	144	-16
5628061	-73	149	-32
5628389	-68	145	-24
5628717	-84	147	-22
5629045	-86	153	-35
5629373	-87	140	-42
5629701	-63	147	-52
5630029	-74	166	-49
5630357	-75	158	-68
5630685	-77	158	-67
5631013	-78	165	-74
5631341	-59	178	-81
5631669	-71	162	-78
5631997	-77	158	-96
5632325	-86	158	-77
5632653	-81	170	-82
5632981	-74	163	-83
5633309	-77	158	-88
5633637	-79	165	-92
5633965	-72	165	-87
5634293	-72	161	-87
5634621	-62	148	-82
5634949	-82	158	-82
5635277	-86	156	-77
5635605	-65	150	-74
5635933	-56	153	-63
5636261	-46	150	-59
5636589	-48	142	-57
5636917	-56	165	-51
5637245	-66	137	-46
5637573	-70	138	-55
5637901	-86	136	-35
5638229	-81	129	-55
5638557	-71	121	-43
5638885	-66	122	-31
5639213	-89	128	-33
5639541	-71	123	-43
5639869	-88	122	-26
5640197	-78	124	-19
5640525	-74	119	-36
5640853	-73	121	-36
5641181	-75	111	-33
5641509	-72	123	-20
5641837	-59	112	-11
5642165	-59	107	-5
5642493	-53	111	-2
5642821	-59	99	0
5643149	-67	108	-10
5643477	-54	116	-4
5643805	-59	111	-9
5644133	-58	110	1
5644461	-47	98	8
5644789	-45	120	6
5645117	-38	99	5
5645445	-39	114	3
5645773	-27	116	2
5646101	-20	112	1
5646429	-16	124	11
5646757	-39	116	3
5647085	-30	115	14
5647413	-39	119	22
5647741	-28	120	13
5648069	-19	111	5
5648397	-26	98	7
5648725	-34	113	14
5649053	-24	114	24
5649381	-39	121	17
5649709	-33	122	24
5650037	-9	103	17
5650365	-38	101	16
5650693	-34	98	19
5651021	-32	100	17
5651349	-46	108	10
5651677	-46	110	12
5652005	-55	102	11
5652333	-58	104	6
5652661	-40	93	4
5652989	-55	111	6
5653317	-30	104	10
5653645	-24	105	18
5653973	-30	95	9
5654301	-41	97	23
5654629	-44	104	16
5654957	-41	108	8
5655285	-43	109	16
5655613	-42	89	8
5655941	-41	99	8
5656269	-52	99	16
5656597	-52	104	15
5656925	-57	93	22
5657253	-48	101	4
5657581	-39	100	16
5657909	-54	94	-1
5658237	-64	101	10
5658565	-47	91	20
5658893	-43	99	12
5659221	-41	96	9
5659549	-35	96	7
5659877	-54	105	18
5660205	-39	108	2
5660533	-45	95	8
5660861	-34	100	8
5661189	-52	96	2
5661517	-48	97	-7
5661845	-80	87	10
5662173	-94	98	-6
5662501	-113	85	6
5662829	-115	82	13
5663157	-112	63	7
5663485	-111	67	12
5663813	-99	79	2
5664141	-94	78	2
5664469	-80	73	-5
5664797	-67	70	7
5665125	-46	68	18
5665453	-45	61	13
5665781	-59	64	-1
5666109	-88	70	7
5666437	-123	57	20
5666765	-176	37	31
5667093	-214	23	39
5667421	-241	-3	42
5667749	-237	-18	40
5668077	-233	-24	69
5668405	-237	-18	68
5668733	-260	-9	72
5669061	-260	-66	78
5669389	-313	-62	101
5669717	-327	-122	132
5670045	-384	-90	126
5670373	-410	-140	137
5670701	-434	-151	159
5671029	-434	-199	196
5671357	-407	-184	200
5671685	-334	-187	232
5672013	-279	-164	236
5672341	-236	-180	252
5672669	-170	-165	247
5672997	-123	-178	281
5673325	-67	-191	283
5673653	-40	-186	282
5673981	1	-223	273
5674309	-9	-230	270
5674637	33	-190	262
5674965	76	-173	253
5675293	131	-141	230
5675621	237	-141	205
5675949	314	-135	176
5676277	364	-124	134
5676605	398	-88	100
5676933	394	-55	74
5677261	436	-63	68
5677589	460	-39	56
5677917	479	-60	63
5678245	490	-49	71
5678573	533	-51	40
5678901	560	-58	14
5679229	585	-35	-11
5679557	618	-50	-21
5679885	636	-63	-9
5680213	629	-79	-15
5680541	649	-91	-29
5680869	679	-123	-19
5681197	671	-134	-39
5681525	642	-134	-47
5681853	650	-131	-60
5682181	630	-148	-83
5682509	605	-189	-88
5682837	603	-126	-102
5683165	625	-140	-101
5683493	619	-128	-122
5683821	669	-158	-153
5684149	774	-430	-169
5684477	719	-910	-166
5684805	707	-1243	-177
5685133	893	-1268	-189
5685461	1076	-1305	-262
5685789	1298	-1343	-329
5686117	1357	-1177	-490
5686445	1496	-885	-725
5686773	1481	-1015	-930
5687101	1544	-802	-1108
5687429	1563	-440	-1337
5687757	1596	-75	-1395
5688085	1730	297	-1457
5688413	1953	453	-1366
5688741	2189	643	-1252
5689069	2412	835	-1205
5689397	2464	1138	-1161
5689725	2499	1284	-1180
5690053	2509	1421	-1187
5690381	2579	1552	-1099
5690709	2675	1647	-879
5691037	2965	1627	-648
5691365	3632	1877	-462
5691693	4267	2041	-284
5692021	4806	2095	-264
5692349	5333	2229	-246
5692677	5703	2342	-221
5693005	5817	2363	-102
5693333	5592	2435	-83
5693661	5132	2564	-34
5693989	4559	2666	42
5694317	3955	2738	68
5694645	3341	2557	72
5694973	2738	2154	73
5695301	2050	1879	79
5695629	1325	1598	95
5695957	656	1373	137
5696285	3	1098	206
5696613	-780	854	358
5696941	-1273	863	566
5697269	-1584	1101	787
5697597	-1640	1326	972
5697925	-1670	1237	1083
5698253	-1423	868	1116
5698581	-1189	226	1020
5698909	-1147	-176	857
5699237	-928	-136	595
5699565	-749	-123	355
5699893	-411	-178	283
5700221	-178	-277	330
5700549	-24	-165	477
5700877	106	-141	603
5701205	121	-179	690
5701533	56	-125	731
5701861	-139	-42	736
5702189	-359	-76	737
5702517	-488	-28	780
5702845	-578	99	812
5703173	-616	291	838
5703501	-623	488	826
5703829	-613	445	831
5704157	-540	106	854
5704485	-468	-14	935
5704813	-498	-328	923
5705141	-404	-348	934
5705469	-409	-371	929
5705797	-446	-364	939
5706125	-493	-249	908
5706453	-414	-75	860
5706781	-331	67	810
5707109	-427	8	749
5707437	-312	-54	739
5707765	-150	148	802
5708093	-216	371	798
5708421	-126	590	761
5708749	-116	734	769
5709077	-115	989	756
5709405	-180	1055	717
5709733	-405	987	639
5710061	-553	347	600
5710389	-446	129	639
5710717	-469	269	531
5711045	-480	151	498
5711373	-485	66	452
5711701	-505	85	386
5712029	-547	145	314
5712357	-555	180	255
5712685	-528	286	179
5713013	-541	328	120
5713341	-509	392	54
5713669	-464	407	-1
5713997	-447	491	-36
5714325	-354	533	-40
5714653	-248	537	-116
5714981	-207	616	-167
5715309	-98	448	-182
5715637	-35	373	-281
5715965	-6	346	-322
5716293	45	232	-344
5716621	74	165	-417
5716949	89	112	-460
5717277	133	45	-466
5717605	101	-18	-521
5717933	111	-13	-602
5718261	141	-6	-602
5718589	166	-30	-627
5718917	147	-21	-685
5719245	99	-42	-730
5719573	26	-10	-758
5719901	-8	9	-716
5720229	66	5	-686
5720557	76	49	-712
5720885	70	43	-707
5721213	79	-2	-668
5721541	68	-20	-597
5721869	54	-15	-575
5722197	81	-9	-552
5722525	105	68	-525
5722853	146	35	-515
5723181	189	48	-501
5723509	254	31	-462
5723837	225	57	-426
5724165	173	21	-358
5724493	98	63	-275
5724821	20	48	-253
5725149	-27	110	-170
5725477	15	86	-143
5725805	50	54	-183
5726133	26	163	-156
5726461	37	92	-136
5726789	24	121	-116
5727117	12	98	-114
5727445	-8	143	-68
5727773	-1	159	-81
5728101	35	170	-83
5728429	109	162	-81
5728757	141	185	-73
5729085	178	171	-71
5729413	167	214	-57
5729741	131	175	-41
5730069	74	170	-22
5730397	-37	157	-22
5730725	-59	182	-13
5731053	-69	172	-36
5731381	-55	207	-30
5731709	-36	187	-42
5732037	-13	201	-39
5732365	-5	232	-62
5732693	15	237	-75
5733021	47	265	-80
5733349	24	253	-91
5733677	-33	237	-88
5734005	-71	237	-60
5734333	-29	255	-35
5734661	-28	282	-56
5734989	25	325	-85
5735317	82	314	-106
5735645	84	318	-91
5735973	52	310	-88
5736301	3	311	-97
5736629	-49	300	-109
5736957	-123	271	-107
5737285	-164	310	-117
5737613	-157	303	-133
5737941	-151	326	-186
5738269	-127	320	-219
5738597	-141	331	-215
5738925	-153	297	-221
5739253	-225	317	-235
5739581	-223	324	-234
5739909	-238	320	-259
5740237	-222	318	-273
5740565	-177	279	-287
5740893	-177	258	-305
5741221	-181	249	-300
5741549	-173	253	-303
5741877	-165	213	-316
5742205	-175	216	-310
5742533	-167	223	-298
5742861	-184	162	-276
5743189	-174	169	-284
5743517	-149	174	-274
5743845	-149	190	-281
5744173	-129	184	-290
5744501	-128	161	-284
5744829	-185	133	-278
5745157	-233	122	-266
5745485	-256	128	-243
5745813	-279	146	-261
5746141	-278	153	-254
5746469	-255	129	-257
5746797	-240	172	-257
5747125	-258	131	-264
5747453	-268	87	-233
5747781	-292	88	-202
5748109	-292	115	-222
5748437	-274	132	-235
5748765	-237	170	-232
5749093	-175	139	-224
5749421	-145	152	-238
5749749	-114	146	-233
5750077	-143	146	-223
5750405	-149	149	-204
5750733	-169	135	-204
5751061	-175	144	-190
5751389	-174	131	-202
5751717	-166	142	-192
5752045	-151	144	-183
5752373	-144	159	-170
5752701	-142	144	-164
5753029	-155	133	-176
5753357	-139	109	-163
5753685	-130	121	-160
5754013	-113	124	-177
5754341	-85	129	-163
5754669	-49	137	-165
5754997	-61	137	-170
5755325	-78	115	-158
5755653	-107	111	-134
5755981	-113	105	-106
5756309	-118	107	-113
5756637	-87	100	-127
5756965	-67	101	-117
5757293	-40	98	-121
5757621	-40	113	-120
5757949	-46	114	-115
5758277	-44	101	-117
5758605	-66	99	-106
5758933	-49	111	-115
5759261	-15	126	-132
5759589	4	136	-165
5759917	-4	115	-166
5760245	-18	109	-156
5760573	-55	96	-146
5760901	-52	110	-130
5761229	-53	77	-142
5761557	-36	88	-142
5761885	3	83	-123
5762213	23	85	-126
5762541	35	94	-130
5762869	26	101	-133
5763197	8	74	-134
5763525	-39	77	-120
5763853	-49	72	-121
5764181	-46	72	-102
5764509	-16	52	-122
5764837	11	40	-110
5765165	13	46	-116
5765493	36	48	-106
5765821	-3	34	-124
5766149	-36	30	-114
5766477	-63	45	-109
5766805	-86	27	-121
5767133	-81	54	-116
5767461	-90	53	-116
5767789	-67	44	-98
5768117	-75	50	-99
5768445	-64	55	-119
5768773	-100	35	-109
5769101	-131	42	-94
5769429	-161	19	-89
5769757	-165	57	-97
5770085	-137	64	-97
5770413	-72	75	-122
5770741	-29	58	-96
5771069	-15	63	-111
5771397	-60	56	-100
5771725	-122	50	-83
5772053	-158	45	-66
5772381	-147	63	-73
5772709	-112	81	-82
5773037	-45	61	-91
5773365	-22	72	-89
5773693	-28	79	-93
5774021	-41	87	-100
5774349	-75	80	-100
5774677	-70	81	-84
5775005	-76	103	-94
5775333	-61	92	-94
5775661	-55	91	-92
5775989	-30	96	-88
5776317	-23	104	-70
5776645	-2	79	-94
5776973	-14	81	-84
5777301	-45	70	-76
5777629	-67	89	-87
5777957	-69	96	-92
5778285	-64	100	-104
5778613	-49	112	-119
5778941	-35	101	-126
5779269	-19	110	-130
5779597	-31	118	-131
5779925	-24	125	-132
5780253	1	135	-140
5780581	28	138	-171
5780909	33	117	-187
5781237	-3	114	-173
5781565	-51	94	-138
5781893	-83	114	-136
5782221	-92	105	-133
5782549	-71	97	-133
5782877	-50	110	-148
5783205	-36	121	-136
5783533	-16	88	-121
5783861	-54	95	-119
5784189	-87	101	-109
5784517	-99	92	-96
5784845	-98	113	-99
5785173	-53	130	-115
5785501	-56	115	-119
5785829	-72	105	-107
5786157	-125	102	-95
5786485	-128	104	-101
5786813	-148	104	-85
5787141	-135	109	-74
5787469	-110	93	-74
5787797	-99	104	-67
5788125	-86	101	-74
5788453	-97	83	-62
5788781	-105	90	-28
5789109	-119	92	-20
5789437	-111	107	-46
5789765	-90	114	-53
5790093	-96	98	-38
5790421	-153	2	-37
5790749	-201	-192	2
5791077	-357	-567	25
5791405	-429	-613	17
5791733	-427	-549	45
5792061	-575	-1055	43
5792389	-592	-842	75
5792717	-575	-494	75
5793045	-577	-457	41
5793373	-563	-529	29
5793701	-635	-666	0
5794029	-521	-572	5
5794357	-541	-614	-2
5794685	-545	-403	-32
5795013	-554	-555	-105
5795341	-475	-538	-94
5795669	-438	-468	-168
5795997	-390	-333	-227
5796325	-328	-253	-279
5796653	-206	-181	-315
5796981	-103	-180	-354
5797309	-75	-126	-387
5797637	-81	-108	-446
5797965	-103	-15	-479
5798293	-34	139	-544
5798621	82	272	-623
5798949	251	357	-777
5799277	463	372	-922
5799605	653	450	-1123
5799933	694	608	-1273
5800261	831	791	-1389
5800589	996	999	-1536
5800917	1167	1285	-1734
5801245	1121	1528	-1988
5801573	820	1577	-2023
5801901	465	1389	-2094
5802229	176	1457	-2166
5802557	6	1413	-2344
5802885	-35	1388	-2569
5803213	-99	1623	-2717
5803541	-216	1469	-2977
5803869	-434	1569	-3190
5804197	-1104	1305	-3151
5804525	-1980	701	-3184
5804853	-2731	526	-2973
5805181	-3253	251	-3057
5805509	-3623	-210	-3098
5805837	-4335	-392	-3076
5806165	-5167	-791	-3100
5806493	-5422	-814	-2799
5806821	-6184	-1250	-2839
5807149	-6212	-586	-2248
5807477	-5867	-581	-2195
5807805	-5247	215	-1696
5808133	-3591	617	-1171
5808461	-1275	1347	-172
5808789	1104	2574	1090
5809117	2689	3871	2703
5809445	3135	3521	4612
5809773	3004	1310	5660
5810101	2862	639	4815
5810429	2531	1070	2703
5810757	1935	1397	1959
5811085	2151	1862	2133
5811413	3263	858	2484
5811741	4367	-793	2484
5812069	5202	-1812	2543
5812397	5721	-1204	2262
5812725	6254	-394	2179
5813053	6959	503	2291
5813381	7813	333	3338
5813709	6887	-114	4295
5814037	5819	-4022	4952
5814365	4508	-4584	5009
5814693	145	-294	2251
5815021	-576	1527	838
5815349	346	-879	1942
5815677	114	-1938	1884
5816005	-1031	486	1736
5816333	-1034	558	1798
5816661	-1031	-837	1992
5816989	-1613	357	1615
5817317	-1908	1047	1137
5817645	-1424	332	1045
5817973	-1125	368	744
5818301	-928	1200	482
5818629	-740	898	359
5818957	-560	430	303
5819285	-389	15	351
5819613	-277	42	423
5819941	-208	182	371
5820269	-298	81	463
5820597	-561	22	354
5820925	-988	115	-29
5821253	-1217	174	-468
5821581	-4388	948	-999
5821909	-7723	985	-2929
5822237	-8051	6620	-11047
5822565	-7935	3358	-8193
5822893	-6378	-3848	-4146
5823221	-2545	-5376	357
5823549	-1642	-233	2363
5823877	-4086	2660	2923
5824205	-1148	2950	1374
5824533	-74	-64	-2054
5824861	812	3752	-2579
5825189	-3563	-9978	-8716
5825517	-5921	-2936	-3650
5825845	-3815	8940	171
5826173	831	7903	-4289
5826501	4828	1881	140
5826829	7169	-6428	2316
5827157	7442	-7001	1568
5827485	4999	-2625	2647
5827813	1687	3127	2802
5828141	-781	2292	1968
5828469	-1968	-238	1757
5828797	-1215	-194	2067
5829125	360	579	1847
5829453	1465	-119	1577
5829781	1701	-735	1894
5830109	1452	-986	1606
5830437	1154	32	1291
5830765	813	198	1057
5831093	21	-383	1361
5831421	-265	-958	1430
5831749	-643	-413	1384
5832077	-1062	-507	1404
5832405	-978	-675	767
5832733	-1915	-173	1110
5833061	-1273	-553	457
5833389	-1277	-430	344
5833717	-774	-465	623
5834045	-544	-163	555
5834373	-613	-22	302
5834701	-523	139	408
5835029	-689	442	61
5835357	-444	440	155
5835685	-269	202	95
5836013	-93	241	56
5836341	194	116	-45
5836669	404	398	47
5836997	539	165	5
5837325	496	142	-25
5837653	332	277	0
5837981	136	145	228
5838309	-33	180	166
5838637	-344	326	145
5838965	-363	195	174
5839293	-462	276	135
5839621	-340	130	94
5839949	-389	131	144
5840277	-289	12	125
5840605	-279	-72	222
5840933	-313	-116	202
5841261	-321	-33	123
5841589	-257	-2	120
5841917	-145	-57	101
5842245	-113	-49	40
5842573	-93	-43	12
5842901	-7	-81	34
5843229	8	-100	27
5843557	33	-95	16
5843885	64	-60	-44
5844213	73	-64	-92
5844541	72	-48	-89
5844869	72	-31	-117
5845197	112	12	-126
5845525	111	10	-128
5845853	125	-22	-150
5846181	104	-24	-123
5846509	75	-27	-99
5846837	52	-11	-126
5847165	-13	0	-134
5847493	-34	-22	-142
5847821	-68	-33	-143
5848149	-66	-49	-110
5848477	-71	-51	-71
5848805	-50	-68	-41
5849133	-13	-52	-50
5849461	15	-35	-79
5849789	29	-41	-67
5850117	17	-41	-18
5850445	37	-37	-24
5850773	48	-11	-7
5851101	56	4	-11
5851429	96	10	-61
5851757	143	20	-64
5852085	125	-13	-42
5852413	83	-4	-36
5852741	20	20	3
5853069	0	-68	10
5853397	-38	56	-37
5853725	41	45	-70
5854053	68	41	-55
5854381	104	7	-32
5854709	64	2	8
5855037	109	-40	35
5855365	7	68	-17
5855693	5	-1	-15
5856021	20	-11	24
5856349	-26	16	35
5856677	18	11	-6
5857005	27	6	14
5857333	37	69	15
5857661	49	21	-32
5857989	93	46	-31
5858317	118	13	-16
5858645	73	46	-23
5858973	55	36	-24
5859301	7	53	-26
5859629	-21	19	-21
5859957	-41	30	-40
5860285	-1	51	-33
5860613	-2	24	-45
5860941	13	18	-52
5861269	-6	19	-51
5861597	-6	5	-28
5861925	-19	4	-60
5862253	-53	36	-64
5862581	-47	34	-64
5862909	-79	28	-71
5863237	-49	17	-61
5863565	-70	12	-64
5863893	-98	8	-72
5864221	-121	6	-66
5864549	-150	9	-68
5864877	-153	15	-56
5865205	-158	5	-60
5865533	-133	1	-75
5865861	-109	13	-85
5866189	-85	-1	-82
5866517	-87	-9	-80
5866845	-118	5	-71
5867173	-104	-2	-77
5867501	-95	23	-68
5867829	-89	34	-77
5868157	-99	24	-95
5868485	-70	34	-78
5868813	-61	29	-74
5869141	-81	39	-82
5869469	-85	49	-91
5869797	-85	44	-78
5870125	-99	44	-69
5870453	-92	51	-52
5870781	-101	58	-45
5871109	-84	68	-55
5871437	-95	76	-50
5871765	-83	92	-71
5872093	-75	98	-56
5872421	-91	91	-49
5872749	-70	88	-32
5873077	-63	107	-25
5873405	-47	126	-31
5873733	-19	127	-42
5874061	-13	109	-34
5874389	-31	112	-43
5874717	-42	113	-26
5875045	-48	127	-27
5875373	-40	126	-31
5875701	-42	143	-32
5876029	-32	130	-44
5876357	-37	141	-39
5876685	-47	145	-22
5877013	-48	138	-15
5877341	-65	130	-16
5877669	-61	152	-28
5877997	-36	150	-31
5878325	-41	150	-28
5878653	-30	116	-15
5878981	-37	124	1
5879309	-86	151	3
5879637	-90	109	-5
5879965	-113	139	-5
5880293	-93	101	4
5880621	-82	136	0
5880949	-87	125	-19
5881277	-82	123	-20
5881605	-95	149	-20
5881933	-118	122	-16
5882261	-124	112	-16
5882589	-149	131	0
5882917	-142	132	10
5883245	-112	135	-24
5883573	-103	116	-13
5883901	-86	132	-13
5884229	-82	126	-17
5884557	-93	140	-10
5884885	-95	137	-9
5885213	-97	147	-14
5885541	-115	134	-15
5885869	-81	145	-28
5886197	-76	153	-38
5886525	-70	146	-49
5886853	-78	151	-33
5887181	-69	142	-19
5887509	-68	164	-16
5887837	-75	169	-19
5888165	-58	166	-25
5888493	-62	172	-39
5888821	-47	156	-30
5889149	-57	152	-32
5889477	-64	154	-19
5889805	-63	156	-12
5890133	-61	145	-31
5890461	-56	172	-35
5890789	-48	153	-49
5891117	-55	142	-41
5891445	-60	158	-50
5891773	-69	160	-49
5892101	-95	165	-63
5892429	-111	152	-61
5892757	-116	154	-51
5893085	-111	153	-35
5893413	-111	179	-49
5893741	-94	171	-57
5894069	-76	158	-64
5894397	-80	178	-66
5894725	-96	170	-54
5895053	-89	167	-53
5895381	-95	154	-49
5895709	-72	163	-53
5896037	-64	169	-65
5896365	-55	166	-67
5896693	-45	168	-64
5897021	-51	171	-67
5897349	-79	150	-59
5897677	-86	150	-61
5898005	-116	165	-53
5898333	-113	163	-60
5898661	-106	166	-49
5898989	-111	160	-62
5899317	-106	149	-61
5899645	-103	136	-59
5899973	-107	138	-62
5900301	-113	156	-61
5900629	-107	133	-58
5900957	-110	147	-78
5901285	-81	160	-75
5901613	-70	165	-92
5901941	-86	139	-77
5902269	-87	142	-78
5902597	-94	134	-69
5902925	-93	149	-68
5903253	-82	137	-81
5903581	-99	157	-80
5903909	-105	144	-82
5904237	-85	154	-81
5904565	-79	165	-82
5904893	-69	167	-91
5905221	-53	182	-92
5905549	-51	162	-102
5905877	-66	159	-116
5906205	-49	152	-84
5906533	-51	166	-115
5906861	-86	147	-124
5907189	-95	157	-105
5907517	-61	161	-99
5907845	-69	163	-98
5908173	-71	150	-114
5908501	-67	147	-106
5908829	-59	150	-102
5909157	-55	152	-98
5909485	-40	144	-100
5909813	-45	164	-114
5910141	-36	147	-100
5910469	-45	160	-97
5910797	-68	130	-97
5911125	-82	117	-82
5911453	-87	128	-87
5911781	-94	119	-80
5912109	-77	131	-82
5912437	-76	145	-91
5912765	-57	129	-94
5913093	-57	137	-97
5913421	-70	134	-88
5913749	-64	125	-71
5914077	-83	133	-87
5914405	-69	144	-91
5914733	-57	147	-86
5915061	-27	143	-88
5915389	-16	144	-85
5915717	-16	155	-84
5916045	-21	145	-81
5916373	-37	147	-72
5916701	-54	139	-72
5917029	-52	143	-70
5917357	-64	152	-87
5917685	-68	149	-77
5918013	-73	157	-81
5918341	-76	136	-76
5918669	-91	149	-90
5918997	-94	151	-78
5919325	-107	143	-74
5919653	-112	139	-50
5919981	-94	139	-58
5920309	-83	155	-59
5920637	-58	142	-71
5920965	-58	123	-61
5921293	-82	127	-47
5921621	-105	118	-43
5921949	-105	130	-51
5922277	-99	129	-42
5922605	-103	127	-42
5922933	-81	132	-38
5923261	-79	136	-48
5923589	-62	127	-51
5923917	-90	131	-45
5924245	-81	123	-38
5924573	-111	133	-47
5924901	-93	133	-40
5925229	-71	134	-38
5925557	-60	147	-40
5925885	-65	132	-60
5926213	-74	133	-42
5926541	-71	135	-52
5926869	-75	124	-32
5927197	-93	135	-37
5927525	-117	146	-36
5927853	-81	125	-36
5928181	-75	142	-36
5928509	-83	138	-35
5928837	-84	135	-21
5929165	-83	132	-14
5929493	-81	140	-23
5929821	-58	153	-35
5930149	-52	130	-30
5930477	-31	135	-25
5930805	-31	128	-36
5931133	-56	126	-19
5931461	-90	133	-26
5931789	-80	124	-15
5932117	-84	133	-27
5932445	-90	138	-11
5932773	-70	123	-28
5933101	-64	128	-19
5933429	-75	117	-14
5933757	-67	116	-14
5934085	-78	130	-24
5934413	-80	135	-20
5934741	-86	119	-17
5935069	-74	130	-22
5935397	-71	124	-22
5935725	-56	134	-15
5936053	-56	129	-23
5936381	-62	139	-27
5936709	-68	130	-26
5937037	-78	137	-26
5937365	-69	133	-28
5937693	-88	141	-38
5938021	-88	131	-30
5938349	-90	110	-31
5938677	-63	126	-18
5939005	-76	115	-27
5939333	-77	131	-30
5939661	-95	121	-33
5939989	-95	129	-39
5940317	-103	136	-39
5940645	-90	126	-23
5940973	-85	133	-22
5941301	-77	146	-41
5941629	-59	134	-34
5941957	-53	134	-26
5942285	-61	132	-21
5942613	-72	125	-25
5942941	-67	136	-16
5943269	-71	123	-15
5943597	-50	136	-21
5943925	-40	124	-32
5944253	-40	106	-23
5944581	-44	130	-20
5944909	-69	139	-27
5945237	-62	130	-33
5945565	-84	131	-29
5945893	-80	128	-24
5946221	-68	128	-9
5946549	-74	139	-15
5946877	-57	125	-11
5947205	-60	122	-18
5947533	-59	125	-20
5947861	-60	102	-18
5948189	-62	116	-30
5948517	-71	115	-30
5948845	-65	120	-35
5949173	-61	123	-23
5949501	-68	122	-26
5949829	-67	115	-16
5950157	-62	119	-19
5950485	-45	129	-16
5950813	-33	122	-34
5951141	-21	113	-23
5951469	-37	120	-37
5951797	-60	131	-28
5952125	-70	128	-29
5952453	-73	99	-19
5952781	-66	122	-7
5953109	-71	116	-21
5953437	-57	112	-8
5953765	-48	113	-15
5954093	-39	100	-8
5954421	-41	113	-5
5954749	-39	99	-4
5955077	-64	111	-14
5955405	-55	114	-18
5955733	-48	114	-13
5956061	-59	96	-11
5956389	-49	125	-19
5956717	-47	112	-11
5957045	-58	99	-25
5957373	-61	109	-24
5957701	-49	118	-21
5958029	-73	104	-17
5958357	-66	115	-10
5958685	-63	103	-16
5959013	-63	115	-4
5959341	-67	117	-15
5959669	-60	107	-21
5959997	-54	118	-12
5960325	-40	111	-20
5960653	-78	119	-13
5960981	-79	102	-18
5961309	-78	116	-2
5961637	-79	99	-3
5961965	-76	122	-10
5962293	-61	106	-2
5962621	-64	105	-1
5962949	-56	115	-2
5963277	-62	89	6
5963605	-57	107	-6
5963933	-56	93	2
5964261	-58	106	1
5964589	-76	80	3
5964917	-76	94	-5
5965245	-81	108	-3
5965573	-59	92	10
5965901	-66	101	0
5966229	-49	102	-5
5966557	-64	105	5
5966885	-58	98	19
5967213	-54	131	10
5967541	-59	118	-3
5967869	-51	111	-8
5968197	-56	104	-11
5968525	-56	103	-6
5968853	-58	104	-12
5969181	-77	96	-19
5969509	-63	108	-3
5969837	-69	107	6
5970165	-45	115	-2
5970493	-64	119	-10
5970821	-70	113	-8
5971149	-55	119	1
5971477	-37	122	1
5971805	-35	135	-9
5972133	-20	102	-16
5972461	-39	111	-21
5972789	-56	101	-5
5973117	-64	103	-9
5973445	-73	104	-7
5973773	-68	106	-4
5974101	-58	87	-18
5974429	-51	106	-7
5974757	-28	92	-5
5975085	-17	114	-13
5975413	-34	88	-10
5975741	-56	93	-18
5976069	-60	97	0
5976397	-61	106	-10
5976725	-66	110	1
5977053	-37	87	-12
5977381	-29	101	-19
5977709	-46	94	-19
5978037	-60	94	-12
5978365	-98	103	-25
5978693	-96	106	-20
5979021	-89	114	-17
5979349	-88	101	-14
5979677	-77	121	-24
5980005	-51	101	-19
5980333	-46	104	-21
5980661	-45	106	-28
5980989	-57	104	-19
5981317	-47	103	-15
5981645	-75	110	-21
5981973	-79	99	-26
5982301	-88	106	-25
5982629	-59	115	-24
5982957	-83	106	-19
5983285	-67	104	-21
5983613	-68	99	-20
5983941	-89	108	-21
5984269	-73	112	-13
5984597	-66	108	-32
5984925	-67	109	-18
5985253	-64	104	-8
5985581	-66	102	-15
5985909	-45	117	-17
5986237	-28	115	-18
5986565	-45	110	-20
5986893	-40	108	-23
5987221	-38	107	-18
5987549	-38	105	-24
5987877	-41	115	-17
5988205	-32	131	-14
5988533	-26	110	-22
5988861	-54	111	-14
5989189	-52	108	-27
5989517	-68	105	-27
5989845	-52	92	-11
5990173	-56	100	-15
5990501	-46	111	-25
5990829	-36	113	-28
5991157	-12	104	-22
5991485	-15	112	-24
5991813	-22	103	-22
5992141	-37	110	-34
5992469	-59	110	-43
5992797	-49	102	-16
5993125	-47	110	-29
5993453	-25	108	-23
5993781	-15	110	-16
5994109	-20	96	-29
5994437	2	107	-29
5994765	-24	102	-22
5995093	-34	98	-25
5995421	-62	99	-19
5995749	-60	101	-14
5996077	-42	97	-19
5996405	-22	106	-9
5996733	-16	86	-14
5997061	-11	99	-9
5997389	-39	78	-15
5997717	-42	106	-16
5998045	-57	97	-9
5998373	-60	92	-36
5998701	-83	94	-30
5999029	-74	106	-17
5999357	-51	108	-29
5999685	-47	112	-34
6000013	-58	111	-18
6000341	-52	111	-42
6000669	-49	101	-33
6000997	-66	112	-31
6001325	-62	112	-35
6001653	-67	120	-33
6001981	-62	107	-29
6002309	-39	102	-43
6002637	-51	101	-40
6002965	-41	90	-26
6003293	-56	95	-26
6003621	-66	111	-30
6003949	-69	108	-34
6004277	-60	108	-29
6004605	-63	90	-23
6004933	-70	96	-29
6005261	-90	95	-21
6005589	-73	97	-34
6005917	-76	91	-33
6006245	-66	91	-31
6006573	-48	94	-29
6006901	-41	95	-30
6007229	-52	101	-27
6007557	-48	106	-25
6007885	-58	102	-31
6008213	-63	97	-25
6008541	-71	108	-29
6008869	-64	91	-30
6009197	-48	109	-35
6009525	-51	91	-35
6009853	-70	97	-55
6010181	-55	97	-48
6010509	-89	97	-48
6010837	-97	103	-44
6011165	-105	105	-56
6011493	-89	116	-37
6011821	-76	106	-45
6012149	-58	101	-34
6012477	-26	122	-24
6012805	-24	111	-35
6013133	-34	118	-42
6013461	-26	120	-43
6013789	-30	116	-33
6014117	-22	118	-27
6014445	-18	117	-16
6014773	-26	94	-6
6015101	-23	110	-1
6015429	-6	114	-7
6015757	-5	110	-17
6016085	-7	100	-18
6016413	-30	90	0
6016741	-55	93	0
6017069	-62	88	6
6017397	-71	85	-6
6017725	-71	81	-22
6018053	-92	80	-21
6018381	-96	96	-26
6018709	-81	110	-15
6019037	-38	137	-24
6019365	-7	133	-15
6019693	44	108	-25
6020021	69	113	-13
6020349	65	115	9
6020677	49	85	34
6021005	42	77	57
6021333	62	120	62
6021661	179	128	55
6021989	267	101	26
6022317	297	15	32
6022645	264	-32	30
6022973	165	-9	27
6023301	84	12	17
6023629	103	72	3
6023957	107	10	-12
6024285	32	-50	-46
6024613	-24	-67	-25
6024941	-66	-102	28
6025269	-108	-120	13
6025597	-106	-122	-21
6025925	-62	-169	-26
6026253	-51	-196	-29
6026581	-54	-209	-43
6026909	-67	-203	-31
6027237	-111	-197	-66
6027565	-149	-273	-103
6027893	-167	-306	-143
6028221	-176	-291	-220
6028549	-205	-234	-258
6028877	-320	-153	-327
6029205	-433	-67	-391
6029533	-458	40	-485
6029861	-306	185	-585
6030189	-173	293	-695
6030517	62	321	-739
6030845	230	229	-783
6031173	280	29	-824
6031501	178	-577	-814
6031829	232	-1140	-755
6032157	89	-779	-808
6032485	428	149	-852
6032813	324	623	-1083
6033141	641	1100	-1217
6033469	841	1676	-1207
6033797	1133	1967	-1069
6034125	1183	2034	-909
6034453	1230	2153	-730
6034781	1195	2077	-679
6035109	1092	1956	-599
6035437	786	1805	-531
6035765	379	1677	-561
6036093	-500	1616	-600
6036421	-1416	1421	-710
6036749	-2440	1365	-758
6037077	-3192	1435	-904
6037405	-3471	1399	-1118
6037733	-3837	1347	-1426
6038061	-3602	1224	-1712
6038389	-3122	640	-1875
6038717	-2525	213	-2058
6039045	-2075	2	-2244
6039373	-1757	-207	-2341
6039701	-1470	-351	-2387
6040029	-1550	-539	-2358
6040357	-1884	-679	-2438
6040685	-2193	-810	-2359
6041013	-2611	-906	-2385
6041341	-2826	-943	-2421
6041669	-2828	-1009	-2386
6041997	-2589	-977	-2430
6042325	-2247	-1168	-2478
6042653	-1786	-1356	-2552
6042981	-1363	-1598	-2628
6043309	-882	-1788	-2604
6043637	-557	-1933	-2457
6043965	-378	-2138	-2312
6044293	-392	-2353	-2172
6044621	-421	-2500	-2026
6044949	-601	-2673	-1928
6045277	-857	-2833	-1797
6045605	-1051	-2964	-1678
6045933	-1242	-2988	-1582
6046261	-1447	-3145	-1471
6046589	-1673	-3363	-1414
6046917	-1871	-3283	-1345
6047245	-1936	-3103	-1263
6047573	-1998	-3097	-1178
6047901	-2000	-3139	-1076
6048229	-1958	-3087	-1026
6048557	-1916	-2926	-1014
6048885	-1879	-2839	-1035
6049213	-1844	-2736	-975
6049541	-1800	-2583	-960
6049869	-1828	-2421	-914
6050197	-1846	-2244	-865
6050525	-1982	-2076	-835
6050853	-2275	-2004	-779
6051181	-2625	-1989	-667
6051509	-3135	-1792	-518
6051837	-3551	-1545	-329
6052165	-3976	-1338	-147
6052493	-4287	-1401	-82
6052821	-4705	-1964	-18
6053149	-4513	-2012	190
6053477	-3964	-1937	486
6053805	-3408	-2148	823
6054133	-2979	-2108	930
6054461	-2498	-2103	768
6054789	-1952	-1958	634
6055117	-1413	-1320	420
6055445	-845	-624	185
6055773	-322	-475	218
6056101	199	-503	611
6056429	466	-477	1163
6056757	482	-355	1571
6057085	358	-170	1698
6057413	148	-86	1591
6057741	-67	-54	1380
6058069	-203	-54	1215
6058397	-247	-78	1198
6058725	-240	-67	1336
6059053	-284	35	1470
6059381	-391	280	1527
6059709	-497	475	1460
6060037	-584	641	1332
6060365	-528	787	1214
6060693	-367	860	1217
6061021	29	894	1267
6061349	-106	825	1334
6061677	-355	859	1313
6062005	-394	789	1241
6062333	-409	848	1236
6062661	-331	860	1189
6062989	-293	631	1198
6063317	-239	430	1241
6063645	-363	582	1244
6063973	-637	563	1308
6064301	-984	321	1233
6064629	-1342	67	1124
6064957	-1692	-105	1053
6065285	-2033	-223	977
6065613	-2235	-185	892
6065941	-2204	-177	745
6066269	-1973	-26	595
6066597	-1609	97	446
6066925	-1183	157	384
6067253	-808	169	314
6067581	-593	184	228
6067909	-451	162	95
6068237	-392	121	19
6068565	-359	3	-53
6068893	-384	-54	-116
6069221	-470	-80	-161
6069549	-524	-76	-264
6069877	-520	-84	-347
6070205	-423	-186	-439
6070533	-345	-271	-570
6070861	-323	-460	-660
6071189	-206	-1151	-682
6071517	73	-2336	-727
6071845	-7	-2336	-749
6072173	280	-2096	-936
6072501	388	-3495	-987
6072829	272	-2424	-1018
6073157	343	-1115	-1224
6073485	420	-1335	-1285
6073813	335	-1307	-1392
6074141	528	-594	-1493
6074469	606	-341	-1556
6074797	694	-237	-1551
6075125	842	-225	-1569
6075453	924	-259	-1494
6075781	905	-113	-1482
6076109	966	41	-1426
6076437	1030	84	-1387
6076765	993	164	-1337
6077093	987	255	-1310
6077421	966	137	-1285
6077749	984	215	-1235
6078077	926	324	-1161
6078405	851	291	-1099
6078733	734	326	-1014
6079061	720	600	-922
6079389	803	888	-913
6079717	1124	1102	-963
6080045	1650	1435	-978
6080373	2518	2348	-853
6080701	3547	2828	-435
6081029	4051	2385	-201
6081357	4727	2784	-94
6081685	5373	2928	-250
6082013	5994	2941	-201
6082341	6356	3165	-37
6082669	6185	3302	190
6082997	5797	3183	274
6083325	5324	2898	220
6083653	4820	2937	191
6083981	4574	2805	100
6084309	4319	2583	108
6084637	3981	2315	168
6084965	3452	1880	250
6085293	2789	1481	359
6085621	2134	1336	338
6085949	1601	1005	290
6086277	1077	664	249
6086605	788	494	307
6086933	601	369	381
6087261	606	547	565
6087589	622	592	721
6087917	623	569	696
6088245	623	365	629
6088573	586	115	588
6088901	513	148	587
6089229	425	113	509
6089557	449	206	429
6089885	645	310	304
6090213	820	378	194
6090541	967	422	19
6090869	1244	305	-193
6091197	1504	18	-313
6091525	1929	193	-362
6091853	2191	238	-274
6092181	2290	127	-236
6092509	2158	218	-203
6092837	1869	234	-217
6093165	1842	-4	-323
6093493	1814	-33	-401
6093821	1895	-45	-437
6094149	1932	-164	-434
6094477	1889	-308	-478
6094805	1930	-274	-449
6095133	1933	-360	-467
6095461	1992	-487	-484
6095789	1969	-550	-454
6096117	1942	-771	-460
6096445	1930	-934	-485
6096773	2013	-1055	-491
6097101	2121	-1224	-480
6097429	2177	-1351	-408
6097757	2196	-1647	-330
6098085	2225	-1919	-298
6098413	2262	-2515	-278
6098741	2222	-2631	-347
6099069	2304	-2779	-441
6099397	2409	-3228	-485
6099725	2508	-3988	-464
6100053	2479	-3558	-429
6100381	2433	-3049	-493
6100709	2882	-2663	-629
6101037	3639	-2153	-813
6101365	4577	-1837	-683
6101693	5879	-1648	-505
6102021	7043	-1316	-565
6102349	8276	-1008	-862
6102677	9575	-934	-927
6103005	10603	-505	-1051
6103333	10908	624	-928
6103661	11322	1706	-1499
6103989	11989	3437	-2061
6104317	12289	5588	-2432
6104645	11690	7707	-2978
6104973	10887	8901	-4342
6105301	10714	10109	-5599
6105629	10832	12408	-6516
6105957	10260	12212	-7529
6106285	9706	13464	-8430
6106613	8750	13677	-8983
6106941	8815	12779	-8765
6107269	8556	13322	-8047
6107597	8170	11595	-6991
6107925	7331	9321	-5590
6108253	6483	8460	-4472
6108581	6009	8116	-3374
6108909	5708	6296	-2419
6109237	5679	5058	-1923
6109565	5630	3754	-1212
6109893	5809	3114	38
6110221	5489	3409	763
6110549	6105	1423	1589
6110877	6112	1051	2128
6111205	6329	1825	2247
6111533	5531	1836	1871
6111861	5560	1863	44
6112189	6527	3609	-374
6112517	7278	5657	341
6112845	8682	7889	309
6113173	10595	9983	1373
6113501	12328	9607	1636
6113829	13462	9929	1353
6114157	13723	9508	817
6114485	13807	8829	605
6114813	13325	8063	360
6115141	11852	8096	-379
6115469	9729	6950	-853
6115797	7255	6339	-1131
6116125	4892	6009	-1594
6116453	2992	5215	-2029
6116781	1789	4879	-2563
6117109	1167	4332	-2829
6117437	630	3911	-3121
6117765	-85	2817	-3223
6118093	-554	1434	-3310
6118421	-1035	-179	-3275
6118749	-2289	-1394	-2630
6119077	-4401	-1925	-1375
6119405	-7237	-2132	-813
6119733	-9382	-2165	-1308
6120061	-9802	-1412	-1846
6120389	-8688	-580	-1623
6120717	-6415	-382	-1524
6121045	-4411	-173	-1781
6121373	-2719	-898	-1834
6121701	-1589	-199	-1740
6122029	-1150	550	-1733
6122357	-1179	930	-1713
6122685	-1402	1022	-1841
6123013	-1367	1660	-2236
6123341	-1214	2642	-2261
6123669	-1033	2759	-2415
6123997	-693	3063	-2481
6124325	-94	3281	-2387
6124653	334	3416	-2745
6124981	633	3176	-3013
6125309	1015	2121	-2989
6125637	1078	2143	-2956
6125965	1063	1944	-2696
6126293	836	1640	-2479
6126621	680	1668	-2410
6126949	784	1587	-2398
6127277	1492	2035	-2581
6127605	3528	3444	-2749
6127933	6502	5121	-3041
6128261	9806	6155	-3516
6128589	12231	6685	-3612
6128917	14231	5625	-3766
6129245	15688	4688	-4587
6129573	15427	4814	-5479
6129901	11909	5549	-6838
6130229	7140	5427	-8352
6130557	5204	7785	-8631
6130885	4501	8065	-8490
6131213	3165	5971	-8149
6131541	4384	4066	-6895
6131869	7336	541	-4304
6132197	9929	-1756	-753
6132525	12674	-2164	2711
6132853	14351	289	5839
6133181	13832	1449	9091
6133509	13228	1679	8469
6133837	13036	313	7694
6134165	12976	644	6950
6134493	14413	129	5765
6134821	12853	-642	3593
6135149	8242	-2225	-615
6135477	-2044	-1169	-5654
6135805	-7325	-1589	-7585
6136133	-6768	294	-6155
6136461	-4175	486	-5528
6136789	-2359	3340	-3105
6137117	2548	4945	-568
6137445	8093	6062	-163
6137773	11774	3829	-2026
6138101	12125	209	-5132
6138429	8214	1954	-2813
6138757	4258	2529	-562
6139085	122	774	16
6139413	-1004	-1508	768
6139741	69	-2542	-326
6140069	2657	-2985	11
6140397	2573	-2819	1053
6140725	241	-2049	1734
6141053	-1355	-2014	1442
6141381	-522	-1790	675
6141709	959	-1080	-54
6142037	1693	-1103	66
6142365	2251	-928	293
6142693	1708	-1041	666
6143021	536	-878	1055
6143349	-1005	-898	1116
6143677	-2027	-1315	1305
6144005	-2634	-1280	1292
6144333	-3044	-1120	1043
6144661	-2946	-1388	951
6144989	-2606	-1131	892
6145317	-2690	-434	815
6145645	-3373	-102	503
6145973	-4232	321	326
6146301	-4998	577	106
6146629	-5105	1372	-462
6146957	-4846	2194	-1019
6147285	-4685	2251	-1399
6147613	-4947	2172	-1797
6147941	-5700	1898	-1964
6148269	-6531	1338	-2013
6148597	-7801	1108	-2497
6148925	-8936	1303	-2093
6149253	-9833	384	-2259
6149581	-11004	11	-2274
6149909	-11862	-149	-2602
6150237	-12169	-492	-2352
6150565	-11911	-1249	-2092
6150893	-11797	-2001	-1571
6151221	-11046	-2605	-674
6151549	-10664	-3335	0
6151877	-10158	-3678	815
6152205	-9750	-4249	1512
6152533	-9382	-4686	2109
6152861	-8914	-4576	2878
6153189	-8129	-4348	3977
6153517	-7478	-3842	4698
6153845	-6601	-3284	4913
6154173	-6347	-2933	4950
6154501	-5683	-2495	4877
6154829	-4214	-696	3922
6155157	-2975	31	3793
6155485	-1589	-12	2103
6155813	-850	-1744	1564
6156141	5	-4455	2800
6156469	150	-2473	4575
6156797	470	-1153	6557
6157125	176	678	6696
6157453	180	712	6749
6157781	759	851	7021
6158109	2815	1044	7900
6158437	4670	3741	8943
6158765	4544	3711	10249
6159093	5293	5684	10881
6159421	5453	5296	10605
6159749	2829	2546	8687
6160077	-2087	-5134	-789
6160405	-2509	-3124	-1648
6160733	-1945	2902	-436
6161061	-318	2465	1823
6161389	3387	2509	3028
6161717	6274	2601	3535
6162045	6142	2894	3521
6162373	4375	224	4565
6162701	2239	-36	5377
6163029	-364	845	4702
6163357	-2707	253	3729
6163685	-4351	-436	2725
6164013	-4981	-940	2127
6164341	-5261	-1448	1833
6164669	-5414	-1262	1667
6164997	-5462	-724	1608
6165325	-5814	-641	1568
6165653	-6227	-522	1165
6165981	-6788	-553	617
6166309	-7354	-590	75
6166637	-7977	-821	-472
6166965	-8470	-1532	-1426
6167293	-9337	-1723	-1686
6167621	-10508	-2788	-2008
6167949	-11629	-4121	-2372
6168277	-12850	-4879	-2963
6168605	-15401	-6252	-3703
6168933	-17481	-9531	-4763
6169261	-18267	-10595	-5817
6169589	-19548	-11764	-6916
6169917	-20250	-12326	-7072
6170245	-20724	-12593	-7687
6170573	-22518	-13104	-7655
6170901	-22877	-14614	-8340
6171229	-23871	-15642	-9300
6171557	-23899	-16252	-9473
6171885	-24142	-16929	-9671
6172213	-24021	-16838	-9556
6172541	-23834	-16329	-8695
6172869	-23183	-15536	-8112
6173197	-21729	-14199	-7687
6173525	-20173	-12468	-6523
6173853	-17558	-10431	-5359
6174181	-14100	-9178	-4704
6174509	-11597	-7191	-3880
6174837	-8996	-6646	-2975
6175165	-6260	-6048	-2826
6175493	-5124	-5000	-2133
6175821	-5422	-5252	-1702
6176149	-5735	-5954	-2432
6176477	-5984	-7016	-3089
6176805	-5816	-7263	-2952
6177133	-5884	-8503	-2649
6177461	-6792	-8691	-2027
6177789	-7558	-9750	-1211
6178117	-8435	-10521	-144
6178445	-9000	-10317	694
6178773	-8292	-10651	641
6179101	-6994	-11395	1420
6179429	-5979	-13568	1339
6179757	-5797	-14264	1317
6180085	-6075	-13834	2415
6180413	-5465	-15102	3650
6180741	-5364	-15558	4606
6181069	-6455	-15178	5782
6181397	-8564	-15442	6959
6181725	-9935	-13506	6506
6182053	-11646	-8940	4818
6182381	-12708	-4542	2805
6182709	-12319	2	-1368
6183037	-8261	2780	-3929
6183365	-2931	-217	-3762
6183693	3591	-4176	455
6184021	6456	2318	1718
6184349	6868	2848	7944
6184677	1585	-987	2785
6185005	-2286	-3000	-2338
6185333	-3429	-635	-3059
6185661	-1721	596	-1884
6185989	1104	-349	-514
6186317	1868	-1245	41
6186645	1430	322	331
6186973	-420	1149	-947
6187301	-2392	200	-1429
6187629	-3111	-954	-1374
6187957	-3598	513	-995
6188285	-2986	1087	-847
6188613	-2178	1291	-1065
6188941	-942	1691	-1441
6189269	-169	1046	-1758
6189597	109	109	-2241
6189925	16	-25	-2294
6190253	-160	-122	-2002
6190581	-654	-645	-1998
6190909	-1431	-1167	-2296
6191237	-3021	-1621	-2317
6191565	-4537	-2098	-3988
6191893	-6013	-2460	-5845
6192221	-6567	-935	-7341
6192549	-6317	165	-8236
6192877	-5530	501	-8594
6193205	-8575	273	-6752
6193533	-12516	-1143	-8101
6193861	-13386	1080	-7839
6194189	-13313	1034	-6701
6194517	-11213	926	-4299
6194845	-13073	3125	-2853
6195173	-10139	6184	831
6195501	-4886	6397	4465
6195829	-3190	6149	8518
6196157	-2153	5399	10998
6196485	-4300	5829	15162
6196813	-4489	7374	19002
6197141	-4237	6407	20390
6197469	-3718	1631	21632
6197797	-4130	-1371	22671
6198125	-4814	-5226	23204
6198453	-6521	-6463	23799
6198781	-7434	-7188	23007
6199109	-8817	-10449	21848
6199437	-10690	-11439	21458
6199765	-13796	-11467	20287
6200093	-16724	-12771	20405
6200421	-18966	-11672	18894
6200749	-21259	-14464	16371
6201077	-23193	-16514	13323
6201405	-24244	-19825	9715
6201733	-26067	-21083	7053
6202061	-28268	-19504	2875
6202389	-29708	-17556	-1022
6202717	-30448	-15947	-4874
6203045	-31077	-11518	-9183
6203373	-29909	-7413	-13685
6203701	-26939	-6178	-17026
6204029	-23424	-8022	-13364
6204357	-18745	-6107	-9037
6204685	-14762	-270	-6841
6205013	-10843	-3091	-5694
6205341	-8198	1465	-2735
6205669	-4405	-394	-1676
6205997	917	1958	1441
6206325	1759	-10773	4919
6206653	7456	9620	8848
6206981	8866	9538	-2775
6207309	8841	3374	-2807
6207637	8390	5778	-1880
6207965	7173	4570	172
6208293	7426	3210	1582
6208621	3314	100	1033
6208949	-571	984	17
6209277	-4966	3230	-1057
6209605	-5691	766	-3415
6209933	-5354	-1145	-5147
6210261	-5291	2110	-4417
6210589	-4540	2514	-2638
6210917	-3020	3377	-1172
6211245	-2607	4436	-397
6211573	-2295	4330	-280
6211901	-1484	3415	-293
6212229	-538	1773	-462
6212557	-416	1558	1
6212885	-585	1536	430
6213213	-533	535	397
6213541	-570	-54	181
6213869	-666	503	-82
6214197	-817	533	-102
6214525	-841	580	-175
6214853	-830	1067	-559
6215181	-515	1317	-474
6215509	-145	1360	-391
6215837	313	1748	-556
6216165	926	1480	-700
6216493	1464	988	-518
6216821	1600	591	-90
6217149	1242	27	108
6217477	871	-418	349
6217805	443	-796	372
6218133	-19	-1152	465
6218461	-369	-1471	530
6218789	-736	-1759	339
6219117	-914	-1288	685
6219445	-746	-1288	918
6219773	-498	-1198	907
6220101	-313	-1365	1221
6220429	161	-2311	1430
6220757	223	-2879	1637
6221085	285	-2924	1603
6221413	209	-2713	1727
6221741	445	-2902	1943
6222069	667	-3400	2081
6222397	811	-3487	2505
6222725	1175	-3691	2291
6223053	1629	-3683	2517
6223381	2285	-3749	2692
6223709	2977	-4235	3101
6224037	4024	-5418	3883
6224365	4632	-4782	5272
6224693	5617	-4270	5610
6225021	6986	-4280	6205
6225349	8574	-3145	6410
6225677	10190	-2962	5910
6226005	11969	-2740	5020
6226333	14538	-2283	4228
6226661	17227	-116	3124
6226989	20743	2714	1576
6227317	23304	3689	163
6227645	25717	6215	-1035
6227973	27060	9134	-3367
6228301	25772	9519	-6167
6228629	21101	7183	-9433
6228957	15965	9424	-12287
6229285	8706	9253	-12872
6229613	1957	5768	-14089
6229941	-2727	8123	-16752
6230269	-3780	10960	-18367
6230597	-3000	12536	-18103
6230925	-559	13701	-14533
6231253	1783	11590	-14409
6231581	3431	10718	-14448
6231909	4136	9795	-15242
6232237	4383	8687	-15346
6232565	4309	7402	-14950
6232893	4862	7050	-14456
6233221	5834	7373	-13478
6233549	6435	6726	-12002
6233877	6840	6448	-9900
6234205	7366	7585	-7257
6234533	9116	8470	-5089
6234861	11203	8708	-2824
6235189	13298	8406	-1415
6235517	15645	9124	-314
6235845	17440	10458	1080
6236173	19665	12288	2038
6236501	21734	13761	2813
6236829	23061	12455	3787
6237157	24007	12213	5100
6237485	24192	13196	5706
6237813	22914	13751	5032
6238141	20970	13639	4495
6238469	18266	13918	4193
6238797	16060	12922	4306
6239125	12309	10486	4414
6239453	3858	4134	2922
6239781	-367	-2340	2502
6240109	-1324	-1133	-4148
6240437	-3658	-10400	-4863
6240765	-8166	-438	41
6241093	-12031	3574	1089
6241421	-11872	3565	3170
6241749	-9755	6965	8095
6242077	-6977	4560	4861
6242405	34	1568	1608
6242733	4732	1192	1141
6243061	7402	1477	479
6243389	7452	1734	1822
6243717	5558	2702	2548
6244045	3767	3726	3120
6244373	3218	4406	2690
6244701	3687	4342	2404
6245029	4678	3660	1721
6245357	5321	2554	515
6245685	5646	1515	130
6246013	5311	1570	-238
6246341	4556	1972	-694
6246669	4089	2452	-708
6246997	4168	2434	-721
6247325	4383	2962	-709
6247653	4715	3048	-1010
6247981	5336	2771	-1614
6248309	6078	2995	-1634
6248637	7431	3035	-1978
6248965	9169	3453	-2018
6249293	10835	4095	-2004
6249621	13889	5089	-1841
6249949	16983	7473	-949
6250277	19718	9057	-244
6250605	22153	9269	-164
6250933	24497	9326	-970
6251261	26017	9571	-1184
6251589	27066	10657	-1129
6251917	27555	9828	-2108
6252245	26878	9153	-2496
6252573	25929	8236	-2993
6252901	23843	6547	-3288
6253229	21909	4896	-3640
6253557	18506	3424	-3852
6253885	14848	3075	-4795
6254213	10682	3264	-4623
6254541	6769	1928	-3638
6254869	4987	2324	-3065
6255197	5555	2390	-3402
6255525	6035	1784	-4169
6255853	6043	746	-4662
6256181	4057	-984	-5163
6256509	1672	-558	-5032
6256837	-740	-1037	-4652
6257165	-2492	-1411	-4392
6257493	-3719	-1407	-3444
6257821	-4477	-1196	-2243
6258149	-4769	-1653	-759
6258477	-4865	-2819	-234
6258805	-4152	-3699	-396
6259133	-2378	-2842	-275
6259461	-1449	-3053	-40
6259789	-1040	-2424	-28
6260117	-546	-2415	-241
6260445	16	-2198	-239
6260773	281	-1901	-250
6261101	-16	-838	-131
6261429	-119	1017	20
6261757	-1060	1662	529
6262085	-1067	1863	792
6262413	-722	1781	763
6262741	270	819	-116
6263069	1390	356	-1183
6263397	2348	-118	-1690
6263725	2134	-581	-1515
6264053	1352	-953	-1217
6264381	443	-1119	-1096
6264709	-173	-1088	-1320
6265037	-470	-1492	-1535
6265365	-597	-2143	-1633
6265693	-980	-2247	-1633
6266021	-1254	-2269	-1674
6266349	-1340	-2336	-2097
6266677	-1389	-2270	-2293
6267005	-1843	-2682	-2533
6267333	-2975	-3053	-3669
6267661	-4077	-3314	-4490
6267989	-5134	-3244	-5027
6268317	-5433	-3256	-6312
6268645	-5060	-2924	-7224
6268973	-6801	-2973	-8513
6269301	-10167	-2623	-9267
6269629	-13100	-3296	-9483
6269957	-15185	-3796	-8979
6270285	-16884	-4123	-8221
6270613	-15012	-2211	-6119
6270941	-14630	311	-4834
6271269	-14758	716	-2632
6271597	-12633	2059	527
6271925	-7887	3753	1100
6272253	-6154	3795	2553
6272581	-5514	1963	3635
6272909	-5378	2259	5066
6273237	-5321	3975	7870
6273565	-3778	3234	8747
6273893	-3409	2571	10277
6274221	-2956	607	11493
6274549	-2435	-1545	12824
6274877	-2195	-2888	14386
6275205	-2967	-3542	15571
6275533	-4028	-4145	17017
6275861	-4833	-5749	16811
6276189	-5619	-6414	16260
6276517	-6344	-8051	16595
6276845	-6881	-9514	16134
6277173	-7057	-9055	15930
6277501	-7049	-9315	15356
6277829	-6493	-7669	17693
6278157	-5283	-8148	16164
6278485	-5852	-7457	15433
6278813	-5238	-9151	14014
6279141	-5232	-10547	13589
6279469	-4810	-10892	12888
6279797	-4233	-9884	10974
6280125	-3487	-8445	7929
6280453	-2357	-9498	5692
6280781	-1617	-6770	3663
6281109	-400	-2815	2173
6281437	1432	538	1582
6281765	3354	2248	359
6282093	5138	2564	-816
6282421	5027	3304	-786
6282749	4033	1601	-2160
6283077	1816	960	-2590
6283405	-2632	1369	-5360
6283733	-3892	23	-9295
6284061	-5525	-113	-11849
6284389	-8620	3706	-11069
6284717	-9823	1248	-10101
6285045	-11057	-4556	-7711
6285373	-10394	-962	-5191
6285701	-8829	861	-1568
6286029	-5928	475	1234
6286357	-4567	-195	-1237
6286685	-2773	2752	-2261
6287013	-584	3163	-3610
6287341	1802	1463	-4049
6287669	3094	1491	-4340
6287997	3574	1728	-4073
6288325	3484	2158	-3492
6288653	2851	3018	-2778
6288981	2392	4072	-3309
6289309	2419	4557	-3412
6289637	3034	4670	-3333
6289965	3703	4461	-3375
6290293	4161	4204	-3557
6290621	4233	4385	-3741
6290949	4655	4599	-3800
6291277	5158	4696	-3861
6291605	5976	4932	-4016
6291933	6657	4838	-4061
6292261	7291	4299	-4057
6292589	8063	2758	-3889
6292917	8504	2191	-3710
6293245	8577	2083	-3796
6293573	8712	589	-4410
6293901	7717	908	-4753
6294229	6981	1656	-5349
6294557	6220	1049	-5761
6294885	5806	1032	-5781
6295213	5851	2190	-5598
6295541	6312	4690	-5101
6295869	6826	6714	-4341
6296197	8035	8317	-4199
6296525	9788	9558	-4367
6296853	12522	10228	-4237
6297181	12959	10345	-2587
6297509	12376	6748	-1467
6297837	10998	1745	-2624
6298165	10651	2460	-1998
6298493	10092	5033	-1899
6298821	8051	4013	-1642
6299149	6360	2477	-1312
6299477	4379	-1318	-2163
6299805	1222	-3100	-2458
6300133	-800	-1360	-2827
6300461	-1519	-1177	-2607
6300789	-1426	-1386	-2277
6301117	-1037	-1991	-2265
6301445	-513	-1788	-1927
6301773	-78	-1605	-1450
6302101	-15	-2080	-1034
6302429	-813	-1944	-438
6302757	-853	-1501	-257
6303085	-358	-994	-207
6303413	752	-420	-39
6303741	2776	-28	317
6304069	4307	448	926
6304397	4970	247	508
6304725	4805	335	273
6305053	3949	-434	-83
6305381	2299	-1191	-146
6305709	938	-2437	-133
6306037	-57	-2106	-130
6306365	-831	-1459	229
6306693	-1471	-758	591
6307021	-963	55	417
6307349	323	-97	186
6307677	1184	-124	287
6308005	1834	-194	217
6308333	1627	-237	329
6308661	917	76	503
6308989	428	304	650
6309317	351	603	756
6309645	839	1159	553
6309973	1399	-80	422
6310301	1485	-257	484
6310629	1383	204	440
6310957	1062	232	454
6311285	843	543	339
6311613	922	1524	180
6311941	1161	1674	46
6312269	1611	1091	54
6312597	1815	1012	-50
6312925	1674	721	-17
6313253	1385	733	22
6313581	1003	36	90
6313909	612	-468	199
6314237	417	-114	125
6314565	511	-196	162
6314893	897	-137	123
6315221	1590	362	28
6315549	1870	601	111
6315877	2223	898	278
6316205	2569	1171	344
6316533	2725	890	495
6316861	2936	602	713
6317189	2899	491	846
6317517	2980	582	992
6317845	3117	430	1309
6318173	3453	65	1678
6318501	3974	-451	1972
6318829	4741	-912	2374
6319157	5419	-1082	2715
6319485	6002	-1323	2977
6319813	6861	-1385	3168
6320141	7588	-1878	3683
6320469	8430	-2602	4558
6320797	9558	-1392	4840
6321125	10855	-1220	4933
6321453	11877	-63	4673
6321781	13248	1102	4750
6322109	14549	1502	4249
6322437	15593	2817	3591
6322765	15731	3422	2401
6323093	15427	4175	804
6323421	15231	6890	-1210
6323749	14781	7838	-3930
6324077	13999	9706	-6116
6324405	13013	10800	-7906
6324733	11514	12337	-9539
6325061	10342	14659	-10429
6325389	9924	15819	-11254
6325717	9904	16792	-11992
6326045	10626	17503	-12830
6326373	11369	17275	-13284
6326701	12206	17543	-12676
6327029	12890	17455	-12398
6327357	13603	17112	-12369
6327685	14235	17264	-11405
6328013	14942	17245	-10458
6328341	15696	17365	-9034
6328669	16848	18496	-6993
6328997	18775	19128	-4876
6329325	21263	19433	-2729
6329653	24540	19847	-1015
6329981	27391	20151	-15
6330309	29805	20916	503
6330637	30963	20652	796
6330965	31266	21012	1270
6331293	30846	20367	1968
6331621	30175	19182	611
6331949	28948	17988	215
6332277	27984	18246	536
6332605	26403	19615	410
6332933	23849	19843	340
6333261	20865	18501	868
6333589	17741	15933	1464
6333917	15603	12991	2610
6334245	10867	9548	3620
6334573	5669	-4963	4462
6334901	-5613	3745	-2720
6335229	-306	-5454	-4227
6335557	-1505	-9489	-2811
6335885	-6348	5249	-381
6336213	-6191	9914	2023
6336541	-8562	3583	3997
6336869	-1934	-1614	1656
6337197	6145	-4549	-2369
6337525	8463	-5599	-2015
6337853	5473	-4085	-218
6338181	421	14	-1172
6338509	-2836	1496	-1236
6338837	-3624	2126	-1798
6339165	-2065	2634	-2515
6339493	485	2567	-2492
6339821	2688	3290	-2463
6340149	3298	3816	-2267
6340477	3648	4756	-3497
6340805	4706	3710	-2764
6341133	5324	3125	-2324
6341461	7340	2017	-3290
6341789	7988	2480	-1842
6342117	8336	1971	-2168
6342445	9467	4277	-1958
6342773	11246	6063	-2096
6343101	13919	6864	-2452
6343429	16819	7484	-2777
6343757	19189	7883	-2812
6344085	21653	9397	-2003
6344413	21761	10812	-1475
6344741	22662	11164	-2618
6345069	23950	10514	-4156
6345397	24800	10148	-4684
6345725	24872	9477	-3936
6346053	22233	7491	-3315
6346381	18802	5110	-3340
6346709	14978	2853	-3488
6347037	9598	2385	-3899
6347365	5079	1137	-3910
6347693	2164	-314	-4134
6348021	699	-698	-3492
6348349	797	-968	-3087
6348677	1492	-1169	-3687
6349005	1599	-268	-3819
6349333	290	-654	-4122
6349661	-754	-932	-5095
6349989	-2485	699	-5178
6350317	-4135	2858	-3812
6350645	-2626	3631	-987
6350973	772	139	285
6351301	3009	-2820	-306
6351629	6248	-1807	-567
6351957	8133	-841	-127
6352285	6468	234	286
6352613	2830	325	1383
6352941	-1013	-680	1649
6353269	-3343	-1556	1449
6353597	-3410	-1842	657
6353925	-2795	-1924	687
6354253	-2149	-2240	881
6354581	-2364	-2231	1008
6354909	-2983	-2703	1106
6355237	-3314	-2048	1503
6355565	-3410	-2427	1643
6355893	-2915	-2586	1840
6356221	-2201	-2038	1827
6356549	-1623	-1738	1899
6356877	-1583	-1853	1729
6357205	-2164	-1880	2064
6357533	-3294	-2064	2333
6357861	-3781	-2216	2087
6358189	-4058	-2002	2065
6358517	-4315	-2066	1838
6358845	-4481	-2112	1691
6359173	-4025	-1700	1556
6359501	-3565	-1329	1373
6359829	-3254	-548	1155
6360157	-2947	26	922
6360485	-2816	55	915
6360813	-2993	224	714
6361141	-2750	628	1038
6361469	-2518	1454	992
6361797	-2261	2065	756
6362125	-2240	2104	707
6362453	-2683	2223	615
6362781	-3691	1472	371
6363109	-4315	931	356
6363437	-4706	523	397
6363765	-4735	728	668
6364093	-4248	945	860
6364421	-3117	1334	1409
6364749	-1792	1687	1487
6365077	-751	2087	1250
6365405	-198	1469	1130
6365733	-135	595	1122
6366061	-438	709	1005
6366389	-853	1007	804
6366717	-534	801	710
6367045	348	1016	585
6367373	1417	1314	904
6367701	1289	365	698
6368029	555	-551	180
6368357	-1894	-509	-106
6368685	-2997	-643	-402
6369013	-4435	-1261	-712
6369341	-5801	-2322	-1155
6369669	-6804	-2593	-1412
6369997	-7398	-3158	-1523
6370325	-7410	-3581	-1640
6370653	-7048	-3631	-1718
6370981	-6740	-3881	-1596
6371309	-6683	-4284	-1575
6371637	-6487	-4458	-1667
6371965	-6225	-4403	-1852
6372293	-5851	-4734	-2072
6372621	-5933	-5088	-2235
6372949	-6334	-5390	-2471
6373277	-6849	-5584	-2758
6373605	-7435	-5960	-3142
6373933	-8003	-6226	-3454
6374261	-8411	-6135	-3913
6374589	-8930	-6226	-4441
6374917	-9369	-6456	-4849
6375245	-10036	-5879	-5133
6375573	-10211	-6045	-5557
6375901	-9788	-5539	-5880
6376229	-9417	-4467	-6091
6376557	-9837	-4649	-6257
6376885	-10199	-6952	-6276
6377213	-12107	-6698	-6063
6377541	-13642	-6643	-5673
6377869	-12203	-6541	-4821
6378197	-15844	-3077	-3685
6378525	-16424	-1378	-739
6378853	-13063	1404	1890
6379181	-11898	2162	1556
6379509	-10574	-521	3132
6379837	-10128	-1698	4938
6380165	-10220	573	6502
6380493	-10867	1671	8840
6380821	-9843	-904	9989
6381149	-8455	-4486	10596
6381477	-8056	-6685	12226
6381805	-7874	-8250	13912
6382133	-7899	-10058	14699
6382461	-8767	-11751	15051
6382789	-9397	-13700	15652
6383117	-10261	-15541	15788
6383445	-11517	-16786	15828
6383773	-11901	-16985	16329
6384101	-12730	-17947	16779
6384429	-13205	-18143	16890
6384757	-14810	-17326	17388
6385085	-17172	-16997	16523
6385413	-19451	-17003	13426
6385741	-20086	-19749	10460
6386069	-21674	-22674	7504
6386397	-22708	-23372	4291
6386725	-25402	-23600	1025
6387053	-27090	-24419	-1559
6387381	-29416	-20645	-4150
6387709	-31245	-14685	-7273
6388037	-29692	-13427	-10714
6388365	-27726	-8963	-10923
6388693	-22899	-6635	-10363
6389021	-16166	-5897	-8392
6389349	-8694	3941	-2229
6389677	-3557	-3725	-1853
6390005	1691	170	-2079
6390333	6560	8550	-1443
6390661	7811	9290	1466
6390989	6638	4389	3635
6391317	6891	1474	-1003
6391645	6511	912	-3885
6391973	4237	1931	-3324
6392301	1671	2751	-1153
6392629	23	5450	193
6392957	803	7179	632
6393285	465	7608	1360
6393613	437	6863	76
6393941	24	4141	-1940
6394269	-392	-859	-3068
6394597	-1305	-205	-1982
6394925	-1206	2220	-536
6395253	-1072	1949	443
6395581	-1630	2778	169
6395909	-2023	4782	200
6396237	-2538	4802	55
6396565	-1861	5073	-171
6396893	-972	4675	38
6397221	-177	3786	299
6397549	59	2561	635
6397877	43	1842	717
6398205	8	1577	825
6398533	7	471	789
6398861	-198	-113	408
6399189	-657	313	-76
6399517	-951	429	-484
6399845	-1335	3	-825
6400173	-1605	156	-996
6400501	-1594	334	-1281
6400829	-1345	-44	-1525
6401157	-1109	-302	-1541
6401485	-1040	-606	-1325
6401813	-1024	-830	-1034
6402141	-1039	-842	-761
6402469	-987	-980	-512
6402797	-718	-1452	-464
6403125	-524	-1624	-375
6403453	-331	-1850	-264
6403781	-186	-2371	-306
6404109	-57	-2851	-387
6404437	12	-2622	326
6404765	276	-2648	514
6405093	542	-2617	673
6405421	1211	-3598	1232
6405749	1899	-5358	1657
6406077	1647	-4935	1635
6406405	1754	-5003	1370
6406733	1895	-5135	1581
6407061	2116	-3171	1379
6407389	2741	-1421	1601
6407717	4075	-1062	1562
6408045	5445	-306	1969
6408373	7138	189	2677
6408701	9199	1072	3152
6409029	10866	2005	3118
6409357	12173	3191	2862
6409685	13428	4343	2185
6410013	14680	4950	1444
6410341	16085	6234	532
6410669	17200	8042	-501
6410997	18265	9748	-1806
6411325	17345	10866	-2017
6411653	16169	12328	-3236
6411981	13931	12332	-4794
6412309	11968	12564	-5351
6412637	10350	11445	-6410
6412965	8602	10745	-8971
6413293	7388	10769	-10515
6413621	6134	10418	-12419
6413949	5040	9361	-13081
6414277	4373	10336	-13599
6414605	4174	10625	-13628
6414933	4104	10631	-13027
6415261	3967	11040	-12224
6415589	4175	10949	-10876
6415917	4816	10980	-9065
6416245	5188	10090	-6742
6416573	7010	8344	-3483
6416901	9915	8520	1707
6417229	12867	9927	8324
6417557	16145	7205	11557
6417885	15996	2385	9274
6418213	9947	2257	3697
6418541	178	1525	-2746
6418869	4764	-7162	-3404
6419197	-1694	6081	597
6419525	686	8833	1391
6419853	165	5330	2535
6420181	-753	1116	2533
6420509	1560	4036	919
6420837	318	-2335	-701
6421165	-2042	-6389	-3198
6421493	-4410	-5285	-1657
6421821	-6805	-3020	1728
6422149	-9888	-894	2998
6422477	-10451	-288	458
6422805	-7601	-655	-951
6423133	-5581	-3443	-1393
6423461	-1922	-2810	266
6423789	983	-1115	-327
6424117	1022	-1274	-334
6424445	220	-376	380
6424773	-835	319	-301
6425101	-446	716	-1765
6425429	1182	872	860
6425757	2799	2344	-882
6426085	3489	2292	-1701
6426413	3963	1824	-1617
6426741	4640	2428	-1610
6427069	5035	2648	-1988
6427397	5552	2695	-2286
6427725	5821	2409	-2740
6428053	5788	2630	-2570
6428381	5320	2327	-2738
6428709	4629	2079	-3068
6429037	4624	2139	-3507
6429365	4329	2122	-3520
6429693	3433	1517	-3650
6430021	2291	1403	-3727
6430349	1092	1438	-3729
6430677	433	1393	-3791
6431005	-276	1619	-3713
6431333	-1140	1717	-3958
6431661	-1200	2356	-4168
6431989	-1685	3138	-4204
6432317	-1721	2694	-4209
6432645	-918	3060	-4642
6432973	479	4011	-5420
6433301	1948	5198	-5986
6433629	2151	4779	-6114
6433957	1491	2995	-7078
6434285	-500	1578	-7983
6434613	-2944	1264	-9985
6434941	-4550	3868	-11154
6435269	-6791	5721	-11845
6435597	-6673	6229	-11130
6435925	-5897	7373	-10356
6436253	-4526	8400	-9009
6436581	-4180	5631	-9550
6436909	-3660	843	-9175
6437237	-1236	-1010	-7115
6437565	-3623	4788	-3939
6437893	-8142	3295	-3897
6438221	-10130	-2267	-2303
6438549	-6361	-4092	931
6438877	2089	-466	5317
6439205	2111	5809	8444
6439533	2342	8485	9673
6439861	2124	8397	12972
6440189	2881	4963	15620
6440517	3782	2850	17329
6440845	4855	1154	17385
6441173	7798	847	17118
6441501	9608	-2103	17282
6441829	11542	-5186	18091
6442157	12160	-6388	18097
6442485	9035	-4767	19947
6442813	4966	-3343	19876
6443141	1490	-2886	19828
6443469	-691	-3950	19571
6443797	-2523	-4774	19534
6444125	-3261	-4504	19324
6444453	-2913	-4528	18479
6444781	-2136	-3624	18226
6445109	-207	-3529	17608
6445437	1155	-5648	16613
6445765	2819	-6697	15253
6446093	4202	-5737	12925
6446421	5314	-3863	11146
6446749	6859	-1940	10111
6447077	7383	-594	8098
6447405	6935	1439	6150
6447733	6919	3375	4743
6448061	6771	3172	3490
6448389	6571	4829	3464
6448717	5028	3548	3465
6449045	4697	3275	1864
6449373	3883	4939	-336
6449701	3129	6127	-1091
6450029	2068	4326	-618
6450357	-1735	425	-1913
6450685	-11894	-19325	-9614
6451013	-26105	-12742	-14441
6451341	-12095	2098	-20191
6451669	-3816	-6386	-11382
6451997	-14728	2906	-7020
6452325	-12656	4349	-2703
6452653	-9459	5652	881
6452981	-5808	3600	-941
6453309	-2590	1232	-4903
6453637	1553	2344	-8854
6453965	4114	69	-8843
6454293	4961	-5027	-8346
6454621	4530	-4955	-7587
6454949	1923	37	-5881
6455277	-250	958	-5309
6455605	-548	2456	-5784
6455933	1077	2830	-7594
6456261	389	3480	-6925
6456589	2989	4651	-6721
6456917	5302	5502	-6054
6457245	6908	7728	-5214
6457573	8292	7767	-4966
6457901	9481	7393	-5296
6458229	10866	7059	-5416
6458557	12922	8664	-4937
6458885	14139	9713	-4503
6459213	14048	8750	-4378
6459541	14565	9243	-3981
6459869	15917	10118	-3230
6460197	18199	10699	-2726
6460525	20852	10378	-2019
6460853	24308	12067	439
6461181	28945	15768	2153
6461509	31178	17526	4144
6461837	31354	16525	5596
6462165	31229	14254	6197
6462493	30670	13430	5731
6462821	29072	15249	5341
6463149	27015	16066	5192
6463477	25398	15333	3933
6463805	23026	10417	2496
6464133	20818	6519	2059
6464461	19276	8726	3325
6464789	17380	10212	3613
6465117	16344	10892	4019
6465445	16703	7299	2207
6465773	15933	6416	1286
6466101	14794	3335	719
6466429	14370	786	-549
6466757	14390	431	-3575
6467085	9842	857	-1899
6467413	7229	758	-897
6467741	5265	688	-845
6468069	6676	648	-1594
6468397	7959	1169	-2302
6468725	8172	1663	-3016
6469053	6026	1708	-3285
6469381	3028	1468	-3005
6469709	2156	1330	-3397
6470037	1828	1896	-3291
6470365	1941	3055	-2765
6470693	1465	4575	-1893
6471021	1401	5434	-1095
6471349	1901	5854	-792
6471677	2932	5126	-713
6472005	3313	4118	-525
6472333	2820	3107	-168
6472661	2375	1777	177
6472989	1845	346	504
6473317	1303	-1260	800
6473645	629	-2084	686
6473973	493	-1984	168
6474301	1159	-2142	-567
6474629	1023	-2504	-705
6474957	258	-2685	-425
6475285	-881	-2372	-95
6475613	-1114	-2214	-130
6475941	-611	-2242	-258
6476269	-401	-2119	-411
6476597	-431	-1763	-282
6476925	-541	-1331	-81
6477253	-501	-1054	161
6477581	-474	-602	522
6477909	-302	-469	634
6478237	345	-487	561
6478565	828	-344	419
6478893	1076	6	290
6479221	1368	201	348
6479549	1152	584	412
6479877	1079	659	497
6480205	960	740	583
6480533	774	641	621
6480861	776	536	597
6481189	717	417	650
6481517	598	330	689
6481845	409	492	704
6482173	332	633	682
6482501	293	608	651
6482829	178	572	672
6483157	-3	577	686
6483485	-23	458	742
6483813	-49	457	741
6484141	-2	387	716
6484469	97	197	672
6484797	107	173	644
6485125	33	71	616
6485453	-33	8	681
6485781	-244	-6	814
6486109	-401	147	797
6486437	-28	59	615
6486765	187	8	678
6487093	110	47	764
6487421	95	-183	804
6487749	9	-266	881
6488077	-202	-276	973
6488405	-390	-457	1001
6488733	-467	-452	1032
6489061	-532	-397	1106
6489389	-575	-545	1157
6489717	-621	-491	1221
6490045	-688	-433	1312
6490373	-656	-415	1278
6490701	-409	-504	1236
6491029	-181	-444	1288
6491357	-114	-356	1369
6491685	-72	-437	1392
6492013	-122	-451	1439
6492341	-178	-459	1467
6492669	-262	-607	1416
6492997	-139	-690	1466
6493325	-5	-731	1494
6493653	16	-781	1539
6493981	21	-791	1530
6494309	86	-786	1549
6494637	157	-778	1557
6494965	150	-895	1607
6495293	244	-933	1635
6495621	212	-897	1623
6495949	235	-906	1681
6496277	313	-711	1681
6496605	378	-472	1753
6496933	614	-193	1791
6497261	966	-63	1704
6497589	1400	-515	1703
6497917	1752	-1168	1893
6498245	1720	-1008	2045
6498573	1635	-728	2144
6498901	1703	-438	2221
6499229	1807	-236	2177
6499557	1854	-208	2216
6499885	1990	-110	2394
6500213	2165	-8	2515
6500541	2305	296	2713
6500869	2607	373	3120
6501197	2907	72	3399
6501525	3299	-424	3738
6501853	3937	-795	3865
6502181	4600	-244	4151
6502509	5376	-377	4661
6502837	5964	-14	4757
6503165	6843	15	4859
6503493	7220	-698	4502
6503821	7479	-1627	4063
6504149	7846	-2117	3555
6504477	7712	-1785	2747
6504805	7545	-1637	1977
6505133	7042	-1192	1359
6505461	6634	-869	556
6505789	6454	384	-802
6506117	5547	970	-2301
6506445	4652	920	-4002
6506773	3786	1405	-5879
6507101	3703	1406	-7360
6507429	3980	1137	-8550
6507757	4162	822	-9655
6508085	4383	853	-10675
6508413	4100	1655	-11444
6508741	3828	3997	-11894
6509069	3216	3896	-11563
6509397	2937	2609	-10841
6509725	2783	3151	-10290
6510053	2909	3073	-9745
6510381	3344	2366	-8901
6510709	4152	1948	-7795
6511037	4949	1668	-6352
6511365	5415	743	-5010
6511693	6023	315	-3414
6512021	6596	146	-2334
6512349	7159	-201	-960
6512677	7378	-737	238
6513005	7169	-580	1579
6513333	6078	1343	2686
6513661	5414	1851	3256
6513989	5660	2603	3349
6514317	6095	5085	3140
6514645	6532	5887	2909
6514973	6783	6819	2817
6515301	6505	6096	2843
6515629	6194	5054	2767
6515957	5175	3332	2815
6516285	3925	584	2598
6516613	2510	-677	2038
6516941	514	-3322	1000
6517269	-871	-5688	-134
6517597	-439	-2284	-2044
6517925	-790	-625	-2153
6518253	-1741	1422	-1280
6518581	-2277	2964	-396
6518909	-2074	2634	285
6519237	-996	2712	256
6519565	526	2172	-61
6519893	1168	1462	-562
6520221	1136	1750	-648
6520549	462	1697	-434
6520877	-1304	2792	358
6521205	-1600	3200	471
6521533	-1269	2792	164
6521861	-726	2533	-153
6522189	-249	2270	-340
6522517	129	1852	-288
6522845	188	1611	-86
6523173	-38	1502	103
6523501	-305	1575	141
6523829	-340	1263	63
6524157	-292	1216	-122
6524485	-115	1026	26
6524813	82	946	-223
6525141	175	802	-136
6525469	74	1008	-112
6525797	-59	933	-102
6526125	-67	926	-154
6526453	-56	1051	-175
6526781	118	856	-150
6527109	215	843	-242
6527437	192	880	-266
6527765	154	903	-274
6528093	82	958	-291
6528421	37	1095	-272
6528749	-75	1238	-173
6529077	-93	1302	-80
6529405	13	1251	-118
6529733	221	811	-177
6530061	196	867	-260
6530389	18	618	-177
6530717	-86	659	-73
6531045	-144	648	-23
6531373	-62	706	-49
6531701	90	777	-96
6532029	222	941	-107
6532357	329	1035	-109
6532685	347	745	-70
6533013	363	650	-49
6533341	260	184	-26
6533669	187	23	-17
6533997	110	73	-9
6534325	-58	-130	10
6534653	-109	-446	13
6534981	-88	-372	15
6535309	-36	-262	-49
6535637	111	-155	-123
6535965	138	-39	-140
6536293	178	-88	-167
6536621	63	-365	-125
6536949	-45	-352	-109
6537277	-108	-255	-106
6537605	-181	-268	-119
6537933	-257	-490	-121
6538261	-229	-401	-138
6538589	-263	-370	-165
6538917	-327	-327	-211
6539245	-428	-116	-266
6539573	-458	93	-310
6539901	-474	333	-389
6540229	-441	537	-470
6540557	-374	639	-537
6540885	-419	927	-567
6541213	-411	1266	-605
6541541	-242	1570	-670
6541869	-132	1894	-739
6542197	-122	2007	-738
6542525	-263	1790	-564
6542853	-313	2137	-357
6543181	-39	2383	-258
6543509	362	2469	-310
6543837	710	2547	-425
6544165	945	2789	-524
6544493	1185	3410	-444
6544821	1296	4329	-107
6545149	1464	4445	417
6545477	1694	5104	494
6545805	2216	5535	409
6546133	2672	6012	370
6546461	2960	6704	137
6546789	3008	7149	121
6547117	2849	7512	280
6547445	2931	7563	504
6547773	3143	7980	677
6548101	3660	8050	684
6548429	3975	8008	501
6548757	3653	7523	731
6549085	3017	7062	1228
6549413	1912	5918	1366
6549741	777	4310	1257
6550069	-165	2633	297
6550397	-703	1092	-1278
6550725	-1167	523	-2601
6551053	-2650	1121	-2651
6551381	-4586	1449	-2125
6551709	-5093	1692	-2117
6552037	-4606	2251	-1962
6552365	-3693	2695	-1330
6552693	-2461	2419	-788
6553021	-1332	1925	-767
6553349	-281	1369	-991
6553677	102	986	-963
6554005	-298	1418	-681
6554333	-952	1937	-129
6554661	-1275	1919	-18
6554989	-1096	1644	-3
6555317	-821	1982	172
6555645	-332	1778	175
6555973	-145	1360	224
6556301	-153	1390	176
6556629	-165	1068	271
6556957	383	-557	554
6557285	775	748	712
6557613	1364	1647	648
6557941	2659	766	771
6558269	3618	1794	871
6558597	4429	2893	1022
6558925	5077	3135	1143
6559253	5839	3637	1130
6559581	6711	4355	1076
6559909	7585	4885	1050
6560237	8377	5525	1156
6560565	8866	6274	1222
6560893	9309	6450	1225
6561221	9499	6415	1210
6561549	9297	6290	853
6561877	9317	5490	621
6562205	9242	5647	470
6562533	9185	5890	480
6562861	9222	5418	563
6563189	9323	5749	589
6563517	9700	6268	586
6563845	10041	6543	396
6564173	10526	6317	170
6564501	11114	6493	-10
6564829	11886	6882	-92
6565157	12576	7306	-121
6565485	13158	7309	-108
6565813	13756	7676	-53
6566141	14093	8124	37
6566469	14374	8217	210
6566797	14590	8559	172
6567125	14945	8653	272
6567453	15283	8017	406
6567781	15710	7782	374
6568109	16057	8057	340
6568437	16365	8480	400
6568765	16875	8695	560
6569093	17053	8314	753
6569421	17152	7673	988
6569749	17275	7565	1298
6570077	17603	8031	1685
6570405	17732	8243	2043
6570733	17705	8332	2400
6571061	17637	8284	2813
6571389	17585	8111	3317
6571717	17561	8085	3660
6572045	17395	8076	3931
6572373	17155	7976	4094
6572701	17200	7416	4187
6573029	17373	7288	4214
6573357	17378	7021	4310
6573685	17461	6651	4347
6574013	17587	6340	4212
6574341	17456	6236	4166
6574669	17088	6408	4376
6574997	16572	6420	4616
6575325	15759	6448	4961
6575653	14875	6458	5247
6575981	14351	6134	5115
6576309	13710	5616	4701
6576637	12341	3962	3502
6576965	11815	1712	1216
6577293	10785	2738	1063
6577621	8486	2899	1758
6577949	7215	3318	1882
6578277	6934	3186	1776
6578605	6573	3178	1577
6578933	6621	2807	1456
6579261	6669	1954	753
6579589	6636	1443	240
6579917	6024	959	-140
6580245	5418	739	-384
6580573	4644	479	-325
6580901	3430	711	-167
6581229	2365	447	277
6581557	1402	893	876
6581885	960	1242	1248
6582213	775	1185	1397
6582541	376	719	1202
6582869	-25	491	997
6583197	-141	226	440
6583525	-213	37	200
6583853	-293	-155	-169
6584181	-193	-480	-394
6584509	-316	-308	-371
6584837	-375	-181	-349
6585165	-168	-202	-481
6585493	-178	-52	-548
6585821	-186	75	-610
6586149	-223	105	-657
6586477	-254	252	-630
6586805	-128	287	-687
6587133	300	240	-676
6587461	250	96	-876
6587789	290	59	-885
6588117	56	-72	-805
6588445	-246	-215	-727
6588773	-354	-303	-746
6589101	-540	-475	-704
6589429	-593	-304	-718
6589757	-516	-192	-728
6590085	-383	-49	-735
6590413	-288	82	-742
6590741	-208	258	-712
6591069	-222	426	-672
6591397	-310	171	-643
6591725	-345	42	-584
6592053	-383	-216	-525
6592381	-443	-221	-447
6592709	-432	-232	-482
6593037	-506	-159	-453
6593365	-499	-73	-420
6593693	-485	35	-384
6594021	-489	0	-362
6594349	-460	-71	-332
6594677	-353	-49	-303
6595005	-301	-21	-266
6595333	-369	-40	-199
6595661	-443	13	-163
6595989	-479	31	-150
6596317	-523	-4	-144
6596645	-480	-52	-147
6596973	-475	-54	-129
6597301	-516	-183	-104
6597629	-561	-176	-58
6597957	-588	-158	-46
6598285	-547	-128	-44
6598613	-608	-197	-39
6598941	-666	-335	-36
6599269	-669	-337	-26
6599597	-584	-317	-48
6599925	-478	-304	-49
6600253	-443	-160	-37
6600581	-306	-44	-23
6600909	-227	104	4
6601237	-133	215	3
6601565	-131	108	15
6601893	-84	131	40
6602221	-16	216	58
6602549	42	254	87
6602877	58	299	97
6603205	93	300	111
6603533	149	353	130
6603861	220	454	136
6604189	299	552	101
6604517	284	701	142
6604845	311	851	203
6605173	264	863	210
6605501	289	499	172
6605829	236	484	144
6606157	231	442	170
6606485	208	524	193
6606813	251	506	208
6607141	221	544	202
6607469	190	568	239
6607797	254	652	231
6608125	195	588	207
6608453	222	356	231
6608781	219	396	276
6609109	191	114	296
6609437	123	-153	290
6609765	115	-158	287
6610093	20	-66	300
6610421	-30	28	322
6610749	1	23	325
6611077	-57	-143	300
6611405	-62	-89	338
6611733	-41	-83	321
6612061	8	-67	300
6612389	36	-21	314
6612717	-81	-736	347
6613045	-125	-553	364
6613373	-124	-478	371
6613701	-170	-283	368
6614029	-134	-80	356
6614357	-85	37	354
6614685	-82	-231	342
6615013	-120	-248	352
6615341	-122	-136	362
6615669	-151	64	350
6615997	-135	169	342
6616325	-316	-41	340
6616653	-493	-345	306
6616981	-682	-442	307
6617309	-784	-278	325
6617637	-959	-164	328
6617965	-1071	-38	323
6618293	-1169	5	318
6618621	-1313	1	285
6618949	-1410	19	239
6619277	-1464	125	186
6619605	-1439	334	147
6619933	-1347	584	157
6620261	-1400	722	172
6620589	-1623	844	176
6620917	-1796	964	150
6621245	-1871	1220	123
6621573	-1937	1407	102
6621901	-1949	1531	44
6622229	-1918	1455	-83
6622557	-1963	1520	-279
6622885	-2030	1468	-521
6623213	-1965	1618	-723
6623541	-1976	1679	-841
6623869	-2136	1789	-957
6624197	-2428	1738	-998
6624525	-2890	1607	-1074
6624853	-3364	1441	-1164
6625181	-3876	1203	-1298
6625509	-4535	734	-1449
6625837	-5366	113	-1648
6626165	-6517	-433	-1871
6626493	-7406	-1185	-2150
6626821	-8417	-1848	-2422
6627149	-9338	-2467	-2647
6627477	-10228	-3066	-2819
6627805	-11214	-3697	-2991
6628133	-11971	-4124	-3127
6628461	-12517	-4485	-3167
6628789	-12934	-4760	-3131
6629117	-13222	-5049	-3058
6629445	-13304	-5232	-2913
6629773	-13241	-5247	-2687
6630101	-12941	-5415	-2471
6630429	-12521	-5548	-2328
6630757	-12136	-5574	-2303
6631085	-11689	-5968	-2284
6631413	-11330	-6129	-2239
6631741	-11316	-5897	-2128
6632069	-11213	-6149	-2010
6632397	-11044	-6285	-1976
6632725	-10988	-5962	-1935
6633053	-10790	-5852	-1925
6633381	-10635	-5668	-1972
6633709	-10463	-5492	-1921
6634037	-10215	-5442	-1901
6634365	-9874	-5301	-1914
6634693	-9540	-5297	-1914
6635021	-9331	-5375	-1995
6635349	-9187	-5496	-2056
6635677	-9159	-5676	-2157
6636005	-9130	-5785	-2353
6636333	-9158	-5909	-2390
6636661	-9089	-6154	-2500
6636989	-9200	-6463	-2553
6637317	-9448	-6967	-2687
6637645	-9830	-7398	-2931
6637973	-10178	-7607	-3184
6638301	-10418	-7866	-3406
6638629	-10606	-8128	-3593
6638957	-10745	-8228	-3650
6639285	-10759	-8288	-3650
6639613	-10565	-8377	-3632
6639941	-10301	-8434	-3684
6640269	-9944	-8511	-3820
6640597	-9637	-8855	-4027
6640925	-9417	-9039	-4203
6641253	-9377	-9124	-4327
6641581	-9367	-9301	-4427
6641909	-9368	-9720	-4616
6642237	-9428	-9888	-4735
6642565	-9472	-9943	-4857
6642893	-9487	-9875	-4979
6643221	-9710	-9853	-5088
6643549	-9732	-10067	-5065
6643877	-9837	-10303	-5189
6644205	-9941	-10378	-5397
6644533	-10062	-10380	-5728
6644861	-9944	-9750	-6319
6645189	-9635	-8922	-7106
6645517	-9079	-8587	-7588
6645845	-8514	-8394	-7935
6646173	-8193	-7871	-8197
6646501	-8101	-7654	-8657
6646829	-8187	-7431	-8996
6647157	-8762	-8993	-9656
6647485	-9676	-10241	-9940
6647813	-11484	-6613	-9537
6648141	-11128	-1737	-9056
6648469	-10923	-3823	-8426
6648797	-13155	-4130	-6307
6649125	-13162	-1466	-3030
6649453	-10658	-2771	-354
6649781	-8200	-2099	934
6650109	-7281	-1715	2610
6650437	-6325	-1159	4227
6650765	-5328	-763	5332
6651093	-5247	-1759	7438
6651421	-3716	-5054	8771
6651749	-3271	-6209	10165
6652077	-3135	-6911	11453
6652405	-3352	-8158	12454
6652733	-3901	-9163	12900
6653061	-4498	-9763	12976
6653389	-5597	-10005	13016
6653717	-6674	-10180	12839
6654045	-8095	-10361	12698
6654373	-9444	-10428	12504
6654701	-10576	-10551	12240
6655029	-11359	-10417	11711
6655357	-11633	-11205	11516
6655685	-11534	-11451	11052
6656013	-11379	-11362	11065
6656341	-11244	-11411	10576
6656669	-10670	-12215	9900
6656997	-10493	-13015	9064
6657325	-10251	-13717	7794
6657653	-9863	-13889	6026
6657981	-9662	-14017	4520
6658309	-9121	-12974	4007
6658637	-8789	-11556	3356
6658965	-9080	-9583	2821
6659293	-8564	-7505	2599
6659621	-8420	-5431	2267
6659949	-7755	-5495	1441
6660277	-6012	-3898	-463
6660605	-5219	-2890	-398
6660933	-4890	-2596	-254
6661261	-4681	-2561	-39
6661589	-4388	-2390	239
6661917	-4188	-2650	546
6662245	-3913	-2526	441
6662573	-3755	-1683	395
6662901	-3621	-1743	420
6663229	-2886	-1323	-368
6663557	-2116	329	-1981
6663885	-1620	1386	-2100
6664213	-1527	1126	-1832
6664541	-1286	358	-1407
6664869	-1288	1200	-1202
6665197	-1134	1541	-1552
6665525	-1083	1581	-1806
6665853	-1201	2070	-2077
6666181	-1154	2550	-2447
6666509	-1125	2586	-2900
6666837	-1170	3165	-3060
6667165	-1194	3201	-3090
6667493	-1180	3116	-2915
6667821	-1197	3204	-2654
6668149	-1139	2417	-2417
6668477	-1096	1541	-2258
6668805	-1314	841	-2268
6669133	-1310	468	-2206
6669461	-1569	770	-2222
6669789	-1671	924	-2289
6670117	-1583	1063	-2257
6670445	-1280	1545	-2278
6670773	-828	1834	-2108
6671101	-127	1540	-1864
6671429	329	1322	-1679
6671757	646	1566	-1416
6672085	820	2006	-1367
6672413	1112	2094	-1407
6672741	1193	2335	-1339
6673069	1105	2449	-1197
6673397	1060	2534	-987
6673725	1084	2450	-816
6674053	945	2220	-977
6674381	1018	1813	-987
6674709	978	1750	-983
6675037	783	1548	-928
6675365	487	1286	-801
6675693	299	1127	-754
6676021	29	1005	-651
6676349	-130	938	-591
6676677	-161	874	-651
6677005	-92	620	-686
6677333	-25	512	-632
6677661	-142	471	-506
6677989	-48	442	-396
6678317	62	434	-305
6678645	223	490	-227
6678973	323	454	-118
6679301	385	353	7
6679629	413	287	48
6679957	378	225	77
6680285	317	154	149
6680613	310	144	236
6680941	328	120	231
6681269	279	17	198
6681597	98	-155	233
6681925	18	-125	260
6682253	55	-73	215
6682581	140	-1	208
6682909	197	68	184
6683237	262	163	207
6683565	345	229	197
6683893	319	139	139
6684221	265	139	109
6684549	189	175	124
6684877	159	145	145
6685205	151	172	137
6685533	68	141	141
6685861	-13	109	132
6686189	0	128	119
6686517	15	131	119
6686845	14	141	95
6687173	-2	162	71
6687501	-5	239	19
6687829	-8	278	8
6688157	-15	383	38
6688485	-44	408	59
6688813	-39	356	38
6689141	-1	309	22
6689469	2	308	48
6689797	-93	286	100
6690125	-115	281	137
6690453	-140	410	204
6690781	-41	523	259
6691109	66	621	260
6691437	38	571	269
6691765	-64	404	285
6692093	-241	143	326
6692421	-536	-700	405
6692749	-609	-829	420
6693077	-688	-1065	418
6693405	-764	-1141	437
6693733	-689	-1233	468
6694061	-610	-1322	529
6694389	-576	-1289	637
6694717	-521	-1358	732
6695045	-540	-1435	819
6695373	-610	-1525	842
6695701	-715	-1693	906
6696029	-688	-1864	976
6696357	-783	-2031	1032
6696685	-785	-2204	1138
6697013	-818	-2295	1232
6697341	-744	-2337	1346
6697669	-681	-2381	1461
6697997	-613	-2445	1630
6698325	-487	-2336	1837
6698653	-390	-2489	2085
6698981	-473	-2594	2311
6699309	-490	-2467	2552
6699637	-512	-2412	2782
6699965	-537	-2631	2962
6700293	-347	-3786	3227
6700621	-230	-3638	3401
6700949	-233	-3649	3431
6701277	-81	-3715	3424
6701605	158	-3680	3446
6701933	393	-3573	3448
6702261	623	-3497	3381
6702589	893	-3492	3319
6702917	1127	-3619	3338
6703245	1265	-3961	3397
6703573	1438	-4212	3441
6703901	1579	-4424	3373
6704229	1650	-4640	3398
6704557	1758	-4656	3521
6704885	1941	-4668	3634
6705213	2215	-4945	3776
6705541	2763	-4804	4055
6705869	3252	-4315	4087
6706197	3836	-4085	3742
6706525	4453	-3620	2710
6706853	4752	-3796	1136
6707181	4942	-2593	846
6707509	5525	-2307	402
6707837	7114	-1618	873
6708165	8728	-698	1654
6708493	9707	-462	2101
6708821	9937	1128	1031
6709149	8460	1330	-1546
6709477	5895	3111	-4175
6709805	1240	3230	-6187
6710133	-3396	2974	-7529
6710461	-5969	4146	-9131
6710789	-6644	4825	-10636
6711117	-6158	5753	-11820
6711445	-5047	6495	-12705
6711773	-4029	6841	-13567
6712101	-3439	7433	-14143
6712429	-3292	7441	-13950
6712757	-2980	7438	-13424
6713085	-3223	6638	-14125
6713413	-3655	6354	-14748
6713741	-4361	6335	-15029
6714069	-5021	5864	-14788
6714397	-5510	5739	-14359
6714725	-6008	5727	-13912
6715053	-6633	5482	-13403
6715381	-7069	5213	-13015
6715709	-7086	5900	-12828
6716037	-6656	6045	-12360
6716365	-6101	6075	-11640
6716693	-5567	5924	-10790
6717021	-5122	6113	-10015
6717349	-4842	6261	-9154
6717677	-4464	6234	-8339
6718005	-4147	5909	-7459
6718333	-3733	5743	-6503
6718661	-3210	5321	-5611
6718989	-2828	4332	-4863
6719317	-2637	3314	-4165
6719645	-2561	2900	-3463
6719973	-2537	2486	-2702
6720301	-2039	2084	-1921
6720629	-1453	2130	-1251
6720957	-849	2185	-330
6721285	-285	2202	613
6721613	476	2463	1570
6721941	1190	2599	2587
6722269	1978	2319	3436
6722597	3008	2261	4033
6722925	3588	2368	4487
6723253	4061	1683	4905
6723581	4364	1478	5173
6723909	4843	1294	5488
6724237	5325	1093	5895
6724565	6578	1249	6248
6724893	7050	1120	6591
6725221	7470	868	6861
6725549	7682	679	6895
6725877	8166	1183	6946
6726205	8013	1795	6556
6726533	7916	2417	6301
6726861	8677	2380	5368
6727189	8749	2624	4827
6727517	8874	2819	4385
6727845	8839	3591	4014
6728173	8571	3915	3725
6728501	9071	4162	3534
6728829	9321	4265	3479
6729157	9490	4168	3497
6729485	9428	4305	3483
6729813	8889	4110	3391
6730141	8057	3807	3211
6730469	7203	3537	3106
6730797	6563	3274	3027
6731125	6119	3220	2951
6731453	5806	3149	2860
6731781	5398	2754	2776
6732109	4811	2175	2635
6732437	4180	1966	2392
6732765	3551	1690	2169
6733093	2852	1261	1878
6733421	2177	1326	1654
6733749	1697	1763	1587
6734077	1567	2494	1613
6734405	1862	2521	1708
6734733	2240	1221	1666
6735061	2995	1336	1644
6735389	3705	1956	1526
6735717	4119	1731	1400
6736045	4223	1596	1366
6736373	3907	1612	1251
6736701	3343	1476	1191
6737029	2758	1534	1128
6737357	2380	1931	1159
6737685	2144	2039	1191
6738013	2004	1739	1186
6738341	1889	1464	1135
6738669	1769	1051	1082
6738997	1594	648	1029
6739325	1269	478	977
6739653	1194	243	858
6739981	1200	109	738
6740309	1287	138	629
6740637	1382	99	444
6740965	1376	82	322
6741293	1372	83	268
6741621	1329	176	250
6741949	1243	156	169
6742277	1170	160	25
6742605	1118	267	-161
6742933	1010	309	-287
6743261	826	473	-357
6743589	720	730	-451
6743917	611	787	-566
6744245	530	728	-602
6744573	453	377	-617
6744901	282	-89	-676
6745229	25	-198	-754
6745557	-135	-157	-787
6745885	-78	-735	-768
6746213	-35	-1126	-823
6746541	-15	-1021	-857
6746869	255	-3718	-797
6747197	-324	-4654	-706
6747525	-374	-2569	-824
6747853	-498	-2609	-910
6748181	-790	-2793	-948
6748509	-880	-2093	-967
6748837	-1195	-2171	-973
6749165	-1479	-1912	-995
6749493	-1703	-1572	-1027
6749821	-1834	-1541	-1121
6750149	-1896	-1301	-1129
6750477	-2030	-1283	-1060
6750805	-2321	-1477	-1016
6751133	-2389	-1209	-990
6751461	-2366	-984	-1062
6751789	-2210	-1000	-1038
6752117	-2065	-1142	-1004
6752445	-2119	-1024	-911
6752773	-2348	-1056	-953
6753101	-2142	-1079	-1034
6753429	-1969	-659	-1063
6753757	-1565	-569	-1057
6754085	-1196	-411	-945
6754413	-1034	-202	-777
6754741	-1129	-325	-699
6755069	-1275	-523	-717
6755397	-1341	-392	-750
6755725	-1167	-73	-715
6756053	-788	268	-588
6756381	-357	594	-468
6756709	-116	475	-447
6757037	-65	340	-397
6757365	-15	418	-354
6757693	21	433	-332
6758021	221	371	-347
6758349	267	227	-318
6758677	332	180	-281
6759005	231	246	-256
6759333	96	199	-239
6759661	-3	135	-225
6759989	-55	289	-241
6760317	1	458	-209
6760645	121	549	-176
6760973	236	428	-138
6761301	311	361	-126
6761629	330	396	-97
6761957	302	513	-102
6762285	220	535	-109
6762613	176	637	-101
6762941	110	647	-66
6763269	43	418	-14
6763597	1	101	40
6763925	-16	235	55
6764253	87	365	71
6764581	182	477	90
6764909	242	586	83
6765237	221	678	92
6765565	225	685	84
6765893	233	638	81
6766221	223	562	76
6766549	182	209	87
6766877	147	238	107
6767205	98	135	125
6767533	-19	-95	128
6767861	-155	3	99
6768189	-267	57	67
6768517	-336	132	22
6768845	-327	-18	19
6769173	-301	-49	20
6769501	-304	129	6
6769829	-310	155	-6
6770157	-339	193	-7
6770485	-313	246	-41
6770813	-250	207	-57
6771141	-166	171	-41
6771469	-143	121	-66
6771797	-144	141	-39
6772125	-140	237	-66
6772453	-66	151	-82
6772781	24	187	-83
6773109	51	244	-76
6773437	43	168	-56
6773765	13	177	-24
6774093	1	128	-38
6774421	7	178	-25
6774749	-5	231	-28
6775077	-30	264	-11
6775405	-74	298	-17
6775733	-104	323	-16
6776061	-123	361	-24
6776389	-138	313	-27
6776717	-168	281	-29
6777045	-229	299	-34
6777373	-265	457	-45
6777701	-237	600	-44
6778029	-193	799	-96
6778357	-116	1032	-127
6778685	-58	1163	-145
6779013	-7	1157	-144
6779341	81	1174	-122
6779669	133	1180	-100
6779997	203	1007	-109
6780325	278	864	-115
6780653	342	724	-90
6780981	359	626	-69
6781309	390	531	-81
6781637	425	434	-110
6781965	462	329	-112
6782293	536	241	-137
6782621	611	189	-183
6782949	675	99	-160
6783277	790	-26	-160
6783605	837	-100	-187
6783933	977	-139	-198
6784261	1094	-126	-230
6784589	1242	-159	-287
6784917	1382	-201	-310
6785245	1431	-336	-233
6785573	1378	-462	-271
6785901	1372	-386	-368
6786229	1414	-410	-419
6786557	1440	-466	-436
6786885	1500	-390	-419
6787213	1583	-185	-427
6787541	1775	6	-529
6787869	2028	-95	-651
6788197	2498	-601	-744
6788525	3051	-814	-775
6788853	3685	-293	-949
6789181	4358	-110	-920
6789509	5208	839	-911
6789837	6296	2653	-1000
6790165	6755	3911	-1045
6790493	7488	4781	-1005
6790821	7948	5000	-918
6791149	8120	5130	-831
6791477	7924	5476	-674
6791805	7523	5655	-356
6792133	7032	5813	114
6792461	6496	5877	612
6792789	5747	5810	1236
6793117	4821	5724	1732
6793445	4563	5837	2270
6793773	4296	6253	2686
6794101	3809	6778	2810
6794429	3476	6831	2917
6794757	3523	6867	3058
6795085	3426	7040	3189
6795413	3385	7073	3252
6795741	3334	7025	3167
6796069	3318	6762	3121
6796397	3309	6380	3080
6796725	3333	6184	2938
6797053	3457	6097	2776
6797381	3331	5990	2459
6797709	3068	5752	2308
6798037	2697	5596	2223
6798365	2195	5723	2130
6798693	1543	5583	2051
6799021	983	5313	1875
6799349	571	4934	1769
6799677	512	4532	1692
6800005	628	4242	1623
6800333	1152	3623	1593
6800661	1633	2849	1693
6800989	2013	2183	1876
6801317	1689	904	1980
6801645	1039	-888	2303
6801973	224	-1792	2532
6802301	-968	-1382	2254
6802629	-2623	-1052	1284
6802957	-3866	-774	212
6803285	-4375	-329	-593
6803613	-3468	-1024	-197
6803941	-2462	-377	896
6804269	-1090	650	1910
6804597	-13	1180	2461
6804925	529	929	2235
6805253	697	377	1702
6805581	744	134	1451
6805909	525	-272	1508
6806237	132	-399	1622
6806565	-397	-524	1672
6806893	-969	-521	1590
6807221	-1484	-344	1481
6807549	-1865	-322	1370
6807877	-1923	-242	1309
6808205	-1850	-107	1145
6808533	-1590	-156	1297
6808861	-1206	-11	1257
6809189	-949	82	1244
6809517	-828	129	1076
6809845	-911	45	957
6810173	-987	19	887
6810501	-1103	144	885
6810829	-1310	187	785
6811157	-1347	239	681
6811485	-1246	231	672
6811813	-1119	167	566
6812141	-940	223	551
6812469	-849	146	513
6812797	-776	99	451
6813125	-764	130	365
6813453	-781	52	295
6813781	-763	30	248
6814109	-763	95	233
6814437	-712	122	164
6814765	-659	67	104
6815093	-613	79	325
6815421	-590	-129	218
6815749	-587	-24	123
6816077	-642	21	251
6816405	-1963	-246	-10
6816733	-1447	-998	-635
6817061	110	-414	-376
6817389	-468	409	645
6817717	-949	507	274
6818045	-815	628	91
6818373	-6	223	181
6818701	548	418	149
6819029	324	150	53
6819357	-64	-68	110
6819685	-358	-93	125
6820013	-392	-216	78
6820341	-61	-253	171
6820669	122	-360	247
6820997	144	-290	298
6821325	177	-209	358
6821653	173	-110	348
6821981	208	-110	433
6822309	370	-178	482
6822637	345	-124	527
6822965	260	-176	604
6823293	194	-121	666
6823621	165	-49	714
6823949	214	-2	693
6824277	366	21	702
6824605	510	-19	743
6824933	590	2	767
6825261	582	60	756
6825589	627	51	765
6825917	672	1	738
6826245	827	268	776
6826573	775	51	763
6826901	821	73	804
6827229	850	129	824
6827557	858	112	788
6827885	855	139	770
6828213	800	177	796
6828541	752	222	791
6828869	687	198	797
6829197	646	209	805
6829525	691	179	830
6829853	742	88	778
6830181	686	132	726
6830509	665	81	745
6830837	602	96	724
6831165	577	98	743
6831493	647	181	750
6831821	762	16	607
6832149	662	60	654
6832477	627	-25	668
6832805	438	52	612
6833133	330	-21	526
6833461	219	78	502
6833789	215	48	454
6834117	259	69	431
6834445	329	-14	407
6834773	294	21	418
6835101	236	-61	426
6835429	109	-12	350
6835757	43	50	346
6836085	7	34	289
6836413	47	66	252
6836741	126	42	267
6837069	239	-7	230
6837397	166	58	251
6837725	145	27	226
6838053	38	22	139
6838381	-50	31	139
6838709	-147	22	148
6839037	-213	8	162
6839365	-206	2	151
6839693	-190	32	151
6840021	-106	70	100
6840349	-40	44	61
6840677	-14	31	48
6841005	-40	21	33
6841333	-70	78	16
6841661	-119	69	10
6841989	-155	71	-8
6842317	-160	92	-47
6842645	-122	100	-63
6842973	-108	89	-102
6843301	-129	52	-114
6843629	-177	42	-140
6843957	-245	9	-170
6844285	-347	24	-194
6844613	-421	23	-221
6844941	-476	4	-232
6845269	-480	21	-252
6845597	-481	46	-289
6845925	-433	53	-342
6846253	-439	29	-385
6846581	-461	10	-415
6846909	-489	-4	-413
6847237	-543	-14	-469
6847565	-620	-39	-506
6847893	-685	-42	-514
6848221	-735	-32	-547
6848549	-750	-33	-568
6848877	-810	-32	-603
6849205	-807	-36	-578
6849533	-774	-41	-567
6849861	-733	-28	-598
6850189	-720	-32	-585
6850517	-605	-49	-604
6850845	-546	54	-594
6851173	-407	74	-541
6851501	-304	109	-595
6851829	-112	90	-608
6852157	-160	77	-576
6852485	-235	33	-608
6852813	-326	25	-614
6853141	-424	42	-603
6853469	-470	67	-622
6853797	-440	60	-638
6854125	-436	68	-647
6854453	-436	41	-648
6854781	-424	22	-601
6855109	-416	68	-613
6855437	-448	90	-615
6855765	-480	97	-610
6856093	-486	97	-555
6856421	-485	60	-530
6856749	-526	81	-531
6857077	-514	57	-494
6857405	-523	40	-493
6857733	-489	66	-480
6858061	-498	95	-472
6858389	-488	67	-503
6858717	-469	69	-476
6859045	-441	32	-434
6859373	-414	77	-407
6859701	-375	99	-410
6860029	-314	120	-375
6860357	-220	128	-339
6860685	-193	163	-337
6861013	-184	118	-280
6861341	-205	80	-243
6861669	-295	88	-247
6861997	-350	40	-227
6862325	-385	5	-209
6862653	-422	13	-200
6862981	-417	18	-177
6863309	-374	40	-174
6863637	-324	55	-151
6863965	-267	35	-140
6864293	-229	41	-112
6864621	-188	38	-113
6864949	-160	51	-111
6865277	-184	23	-109
6865605	-165	38	-97
6865933	-174	51	-95
6866261	-197	22	-105
6866589	-228	54	-98
6866917	-246	46	-96
6867245	-267	26	-87
6867573	-224	35	-82
6867901	-201	62	-76
6868229	-132	92	-86
6868557	-108	86	-77
6868885	-111	47	-56
6869213	-142	-5	-36
6869541	-294	9	-46
6869869	-361	63	-69
6870197	-328	101	-50
6870525	-200	134	-37
6870853	-52	128	-34
6871181	97	192	-51
6871509	144	192	-44
6871837	113	183	-42
6872165	32	174	-37
6872493	-49	179	-35
6872821	-129	170	-34
6873149	-143	167	-30
6873477	-158	129	-27
6873805	-96	145	-41
6874133	-43	162	-20
6874461	7	160	-6
6874789	27	146	5
6875117	71	150	33
6875445	87	157	50
6875773	65	102	41
6876101	13	131	41
6876429	-49	54	83
6876757	-89	37	102
6877085	-108	52	101
6877413	-83	64	89
6877741	-53	61	114
6878069	-69	43	114
6878397	-85	68	125
6878725	-83	50	144
6879053	-113	53	132
6879381	-113	76	118
6879709	-142	86	102
6880037	-140	76	89
6880365	-183	103	108
6880693	-191	68	97
6881021	-179	93	94
6881349	-197	92	97
6881677	-179	110	91
6882005	-210	93	92
6882333	-222	65	98
6882661	-239	34	107
6882989	-237	98	115
6883317	-220	107	105
6883645	-219	122	100
6883973	-169	155	80
6884301	-175	137	94
6884629	-172	136	91
6884957	-185	157	101
6885285	-161	168	103
6885613	-158	208	71
6885941	-122	183	77
6886269	-88	189	89
6886597	-53	196	107
6886925	-11	203	119
6887253	-2	207	102
6887581	32	189	100
6887909	-7	179	99
6888237	-48	146	93
6888565	-81	39	111
6888893	-179	-222	116
6889221	-235	-239	115
6889549	-239	-126	112
6889877	-203	-34	106
6890205	-174	44	99
6890533	-134	103	76
6890861	-131	125	80
6891189	-154	160	89
6891517	-169	174	85
6891845	-139	193	87
6892173	-117	193	83
6892501	-80	205	69
6892829	-32	227	60
6893157	-16	246	47
6893485	9	226	21
6893813	25	246	36
6894141	19	228	19
6894469	-6	220	24
6894797	-19	159	24
6895125	-44	115	14
6895453	-26	136	-4
6895781	-29	114	-12
6896109	-28	131	-24
6896437	-13	130	-29
6896765	-5	100	-21
6897093	-21	139	-31
6897421	-31	117	-32
6897749	-18	137	-40
6898077	-20	131	-45
6898405	2	152	-56
6898733	-21	165	-67
6899061	-24	146	-66
6899389	-43	132	-68
6899717	-50	105	-43
6900045	-49	136	-55
6900373	-44	96	-61
6900701	-88	103	-82
6901029	-78	91	-69
6901357	-99	77	-67
6901685	-130	90	-83
6902013	-138	82	-69
6902341	-142	78	-70
6902669	-145	69	-83
6902997	-166	81	-87
6903325	-171	87	-61
6903653	-152	81	-60
6903981	-162	91	-56
6904309	-139	91	-66
6904637	-123	84	-53
6904965	-119	103	-67
6905293	-111	73	-69
6905621	-120	65	-58
6905949	-139	71	-57
6906277	-153	68	-51
6906605	-128	89	-51
6906933	-113	93	-65
6907261	-87	109	-51
6907589	-54	102	-68
6907917	-54	113	-64
6908245	-41	99	-55
6908573	-26	124	-54
6908901	-22	124	-63
6909229	-7	132	-60
6909557	21	139	-79
6909885	28	151	-60
6910213	36	149	-61
6910541	50	136	-71
6910869	52	124	-68
6911197	61	139	-59
6911525	63	149	-64
6911853	74	128	-64
6912181	88	134	-64
6912509	74	113	-65
6912837	54	112	-68
6913165	43	105	-56
6913493	8	102	-58
6913821	-15	96	-51
6914149	-6	94	-61
6914477	2	85	-70
6914805	0	81	-62
6915133	-5	99	-66
6915461	-14	87	-61
6915789	-2	93	-71
6916117	-15	86	-76
6916445	-11	71	-74
6916773	-35	75	-78
6917101	-57	96	-78
6917429	-70	86	-81
6917757	-57	63	-72
6918085	-8	66	-77
6918413	-10	76	-83
6918741	-4	76	-67
6919069	-5	86	-65
6919397	-10	84	-58
6919725	17	103	-61
6920053	31	90	-55
6920381	49	84	-72
6920709	22	86	-61
6921037	19	54	-51
6921365	-3	66	-53
6921693	-16	71	-45
6922021	-29	76	-53
6922349	-26	101	-72
6922677	-28	78	-64
6923005	-33	70	-67
6923333	-61	42	-54
6923661	-73	64	-51
6923989	-76	77	-51
6924317	-62	78	-53
6924645	-31	96	-72
6924973	-11	98	-72
6925301	-30	89	-63
6925629	-25	69	-65
6925957	-42	55	-76
6926285	-53	51	-50
6926613	-71	74	-64
6926941	-69	69	-58
6927269	-85	84	-63
6927597	-107	75	-60
6927925	-116	84	-50
6928253	-93	89	-39
6928581	-85	99	-46
6928909	-72	101	-51
6929237	-63	106	-44
6929565	-58	125	-53
6929893	-38	128	-56
6930221	-58	127	-61
6930549	-75	111	-50
6930877	-51	111	-45
6931205	-44	130	-59
6931533	-21	131	-66
6931861	-11	133	-76
6932189	-12	113	-63
6932517	-40	99	-57
6932845	-45	93	-59
6933173	-45	76	-48
6933501	-35	81	-49
6933829	-27	90	-50
6934157	-45	85	-45
6934485	-25	89	-40
6934813	-27	83	-21
6935141	-18	81	-37
6935469	-26	56	-41
6935797	-55	53	-42
6936125	-71	53	-31
6936453	-97	38	-28
6936781	-108	57	-26
6937109	-108	51	-34
6937437	-95	69	-43
6937765	-98	83	-33
6938093	-130	65	-33
6938421	-130	79	-27
6938749	-125	79	-28
6939077	-98	75	-23
6939405	-77	118	-52
6939733	-26	117	-42
6940061	8	120	-51
6940389	-16	108	-55
6940717	-39	92	-36
6941045	-64	112	-38
6941373	-73	100	-10
6941701	-65	109	-24
6942029	-52	103	-16
6942357	-46	113	-22
6942685	-46	113	-29
6943013	-49	113	-30
6943341	-56	120	-18
6943669	-78	113	-17
6943997	-69	125	-26
6944325	-35	120	-29
6944653	-13	110	-22
6944981	-18	114	-31
6945309	-22	109	-27
6945637	-56	110	-28
6945965	-60	109	-21
6946293	-52	108	-44
6946621	-65	106	-45
6946949	-80	106	-35
6947277	-90	106	-37
6947605	-82	136	-42
6947933	-83	99	-46
6948261	-56	125	-59
6948589	-44	131	-56
6948917	-50	104	-43
6949245	-50	134	-30
6949573	-39	129	-40
6949901	-30	115	-47
6950229	-18	109	-55
6950557	-19	89	-50
6950885	-54	103	-52
6951213	-91	87	-27
6951541	-81	103	-27
6951869	-64	99	-29
6952197	-65	107	-41
6952525	-47	112	-28
6952853	-75	116	-46
6953181	-78	97	-40
6953509	-75	97	-19
6953837	-81	123	-31
6954165	-75	128	-40
6954493	-46	127	-38
6954821	-26	131	-39
6955149	-35	129	-29
6955477	-31	119	-35
6955805	-53	129	-41
6956133	-37	118	-39
6956461	-51	130	-50
6956789	-60	138	-47
6957117	-64	137	-34
6957445	-63	128	-32
6957773	-39	131	-22
6958101	-34	127	-33
6958429	-39	129	-29
6958757	-31	136	-36
6959085	-35	141	-40
6959413	-57	136	-37
6959741	-55	113	-32
6960069	-83	116	-31
6960397	-94	110	-24
6960725	-68	122	-27
6961053	-53	126	-40
6961381	-49	114	-40
6961709	-81	75	-57
6962037	-105	86	-28
6962365	-129	115	-16
6962693	-157	91	-29
6963021	-170	77	-40
6963349	-143	76	-39
6963677	-125	78	-42
6964005	-102	94	-47
6964333	-95	83	-43
6964661	-102	71	-44
6964989	-129	74	-43
6965317	-152	12	-47
6965645	-173	-18	-43
6965973	-276	-351	-44
6966301	-282	-176	-41
6966629	-279	-118	-40
6966957	-292	-48	-57
6967285	-248	2	-72
6967613	-228	-13	-79
6967941	-223	53	-73
6968269	-211	108	-77
6968597	-191	146	-80
6968925	-150	138	-66
6969253	-112	105	-76
6969581	-140	137	-79
6969909	-165	131	-86
6970237	-130	153	-74
6970565	-121	174	-77
6970893	-84	216	-88
6971221	-75	217	-97
6971549	-56	235	-95
6971877	-51	227	-94
6972205	-60	228	-83
6972533	-59	241	-85
6972861	-40	237	-83
6973189	-53	196	-70
6973517	-64	179	-67
6973845	-38	172	-61
6974173	-36	197	-83
6974501	17	193	-74
6974829	7	218	-87
6975157	5	205	-80
6975485	9	201	-80
6975813	-5	194	-91
6976141	-2	194	-82
6976469	38	195	-95
6976797	41	204	-107
6977125	27	201	-100
6977453	5	212	-96
6977781	26	204	-95
6978109	26	215	-109
6978437	48	211	-119
6978765	33	199	-124
6979093	-8	164	-102
6979421	-57	141	-78
6979749	-42	144	-68
6980077	-29	123	-89
6980405	-17	115	-92
6980733	-12	84	-93
6981061	-44	60	-82
6981389	-46	102	-99
6981717	-56	93	-94
6982045	-52	87	-103
6982373	-193	-298	-99
6982701	-274	-682	-101
6983029	-287	-278	-83
6983357	-275	-145	-90
6983685	-242	10	-132
6984013	-165	142	-158
6984341	-100	153	-155
6984669	-104	263	-152
6984997	-146	128	-159
6985325	-222	-101	-150
6985653	-187	98	-171
6985981	-189	40	-181
6986309	-182	-22	-186
6986637	-200	51	-170
6986965	-265	-296	-155
6987293	-337	-282	-154
6987621	-353	-273	-212
6987949	-308	-235	-209
6988277	-254	-118	-237
6988605	-203	-41	-264
6988933	-149	63	-293
6989261	-77	137	-300
6989589	-31	48	-329
6989917	11	116	-351
6990245	30	229	-444
6990573	51	158	-487
6990901	48	182	-466
6991229	56	234	-483
6991557	76	78	-520
6991885	33	106	-596
6992213	-13	227	-711
6992541	-44	243	-839
6992869	-56	167	-974
6993197	-54	389	-1171
6993525	-45	536	-1429
6993853	-129	452	-1554
6994181	-303	440	-1675
6994509	-418	506	-1803
6994837	-404	665	-1926
6995165	-536	814	-2150
6995493	-558	1019	-2356
6995821	-791	1088	-2683
6996149	-1127	1200	-2892
6996477	-1256	1218	-3090
6996805	-1244	1128	-3326
6997133	-1445	849	-3355
6997461	-1868	906	-3287
6997789	-2124	1310	-3379
6998117	-1913	1408	-3584
6998445	-2264	1113	-3898
6998773	-3383	-25	-4181
6999101	-3688	-479	-3994
6999429	-3847	-610	-3437
6999757	-4542	-781	-2867
7000085	-6367	-1422	-2905
7000413	-7283	-1987	-2763
7000741	-6764	-2335	-2923
7001069	-5045	-629	-1532
7001397	-1699	1458	331
7001725	1793	3815	3025
7002053	3027	4498	4094
7002381	2135	2393	3844
7002709	2071	1198	1334
7003037	2687	2349	-56
7003365	2670	4207	2616
7003693	3954	3222	2530
7004021	4815	1511	3605
7004349	5074	-502	3807
7004677	4596	-667	3247
7005005	4351	-1171	2912
7005333	3850	-306	3008
7005661	4556	-568	3146
7005989	5644	196	4233
7006317	7004	-377	4672
7006645	7289	-869	5191
7006973	6965	-2665	4897
7007301	6330	-4051	5545
7007629	3506	-2861	3998
7007957	1142	312	2514
7008285	1176	-943	1738
7008613	1220	-2677	2120
7008941	589	-1752	1903
7009269	25	-861	1801
7009597	529	-659	1973
7009925	655	-296	1701
7010253	968	400	1403
7010581	1271	421	1235
7010909	1471	804	839
7011237	1559	1804	387
7011565	1655	1751	85
7011893	1550	1448	-363
7012221	844	1191	-850
7012549	-80	378	-1129
7012877	-480	196	-1516
7013205	-989	641	-1716
7013533	-1578	290	-1701
7013861	-2071	-55	-1594
7014189	-2509	-61	-1452
7014517	-2770	242	-1493
7014845	-3451	2026	-1988
7015173	-4789	2106	-1865
7015501	-6268	8612	-8026
7015829	-6726	1144	-7419
7016157	-4949	-3993	-1761
7016485	-4045	-8228	-1358
7016813	-4434	-5690	-1806
7017141	-4432	703	-584
7017469	-16376	3598	1088
7017797	-1044	7202	4175
7018125	8549	1225	-7879
7018453	-6137	-11937	-4840
7018781	-7460	-13256	-2158
7019109	-1657	497	-2307
7019437	-1627	6449	-1009
7019765	4023	6537	-5712
7020093	7128	-3108	8
7020421	5108	-12036	1245
7020749	996	-3208	3066
7021077	-2385	7646	3802
7021405	-7789	7059	1532
7021733	-6891	-1761	262
7022061	-4056	-2304	251
7022389	-667	-55	589
7022717	2729	1423	855
7023045	2861	1877	1104
7023373	1451	-1436	2105
7023701	795	-679	1269
7024029	293	1020	503
7024357	65	1346	174
7024685	-146	34	638
7025013	-10	-373	767
7025341	54	-1	799
7025669	157	77	827
7025997	-59	-289	601
7026325	-337	-363	576
7026653	-481	-531	499
7026981	-393	-406	450
7027309	-402	-224	259
7027637	-285	-209	209
7027965	-30	-186	232
7028293	129	42	106
7028621	523	271	-152
7028949	639	-11	-278
7029277	1082	29	263
7029605	928	-255	157
7029933	746	70	371
7030261	543	-284	100
7030589	286	90	206
7030917	167	-224	143
7031245	-81	-41	131
7031573	-332	97	121
7031901	-321	-76	5
7032229	-432	121	124
7032557	132	55	24
7032885	291	-95	93
7033213	117	54	-265
7033541	64	291	-119
7033869	121	-91	-8
7034197	45	118	-117
7034525	-135	328	-234
7034853	78	215	-284
7035181	142	162	-139
7035509	30	51	-196
7035837	56	79	-147
7036165	14	-51	-73
7036493	-58	-23	-111
7036821	-129	56	-54
7037149	-21	-55	-85
7037477	-130	-77	-30
7037805	-180	-40	-63
7038133	-312	70	-159
7038461	-378	4	-119
7038789	-524	-15	-90
7039117	-475	3	-133
7039445	-475	-10	-70
7039773	-469	-86	-83
7040101	-355	-19	-142
7040429	-298	19	-150
7040757	-226	76	-160
7041085	-81	45	-222
7041413	-91	59	-237
7041741	-92	-5	-202
7042069	-131	30	-224
7042397	-180	48	-192
7042725	-162	64	-176
7043053	-123	63	-216
7043381	-131	52	-223
7043709	-165	45	-190
7044037	-185	-16	-193
7044365	-205	57	-161
7044693	-204	68	-173
7045021	-159	41	-192
7045349	-133	65	-191
7045677	-131	88	-201
7046005	-132	125	-189
7046333	-147	141	-178
7046661	-100	105	-187
7046989	-87	100	-181
7047317	-91	82	-183
7047645	-110	109	-185
7047973	-119	134	-169
7048301	-135	120	-167
7048629	-99	125	-166
7048957	-95	145	-164
7049285	-120	130	-166
7049613	-109	117	-139
7049941	-91	101	-114
7050269	-143	108	-55
7050597	-74	9	-54
7050925	-63	79	-65
7051253	-127	82	-65
7051581	-82	57	-30
7051909	-75	17	-18
7052237	-65	11	-10
7052565	-118	129	-21
7052893	-117	115	-20
7053221	-120	131	-39
7053549	-79	118	-67
7053877	-37	119	-8
7054205	-16	126	9
7054533	33	106	30
7054861	70	159	30
7055189	122	125	27
7055517	115	128	25
7055845	104	94	36
7056173	60	109	55
7056501	36	107	72
7056829	43	121	77
7057157	93	134	51
7057485	108	69	66
7057813	129	124	59
7058141	119	134	78
7058469	85	123	83
7058797	61	142	63
7059125	40	129	56
7059453	19	117	71
7059781	31	85	94
7060109	24	82	84
7060437	36	71	94
7060765	48	42	95
7061093	35	50	95
7061421	14	37	118
7061749	3	30	113
7062077	-3	62	84
7062405	17	90	76
7062733	-3	81	64
7063061	1	101	61
7063389	9	76	49
7063717	-24	96	49
7064045	-33	101	55
7064373	-29	65	59
7064701	-24	96	52
7065029	12	89	56
7065357	39	85	47
7065685	33	74	52
7066013	-2	72	53
7066341	-7	78	44
7066669	-36	94	43
7066997	-46	60	43
7067325	-59	42	32
7067653	-82	23	37
7067981	-95	46	46
7068309	-76	55	35
7068637	-97	51	31
7068965	-78	55	24
7069293	-74	35	32
7069621	-83	51	19
7069949	-80	71	27
7070277	-62	91	18
7070605	-34	80	7
7070933	-23	62	4
7071261	-30	68	5
7071589	-41	68	8
7071917	-24	-10	-9
7072245	-62	-5	11
7072573	-73	19	-5
7072901	-68	46	-7
7073229	-81	54	-25
7073557	-66	51	-17
7073885	-98	71	-27
7074213	-85	71	-38
7074541	-116	74	-38
7074869	-168	66	-45
7075197	-138	73	-49
7075525	-138	84	-60
7075853	-164	85	-44
7076181	-177	81	-39
7076509	-166	63	-40
7076837	-159	114	-48
7077165	-179	37	-67
7077493	-199	34	-46
7077821	-150	83	-36
7078149	-148	79	-27
7078477	-162	75	-59
7078805	-122	78	-36
7079133	-93	80	-20
7079461	-44	75	-26
7079789	-50	100	-40
7080117	-25	129	-50
7080445	-38	127	-51
7080773	-38	89	-61
7081101	-89	115	-89
7081429	-136	76	-79
7081757	-139	118	-82
7082085	-156	132	-108
7082413	-140	104	-123
7082741	-173	126	-135
7083069	-195	90	-117
7083397	-280	110	-95
7083725	-310	85	-102
7084053	-345	104	-78
7084381	-352	83	-123
7084709	-381	109	-121
7085037	-361	83	-86
7085365	-358	26	-96
7085693	-380	-7	-100
7086021	-407	-7	-107
7086349	-461	-10	-94
7086677	-516	-23	-105
7087005	-575	-35	-94
7087333	-572	-38	-110
7087661	-545	-9	-100
7087989	-498	-7	-102
7088317	-453	8	-114
7088645	-433	-46	-106
7088973	-450	-39	-97
7089301	-527	-35	-101
7089629	-558	-20	-82
7089957	-576	-6	-87
7090285	-539	26	-95
7090613	-494	50	-101
7090941	-451	48	-93
7091269	-462	25	-77
7091597	-439	5	-50
7091925	-480	16	-26
7092253	-462	54	-43
7092581	-430	63	-19
7092909	-386	77	-17
7093237	-356	76	-12
7093565	-319	53	8
7093893	-300	12	15
7094221	-329	19	27
7094549	-354	34	38
7094877	-357	45	46
7095205	-343	51	48
7095533	-331	51	47
7095861	-301	50	61
7096189	-260	72	48
7096517	-219	81	35
7096845	-199	85	33
7097173	-173	99	33
7097501	-170	98	51
7097829	-151	96	57
7098157	-114	88	44
7098485	-97	131	32
7098813	-68	129	23
7099141	-70	143	33
7099469	-76	131	12
7099797	-88	125	41
7100125	-94	146	43
7100453	-37	174	32
7100781	0	155	23
7101109	24	130	4
7101437	14	140	33
7101765	-7	129	19
7102093	-19	112	42
7102421	-81	96	25
7102749	-81	136	42
7103077	-24	136	59
7103405	14	147	58
7103733	74	139	44
7104061	82	160	50
7104389	61	168	52
7104717	20	190	33
7105045	10	178	54
7105373	30	192	51
7105701	59	196	40
7106029	110	186	50
7106357	126	212	39
7106685	100	190	42
7107013	38	168	77
7107341	32	174	74
7107669	20	199	62
7107997	35	190	50
7108325	29	170	61
7108653	46	157	53
7108981	9	164	74
7109309	-10	119	86
7109637	-33	123	79
7109965	-26	133	83
7110293	-8	143	76
7110621	56	125	80
7110949	69	37	83
7111277	24	96	86
7111605	1	66	67
7111933	-72	-32	88
7112261	-84	-112	65
7112589	-122	-220	56
7112917	-82	-49	44
7113245	-70	-83	47
7113573	-106	34	61
7113901	-109	62	30
7114229	-145	79	27
7114557	-145	100	15
7114885	-194	25	14
7115213	-229	84	6
7115541	-223	119	20
7115869	-238	104	34
7116197	-140	144	17
7116525	-44	85	28
7116853	18	32	36
7117181	32	77	62
7117509	1	85	108
7117837	-10	136	140
7118165	6	127	150
7118493	26	165	157
7118821	90	163	140
7119149	139	83	177
7119477	140	157	174
7119805	107	150	204
7120133	88	141	214
7120461	67	199	196
7120789	81	235	181
7121117	109	232	158
7121445	151	197	138
7121773	185	162	135
7122101	212	207	126
7122429	225	225	123
7122757	267	218	107
7123085	333	200	115
7123413	353	156	106
7123741	361	214	105
7124069	372	194	120
7124397	370	207	132
7124725	392	209	133
7125053	367	227	117
7125381	335	165	112
7125709	312	181	125
7126037	225	185	122
7126365	158	201	109
7126693	137	217	115
7127021	61	221	95
7127349	61	197	106
7127677	25	140	89
7128005	-32	173	84
7128333	-24	148	78
7128661	-24	176	53
7128989	6	181	21
7129317	75	202	17
7129645	128	212	-19
7129973	168	183	-22
7130301	162	165	-17
7130629	171	120	-25
7130957	152	169	-37
7131285	131	177	-16
7131613	181	170	-13
7131941	220	161	-11
7132269	256	132	-24
7132597	248	109	-18
7132925	181	129	-12
7133253	108	118	-4
7133581	39	86	3
7133909	-21	93	2
7134237	-43	92	10
7134565	-44	115	0
7134893	-31	125	-29
7135221	21	123	-27
7135549	-6	136	-20
7135877	40	112	-33
7136205	30	160	-26
7136533	40	164	-40
7136861	63	133	-34
7137189	70	158	-38
7137517	77	147	-36
7137845	100	141	-31
7138173	77	161	-26
7138501	88	171	-23
7138829	77	165	-23
7139157	45	153	-8
7139485	43	167	-15
7139813	12	180	-23
7140141	3	148	-4
7140469	-44	137	21
7140797	-51	145	26
7141125	-74	120	32
7141453	-79	125	25
7141781	-67	129	31
7142109	-61	123	54
7142437	-40	96	38
7142765	-42	87	44
7143093	-23	125	40
7143421	-4	129	30
7143749	-9	142	31
7144077	17	164	25
7144405	37	154	17
7144733	36	148	22
7145061	43	146	28
7145389	48	145	28
7145717	48	81	25
7146045	21	148	1
7146373	36	160	5
7146701	28	117	11
7147029	25	159	19
7147357	6	134	12
7147685	6	132	13
7148013	-23	145	-7
7148341	-43	164	6
7148669	-103	163	9
7148997	-82	127	26
7149325	-88	144	14
7149653	-102	157	16
7149981	-101	161	-15
7150309	-53	172	-14
7150637	-37	182	-17
7150965	-35	186	-20
7151293	-42	159	-6
7151621	-60	157	2
7151949	-70	162	-2
7152277	-41	189	1
7152605	-37	198	-15
7152933	6	133	-5
7153261	17	191	-9
7153589	-18	190	-15
7153917	-23	158	5
7154245	-53	176	-4
7154573	-76	142	-21
7154901	-95	168	-2
7155229	-104	144	-1
7155557	-110	150	4
7155885	-115	149	-2
7156213	-123	118	13
7156541	-137	143	20
7156869	-118	109	14
7157197	-121	109	22
7157525	-136	118	10
7157853	-157	120	19
7158181	-141	119	24
7158509	-151	141	5
7158837	-147	171	-2
7159165	-109	172	4
7159493	-106	145	8
7159821	-113	145	4
7160149	-132	146	-3
7160477	-114	127	-3
7160805	-117	180	-13
7161133	-106	168	-17
7161461	-95	175	-35
7161789	-71	175	-29
7162117	-81	177	-24
7162445	-78	175	-6
7162773	-65	192	-8
7163101	-61	176	-14
7163429	-20	173	-15
7163757	-33	158	-19
7164085	-58	147	4
7164413	-86	153	-6
7164741	-104	141	-7
7165069	-134	152	-13
7165397	-110	137	-7
7165725	-99	155	-2
7166053	-77	170	-11
7166381	-60	156	-22
7166709	-69	176	-24
7167037	-63	195	-40
7167365	-47	182	-29
7167693	-47	184	-40
7168021	-43	204	-29
7168349	-33	208	-46
7168677	3	213	-43
7169005	-3	212	-59
7169333	-6	205	-48
7169661	-30	214	-54
7169989	-39	195	-49
7170317	-53	205	-55
7170645	-69	186	-45
7170973	-89	199	-59
7171301	-86	201	-58
7171629	-63	197	-47
7171957	-58	189	-49
7172285	-51	194	-56
7172613	-61	197	-59
7172941	-55	186	-51
7173269	-33	212	-42
7173597	-28	198	-44
7173925	-6	203	-54
7174253	-10	200	-47
7174581	-23	189	-44
7174909	-41	192	-43
7175237	-59	193	-45
7175565	-45	182	-46
7175893	-59	180	-38
7176221	-83	174	-44
7176549	-82	187	-59
7176877	-70	199	-56
7177205	-66	181	-58
7177533	-72	178	-58
7177861	-78	173	-51
7178189	-72	156	-26
7178517	-76	148	-25
7178845	-56	176	-36
7179173	-39	161	-49
7179501	-56	131	-28
7179829	-95	134	-27
7180157	-109	114	-31
7180485	-126	141	-25
7180813	-122	147	-27
7181141	-85	138	-26
7181469	-59	152	-32
7181797	-56	149	-46
7182125	-29	149	-47
7182453	-43	154	-42
7182781	-43	171	-28
7183109	-55	159	-42
7183437	-66	170	-35
7183765	-46	160	-32
7184093	-42	162	-26
7184421	-37	166	-27
7184749	-21	128	-27
7185077	-49	153	-13
7185405	-58	128	-15
7185733	-63	144	6
7186061	-50	147	-13
7186389	-28	158	-15
7186717	-31	141	-23
7187045	-34	142	-25
7187373	-58	156	-20
7187701	-65	156	-9
7188029	-75	155	-14
7188357	-74	144	-10
7188685	-57	154	-23
7189013	-35	149	-31
7189341	-27	158	-40
7189669	-16	149	-48
7189997	-12	147	-44
7190325	-32	144	-45
7190653	-30	143	-34
7190981	-37	143	-46
7191309	-29	151	-46
7191637	-60	151	-50
7191965	-67	135	-58
7192293	-71	146	-42
7192621	-73	152	-48
7192949	-71	137	-63
7193277	-87	118	-45
7193605	-60	139	-35
7193933	-47	145	-34
7194261	-8	111	-40
7194589	-40	116	-44
7194917	-49	88	-44
7195245	-89	88	-45
7195573	-103	89	-42
7195901	-106	84	-36
7196229	-86	101	-58
7196557	-81	97	-59
7196885	-63	93	-56
7197213	-67	100	-64
7197541	-71	104	-75
7197869	-65	114	-57
7198197	-68	119	-64
7198525	-49	111	-67
7198853	-42	124	-60
7199181	-16	125	-68
7199509	-30	129	-75
7199837	-40	127	-59
7200165	-59	110	-60
7200493	-85	105	-62
7200821	-103	125	-59
7201149	-86	111	-67
7201477	-49	123	-61
7201805	-59	104	-47
7202133	-72	127	-53
7202461	-61	133	-52
7202789	-76	109	-59
7203117	-72	137	-64
7203445	-55	130	-70
7203773	-48	135	-72
7204101	-41	129	-61
7204429	-42	114	-75
7204757	-57	135	-67
7205085	-58	135	-65
7205413	-56	122	-61
7205741	-52	107	-62
7206069	-52	116	-54
7206397	-56	112	-67
7206725	-35	128	-59
7207053	-26	113	-63
7207381	-44	132	-67
7207709	-48	136	-63
7208037	-48	118	-61
7208365	-27	115	-57
7208693	-23	127	-56
7209021	-9	115	-42
7209349	1	118	-41
7209677	-1	111	-41
7210005	3	102	-57
7210333	-17	98	-49
7210661	-47	111	-47
7210989	-77	102	-43
7211317	-70	96	-48
7211645	-48	97	-51
7211973	-28	113	-47
7212301	-3	111	-52
7212629	9	118	-49
7212957	-12	141	-45
7213285	-30	118	-56
7213613	-37	127	-45
7213941	-40	120	-49
7214269	-40	131	-50
7214597	-40	132	-51
7214925	-45	95	-50
7215253	-60	118	-45
7215581	-37	96	-46
7215909	-28	104	-53
7216237	-17	110	-41
7216565	1	129	-40
