Time Stamp	Gyroscope X	Gyroscope Y	Gyroscope Z
RAW	RAW	RAW	RAW
no units	no units	no units	no units
157302	118	90	29
157630	142	112	39
157958	104	88	19
158286	106	89	12
158614	90	58	8
158942	44	63	3
159270	45	55	-5
159598	6	69	-20
159926	-36	117	-12
160254	-42	117	-9
160582	-22	110	-16
160910	-10	115	-25
161238	19	113	-8
161566	30	106	-10
161894	30	99	-24
162222	17	92	-18
162550	-7	118	-17
162878	-28	151	-17
163206	-60	146	-31
163534	-87	130	-27
163862	-113	142	-27
164190	-134	145	-36
164518	-113	159	-36
164846	-104	158	-47
165174	-111	170	-42
165502	-130	147	-46
165830	-102	106	-50
166158	-93	132	-53
166486	-87	139	-75
166814	-107	122	-71
167142	-112	115	-65
167470	-123	143	-64
167798	-140	142	-82
168126	-185	164	-95
168454	-210	163	-101
168782	-242	153	-93
169110	-277	172	-109
169438	-273	148	-133
169766	-220	161	-126
170094	-194	184	-155
170422	-207	152	-152
170750	-235	184	-161
171078	-243	198	-165
171406	-224	179	-176
171734	-215	197	-196
172062	-220	222	-203
172390	-220	246	-219
172718	-216	213	-216
173046	-201	190	-212
173374	-170	186	-232
173702	-150	201	-235
174030	-153	216	-240
174358	-231	225	-254
174686	-271	269	-264
175014	-289	282	-264
175342	-266	230	-258
175670	-205	260	-248
175998	-166	237	-260
176326	-81	196	-261
176654	-109	198	-277
176982	-111	207	-276
177310	-98	272	-264
177638	-84	214	-280
177966	-65	122	-277
178294	-65	73	-296
178622	13	31	-285
178950	78	24	-291
179278	185	8	-297
179606	197	-29	-297
179934	125	-20	-309
180262	71	3	-275
180590	122	-71	-231
180918	93	-45	-223
181246	202	-25	-177
181574	234	-40	-157
181902	243	-27	-129
182230	182	-1	-98
182558	105	11	-67
182886	26	-9	-43
183214	-83	50	-31
183542	-79	38	-26
183870	-97	56	1
184198	-55	55	13
184526	-67	76	32
184854	-66	75	25
185182	-54	48	11
185510	-27	71	12
185838	-26	109	0
186166	34	93	-26
186494	34	74	-41
186822	81	101	-76
187150	194	85	-104
187478	340	61	-134
187806	552	96	-186
188134	781	106	-247
188462	1038	79	-298
188790	1284	85	-317
189118	1378	102	-318
189446	1351	143	-290
189774	1270	128	-246
190102	1138	148	-202
190430	1025	168	-178
190758	989	131	-167
191086	1016	34	-166
191414	1131	9	-161
191742	1254	-25	-145
192070	1313	-50	-130
192398	1304	9	-108
192726	1166	4	-87
193054	922	-50	-59
193382	719	-31	-24
193710	563	14	-23
194038	485	80	-10
194366	498	108	-16
194694	501	98	-16
195022	593	193	-26
195350	494	58	-18
195678	487	-24	-4
196006	532	-34	-28
196334	559	-50	-49
196662	563	-26	-69
196990	506	18	-115
197318	408	24	-119
197646	293	39	-142
197974	164	153	-175
198302	83	151	-207
198630	21	127	-232
198958	-52	117	-256
199286	-128	146	-299
199614	-232	205	-347
199942	-301	175	-363
200270	-306	235	-401
200598	-307	275	-456
200926	-269	255	-476
201254	-202	230	-494
201582	-266	273	-559
201910	-291	308	-498
202238	-398	328	-593
202566	-441	366	-581
202894	-493	371	-565
203222	-439	307	-543
203550	-440	284	-497
203878	-380	244	-472
204206	-347	198	-442
204534	-249	126	-355
204862	-226	156	-361
205190	-196	130	-318
205518	-188	93	-245
205846	-223	124	-199
206174	-304	125	-148
206502	-390	151	-96
206830	-473	198	-45
207158	-532	169	-13
207486	-547	154	23
207814	-525	129	49
208142	-465	92	64
208470	-406	79	72
208798	-333	80	88
209126	-278	74	91
209454	-224	37	96
209782	-159	14	113
210110	-161	17	98
210438	-153	5	122
210766	-133	20	144
211094	-134	42	146
211422	-192	63	135
211750	-222	55	140
212078	-250	82	141
212406	-293	93	127
212734	-324	125	121
213062	-367	124	115
213390	-402	143	97
213718	-407	118	100
214046	-386	129	78
214374	-375	134	82
214702	-342	112	69
215030	-309	124	62
215358	-206	236	90
215686	-280	149	28
216014	-288	113	5
216342	-211	123	-5
216670	-199	145	-24
216998	-184	140	-39
217326	-146	119	-66
217654	-112	96	-62
217982	-60	105	-74
218310	-11	75	-69
218638	12	92	-72
218966	40	115	-93
219294	92	83	-71
219622	115	63	-64
219950	104	81	-59
220278	120	48	-34
220606	175	57	-14
220934	193	29	-15
221262	217	32	10
221590	198	8	26
221918	178	15	51
222246	114	28	64
222574	66	59	91
222902	39	56	123
223230	-7	66	119
223558	-8	29	146
223886	33	30	169
224214	80	27	168
224542	171	25	184
224870	266	-21	172
225198	293	10	191
225526	314	-22	183
225854	340	-80	174
226182	386	-55	205
226510	379	-5	206
226838	294	-12	184
227166	245	31	175
227494	120	55	166
227822	88	57	150
228150	77	64	149
228478	74	43	138
228806	77	48	118
229134	136	24	129
229462	152	1	104
229790	201	-15	121
230118	238	-76	122
230446	254	-79	109
230774	241	-66	90
231102	166	-36	85
231430	106	-1	96
231758	1	36	72
232086	-30	80	64
232414	-101	107	28
232742	-136	90	12
233070	-188	91	0
233398	-191	158	-1
233726	-167	128	-9
234054	-204	120	-44
234382	-200	131	-78
234710	-115	112	-85
235038	-17	99	-103
235366	54	116	-110
235694	99	100	-124
236022	152	92	-135
236350	170	104	-144
236678	184	56	-149
237006	233	34	-154
237334	294	21	-146
237662	331	14	-152
237990	304	29	-155
238318	265	32	-143
238646	226	51	-115
238974	168	24	-97
239302	65	49	-76
239630	9	60	-57
239958	23	48	-42
240286	11	65	-32
240614	-34	51	-38
240942	-60	61	-29
241270	-47	49	-8
241598	-61	53	-8
241926	-32	40	-7
242254	-21	38	-18
242582	2	37	-6
242910	-11	41	-23
243238	32	43	-25
243566	-3	62	-36
243894	-11	28	-28
244222	-66	105	-46
244550	-75	64	-56
244878	-76	77	-58
245206	-60	69	-76
245534	-47	56	-79
245862	-18	70	-95
246190	-27	87	-99
246518	-38	90	-99
246846	-61	105	-91
247174	-66	125	-82
247502	-99	130	-91
247830	-88	149	-87
248158	-57	125	-70
248486	-47	137	-64
248814	-25	136	-69
249142	7	95	-60
249470	35	101	-65
249798	19	113	-64
250126	21	96	-65
250454	12	109	-62
250782	-7	104	-62
251110	-60	116	-69
251438	-70	147	-79
251766	-75	155	-72
252094	-98	150	-88
252422	-120	150	-81
252750	-129	177	-102
253078	-169	182	-99
253406	-161	182	-102
253734	-151	162	-94
254062	-147	169	-84
254390	-154	178	-91
254718	-167	188	-87
255046	-178	187	-85
255374	-177	185	-57
255702	-187	195	-70
256030	-210	175	-75
256358	-197	184	-63
256686	-184	157	-41
257014	-169	155	-45
257342	-99	175	-32
257670	-139	169	-44
257998	-112	140	-44
258326	-126	185	-48
258654	-164	146	-45
258982	-130	182	-28
259310	-144	195	-39
259638	-110	149	-46
259966	-132	185	-51
260294	-98	194	-43
260622	-106	153	-61
260950	-135	187	-60
261278	-146	185	-61
261606	-142	177	-54
261934	-161	191	-67
262262	-164	182	-70
262590	-185	184	-65
262918	-176	184	-62
263246	-173	176	-55
263574	-166	184	-64
263902	-168	176	-53
264230	-154	168	-43
264558	-156	183	-54
264886	-138	162	-44
265214	-125	163	-45
265542	-92	154	-41
265870	-76	178	-38
266198	-52	181	-26
266526	-55	175	-31
266854	-69	183	-30
267182	-87	174	-20
267510	-96	167	-22
267838	-87	174	-17
268166	-73	167	2
268494	-48	174	10
268822	-82	191	-4
269150	-69	195	2
269478	-47	168	-9
269806	-45	148	-10
270134	-21	178	-5
270462	-20	168	-27
270790	-17	156	-23
271118	-35	161	-23
271446	-32	182	-14
271774	-63	182	-9
272102	-100	211	-22
272430	-133	218	-5
272758	-123	204	16
273086	-61	152	0
273414	7	105	-12
273742	96	72	-4
274070	143	65	-10
274398	120	100	-17
274726	55	128	0
275054	31	140	18
275382	11	122	25
275710	0	131	10
276038	-1	149	1
276366	54	163	-13
276694	55	152	-13
277022	26	157	-1
277350	18	149	-25
277678	-2	166	-26
278006	-14	180	-20
278334	-8	176	-25
278662	-31	183	-37
278990	-35	178	-55
279318	-28	178	-39
279646	-18	188	-57
279974	-27	180	-60
280302	-27	178	-60
280630	-34	202	-69
280958	-67	205	-64
281286	-73	211	-68
281614	-67	182	-63
281942	-70	174	-57
282270	-67	180	-86
282598	-31	167	-81
282926	-40	192	-78
283254	-50	175	-80
283582	-59	180	-70
283910	-92	190	-67
284238	-130	198	-71
284566	-176	194	-77
284894	-155	198	-66
285222	-156	195	-68
285550	-143	193	-69
285878	-144	190	-81
286206	-138	183	-89
286534	-161	183	-80
286862	-169	168	-80
287190	-168	160	-82
287518	-178	151	-87
287846	-193	163	-81
288174	-202	146	-72
288502	-201	147	-77
288830	-188	145	-61
289158	-164	152	-59
289486	-144	139	-55
289814	-128	153	-55
290142	-120	140	-47
290470	-120	136	-38
290798	-98	160	-22
291126	-121	167	-5
291454	-68	192	15
291782	-68	139	15
292110	-64	142	29
292438	-26	145	31
292766	-24	132	35
293094	0	135	52
293422	15	119	63
293750	20	78	68
294078	69	109	78
294406	45	159	90
294734	30	157	78
295062	77	116	94
295390	71	104	92
295718	120	86	84
296046	85	149	77
296374	46	112	71
296702	68	155	60
297030	33	150	38
297358	32	118	31
297686	26	136	8
298014	-14	165	-2
298342	-14	155	-11
298670	31	123	-17
298998	64	107	-15
299326	31	135	-28
299654	30	153	-22
299982	17	159	-23
300310	24	149	-20
300638	-12	148	-9
300966	-37	163	-27
301294	-65	174	-25
301622	-76	158	-31
301950	-62	150	-15
302278	-50	157	-10
302606	-59	149	-25
302934	-63	160	-24
303262	-66	164	-26
303590	-59	160	-20
303918	-45	144	-19
304246	-56	148	-18
304574	-43	144	-24
304902	-13	141	-31
305230	-9	139	-30
305558	-21	129	-33
305886	-39	137	-44
306214	-64	162	-42
306542	-74	168	-52
306870	-78	172	-57
307198	-99	174	-60
307526	-110	187	-51
307854	-112	179	-49
308182	-134	185	-55
308510	-126	186	-71
308838	-126	170	-71
309166	-111	164	-76
309494	-88	171	-79
309822	-87	166	-79
310150	-96	163	-85
310478	-125	179	-82
310806	-147	183	-91
311134	-166	186	-91
311462	-193	178	-88
311790	-187	188	-93
312118	-178	183	-96
312446	-165	182	-100
312774	-148	152	-99
313102	-131	156	-101
313430	-130	159	-93
313758	-116	150	-89
314086	-126	165	-90
314414	-131	161	-97
314742	-133	146	-89
315070	-108	185	-86
315398	-111	187	-82
315726	-81	180	-72
316054	-109	161	-79
316382	-156	142	-91
316710	-126	216	-82
317038	-130	244	-111
317366	-44	179	-81
317694	0	168	-52
318022	-37	186	-73
318350	-73	168	-73
318678	-74	182	-77
319006	-78	160	-90
319334	-47	190	-105
319662	-53	217	-109
319990	18	168	-92
320318	-1	154	-73
320646	-54	114	-64
320974	-86	158	-57
321302	-76	141	-94
321630	-43	169	-90
321958	19	207	-109
322286	-20	216	-120
322614	-35	104	-124
322942	-57	111	-128
323270	-81	97	-151
323598	-40	114	-161
323926	49	116	-172
324254	134	119	-187
324582	209	60	-159
324910	263	46	-134
325238	228	53	-114
325566	188	56	-109
325894	120	78	-107
326222	80	84	-95
326550	35	64	-94
326878	-71	131	-89
327206	-224	112	-94
327534	-363	105	-92
327862	-437	119	-76
328190	-363	73	-79
328518	-304	36	-90
328846	-160	2	-115
329174	-93	-32	-129
329502	-65	-32	-130
329830	-17	-70	-116
330158	-50	-58	-107
330486	-99	-46	-120
330814	-144	-66	-118
331142	-231	-52	-102
331470	-299	-97	-95
331798	-313	-97	-76
332126	-293	-143	-78
332454	-218	-161	-57
332782	-211	-217	-51
333110	-245	-235	-41
333438	-300	-215	-8
333766	-372	-241	27
334094	-391	-209	55
334422	-402	-179	75
334750	-374	-230	94
335078	-341	-258	97
335406	-329	-287	124
335734	-276	-303	177
336062	-213	-321	212
336390	-135	-373	247
336718	-92	-398	261
337046	-69	-409	299
337374	-36	-415	330
337702	-24	-418	369
338030	25	-400	385
338358	99	-420	418
338686	201	-435	433
339014	308	-459	454
339342	420	-522	466
339670	518	-568	481
339998	647	-591	480
340326	759	-571	477
340654	904	-625	462
340982	1040	-678	446
341310	1148	-713	451
341638	1231	-742	442
341966	1293	-723	466
342294	1350	-697	474
342622	1374	-706	492
342950	1369	-796	505
343278	1382	-822	540
343606	1322	-837	577
343934	1364	-941	680
344262	1295	-890	789
344590	1082	-867	865
344918	934	-842	1003
345246	460	-732	1283
345574	254	-692	1468
345902	-73	-567	1647
346230	-481	-330	1787
346558	-885	-294	1952
346886	-997	-286	2135
347214	-1121	-183	2219
347542	-1135	-363	2274
347870	-803	-428	2361
348198	-503	-339	2272
348526	-88	-262	2316
348854	386	-162	2260
349182	642	-140	2023
349510	606	74	1903
349838	405	174	1627
350166	551	-20	1501
350494	876	-319	1302
350822	1259	-491	869
351150	1777	-919	651
351478	2422	-1051	264
351806	3003	-1026	-224
352134	3908	-1326	-620
352462	4938	-1857	-925
352790	6001	-2242	-1169
353118	6507	-2373	-1358
353446	6658	-2276	-1455
353774	6486	-2218	-1459
354102	6241	-2133	-1368
354430	5769	-1927	-1224
354758	5126	-1741	-1039
355086	4381	-1513	-790
355414	3520	-1242	-548
355742	2483	-878	-284
356070	1632	-561	-1
356398	786	-169	280
356726	49	-7	537
357054	-431	28	815
357382	-850	229	1029
357710	-1093	422	1215
358038	-1230	496	1404
358366	-1305	466	1592
358694	-1447	508	1740
359022	-1623	604	1815
359350	-1630	559	1916
359678	-1461	426	1932
360006	-1263	339	1841
360334	-811	245	1948
360662	-575	301	1852
360990	-355	348	1880
361318	-326	311	1738
361646	-328	255	1575
361974	-180	286	1379
362302	22	326	1132
362630	327	243	889
362958	612	171	613
363286	978	-126	333
363614	1234	-365	85
363942	1133	-209	-307
364270	1225	94	-868
364598	2313	-362	-1320
364926	3476	-893	-1433
365254	3918	-685	-1045
365582	3417	229	-556
365910	2637	791	-163
366238	1607	1349	-57
366566	419	1826	-261
366894	-833	1886	-476
367222	-2024	1981	-564
367550	-2540	2264	-533
367878	-2749	2644	-568
368206	-2907	2452	-702
368534	-2961	2182	-855
368862	-2913	2078	-939
369190	-2337	1783	-1038
369518	-956	1228	-1049
369846	635	875	-1097
370174	1686	804	-1111
370502	1725	1025	-1179
370830	1272	1297	-1126
371158	762	1425	-995
371486	402	1307	-940
371814	218	1099	-934
372142	231	1243	-940
372470	634	1072	-936
372798	1071	824	-900
373126	1224	850	-848
373454	1412	805	-774
373782	1421	668	-723
374110	1249	713	-657
374438	930	762	-577
374766	603	766	-547
375094	429	633	-500
375422	345	562	-516
375750	372	559	-553
376078	428	484	-565
376406	404	445	-565
376734	187	478	-513
377062	103	420	-455
377390	-33	455	-448
377718	-70	418	-438
378046	-97	355	-394
378374	-146	397	-337
378702	-140	343	-320
379030	-91	370	-251
379358	-51	405	-227
379686	88	414	-289
380014	351	422	-331
380342	546	434	-329
380670	652	481	-337
380998	734	436	-329
381326	833	391	-358
381654	891	299	-385
381982	1014	14	-405
382310	1194	-99	-449
382638	1158	11	-574
382966	1121	500	-707
383294	738	691	-808
383622	267	698	-810
383950	-309	702	-739
384278	-683	484	-673
384606	-819	298	-617
384934	-714	267	-613
385262	-535	329	-618
385590	-376	378	-598
385918	-334	398	-550
386246	-372	408	-539
386574	-377	423	-480
386902	-413	376	-425
387230	-304	300	-425
387558	-76	295	-358
387886	200	249	-312
388214	496	200	-298
388542	630	125	-266
388870	686	109	-218
389198	644	184	-148
389526	453	292	-110
389854	109	210	-35
390182	-182	267	52
390510	-510	359	109
390838	-685	307	123
391166	-653	273	125
391494	-748	246	80
391822	-801	267	47
392150	-879	305	35
392478	-945	300	26
392806	-970	235	-4
393134	-885	270	-50
393462	-825	212	-97
393790	-699	39	-146
394118	-657	119	-176
394446	-473	76	-186
394774	-317	27	-181
395102	-256	10	-216
395430	-147	-41	-254
395758	31	-69	-277
396086	167	-37	-305
396414	210	-36	-338
396742	211	9	-333
397070	72	46	-318
397398	-62	96	-315
397726	-220	112	-330
398054	-297	86	-316
398382	-333	102	-298
398710	-365	77	-193
399038	-396	100	-257
399366	-344	110	-207
399694	-317	117	-162
400022	-328	135	-82
400350	-283	159	-28
400678	-219	133	48
401006	-15	11	122
401334	131	-128	174
401662	208	-135	191
401990	527	-97	274
402318	659	12	298
402646	699	51	302
402974	748	-17	326
403302	559	-19	291
403630	379	56	286
403958	300	96	261
404286	267	116	240
404614	319	97	216
404942	376	133	196
405270	435	189	170
405598	405	216	160
405926	394	219	197
406254	296	252	198
406582	232	285	225
406910	150	359	233
407238	56	314	265
407566	-15	311	317
407894	-25	282	352
408222	62	268	376
408550	41	282	386
408878	131	252	430
409206	118	343	452
409534	40	355	444
409862	23	218	465
410190	-78	280	474
410518	-125	157	463
410846	-143	131	441
411174	-108	81	392
411502	-6	18	341
411830	68	82	323
412158	132	105	301
412486	66	131	298
412814	15	149	286
413142	13	154	273
413470	17	127	239
413798	81	112	213
414126	168	150	147
414454	279	138	135
414782	230	145	128
415110	175	177	153
415438	98	175	150
415766	68	190	141
416094	43	207	130
416422	58	211	121
416750	25	236	103
417078	-12	237	93
417406	6	256	98
417734	-15	290	87
418062	-130	262	138
418390	-272	296	158
418718	-370	251	184
419046	-408	216	218
419374	-391	201	264
419702	-347	196	324
420030	-365	170	377
420358	-527	296	499
420686	-788	446	639
421014	-1206	572	795
421342	-1555	605	933
421670	-1701	561	1075
421998	-1764	524	1246
422326	-1744	430	1421
422654	-1622	327	1607
422982	-1311	270	1830
423310	-1051	265	2171
423638	-818	460	2600
423966	-783	557	2987
424294	-651	418	3481
424622	-382	469	3946
424950	100	697	4245
425278	476	652	4736
425606	768	904	5182
425934	975	895	5621
426262	910	1115	5960
426590	593	1313	6234
426918	285	985	6543
427246	146	1120	6820
427574	37	1122	6902
427902	237	764	6847
428230	496	731	6670
428558	626	316	6320
428886	1289	323	6100
429214	2089	252	5822
429542	2611	-105	5548
429870	2130	268	5179
430198	707	1039	4969
430526	195	1139	4972
430854	867	1097	5111
431182	3	757	4601
431510	-654	615	4748
431838	-939	344	4516
432166	-117	50	4328
432494	1010	-215	3798
432822	1826	-597	3148
433150	2509	-723	2745
433478	2326	-582	2140
433806	2555	-336	1562
434134	2406	-257	841
434462	1342	182	110
434790	579	368	-919
435118	-494	628	-1386
435446	-2214	707	-2345
435774	-3096	789	-3419
436102	-3537	807	-4183
436430	-3989	710	-5220
436758	-3747	571	-6260
437086	-3801	336	-7297
437414	-4212	-114	-8390
437742	-4452	-391	-9391
438070	-4901	-1044	-10432
438398	-5305	-1584	-11424
438726	-5548	-2114	-12051
439054	-6490	-1337	-11918
439382	-7540	-690	-11176
439710	-8807	-852	-11613
440038	-9087	-149	-13255
440366	-9362	1344	-16314
440694	-14110	4550	-18874
441022	-17061	7784	-17577
441350	-10508	3535	-12846
441678	-1897	-1795	-4191
442006	1441	-3869	960
442334	-2116	-1043	-249
442662	-3003	2507	-1503
442990	560	2505	-1875
443318	4062	465	-1208
443646	6824	-761	-447
443974	7556	-974	-520
444302	8101	-1258	-776
444630	9505	-1452	-563
444958	10573	-1383	-127
445286	10923	-1178	150
445614	9352	-897	565
445942	5763	-883	893
446270	2404	391	794
446598	896	1022	856
446926	618	1043	1300
447254	943	884	2057
447582	1814	914	2900
447910	2727	774	3527
448238	4075	301	3951
448566	4968	242	4268
448894	5196	1131	4155
449222	4834	1158	3732
449550	3694	1101	3369
449878	2569	1617	3358
450206	1269	1056	3574
450534	-2320	1459	3273
450862	-6675	-887	4155
451190	-12757	-11237	8331
451518	1533	-12741	18553
451846	-7323	14737	17001
452174	-1697	321	8290
452502	6407	-6993	-1730
452830	9168	9467	-2101
453158	18831	9805	5421
453486	11479	-267	7934
453814	-1320	2622	721
454142	680	1733	6666
454470	3425	-13744	14140
454798	7257	4006	7444
455126	854	3966	2218
455454	-5425	2469	-3183
455782	-7544	1521	-4478
456110	-7092	-242	-5110
456438	-5234	-1129	-4386
456766	-4038	-1724	-5250
457094	-3893	-1427	-6671
457422	-3432	-2395	-5691
457750	684	-816	-7005
458078	2672	-307	-5749
458406	3917	-540	-5388
458734	4170	-409	-5441
459062	3928	-458	-4633
459390	3608	-700	-4598
459718	4134	-768	-3658
460046	3321	-1224	-3770
460374	3956	-1718	-3057
460702	3776	-1689	-2947
461030	3474	-1285	-2792
461358	2255	-778	-2652
461686	720	-557	-2280
462014	-1144	-172	-1721
462342	-2823	105	-1171
462670	-3707	268	-754
462998	-3929	187	-491
463326	-3837	207	-246
463654	-3628	371	-268
463982	-3303	504	-528
464310	-2596	448	-525
464638	-1942	524	-544
464966	-1177	451	-461
465294	-471	130	-586
465622	99	-46	-958
465950	641	-225	-1194
466278	1148	-293	-1330
466606	1582	-170	-1324
466934	1404	-43	-1449
467262	1030	6	-1374
467590	665	-93	-1255
467918	568	117	-1268
468246	193	122	-1350
468574	335	203	-1257
468902	506	405	-1211
469230	1175	330	-1186
469558	1698	-168	-1131
469886	1547	-19	-831
470214	605	281	-954
470542	-167	315	-699
470870	-833	218	-493
471198	-1173	253	-461
471526	-1054	171	-410
471854	-538	-21	-350
472182	-239	269	-591
472510	303	123	-545
472838	563	245	-505
473166	826	-29	-42
473494	565	373	-440
473822	542	213	-170
474150	250	107	-67
474478	-1	119	46
474806	-499	-59	200
475134	-512	-151	338
475462	118	-11	483
475790	486	259	593
476118	-304	712	-28
476446	-1051	296	-537
476774	-2281	-1350	-1207
477102	-2356	-1839	-1637
477430	-1617	-1977	-652
477758	828	-1692	283
478086	389	961	654
478414	195	2845	819
478742	-2013	4590	-238
479070	-3247	3651	-521
479398	-2699	1059	59
479726	-3262	-827	56
480054	-3351	-595	-57
480382	-2554	-445	-106
480710	-1415	-610	-82
481038	-85	-313	155
481366	513	79	64
481694	607	330	65
482022	-61	325	-86
482350	-426	250	-114
482678	-354	342	21
483006	-222	195	236
483334	-57	274	170
483662	505	171	252
483990	798	155	138
484318	1057	7	16
484646	1285	2	60
484974	934	121	55
485302	293	187	10
485630	-267	329	-14
485958	-685	287	-30
486286	-1004	320	-45
486614	-1085	396	-29
486942	-1068	428	-64
487270	-1152	468	-95
487598	-1055	424	-43
487926	-1148	413	-115
488254	-1112	360	-138
488582	-1065	387	9
488910	-1086	400	-88
489238	-1000	286	-58
489566	-713	253	140
489894	-618	294	-56
490222	-252	226	-34
490550	-46	219	-70
490878	138	245	-82
491206	212	105	-47
491534	200	118	82
491862	33	159	-12
492190	47	211	-49
492518	95	108	8
492846	117	34	27
493174	170	31	63
493502	289	32	113
493830	274	46	138
494158	225	65	124
494486	113	6	165
494814	-115	99	230
495142	-329	147	272
495470	-474	119	277
495798	-461	125	254
496126	-411	127	271
496454	-316	137	263
496782	-122	128	279
497110	-18	97	245
497438	72	91	221
497766	165	47	207
498094	230	7	193
498422	240	-59	185
498750	158	-66	163
499078	83	-63	146
499406	28	-57	114
499734	13	-37	68
500062	-8	13	33
500390	-5	-28	35
500718	-26	7	5
501046	-42	-11	-16
501374	-50	-58	-47
501702	-144	-63	-58
502030	-182	-38	-48
502358	-193	-92	-50
502686	-197	-48	-89
503014	-152	-46	-123
503342	-105	-30	-161
503670	-33	-6	-154
503998	12	21	-162
504326	-30	-36	-167
504654	-98	-57	-158
504982	-93	31	-148
505310	-179	75	-134
505638	-238	138	-67
505966	-221	300	22
506294	-276	397	84
506622	-323	454	150
506950	-291	354	182
507278	-283	317	116
507606	-259	386	70
507934	-43	633	-96
508262	-194	658	-319
508590	-302	768	-482
508918	-561	709	-701
509246	-755	696	-803
509574	-514	512	-883
509902	200	53	-938
510230	1267	-528	-764
510558	2402	-1119	-766
510886	2618	-1428	-875
511214	2312	-1877	-773
511542	1572	-2317	-402
511870	-26	-2083	170
512198	-2161	-1757	695
512526	-4218	-1807	1100
512854	-5700	-2092	1523
513182	-6692	-2277	1857
513510	-7013	-2371	2046
513838	-6821	-2629	2317
514166	-6362	-2681	2441
514494	-6348	-2611	2513
514822	-6580	-2802	2448
515150	-6698	-2882	2451
515478	-7126	-2815	2393
515806	-7645	-2606	2305
516134	-8151	-2543	2151
516462	-8350	-2611	1984
516790	-8365	-2674	1752
517118	-8381	-2427	1483
517446	-8190	-2115	1216
517774	-7875	-1960	992
518102	-7621	-1829	814
518430	-7478	-1495	670
518758	-7516	-1257	522
519086	-7538	-1008	384
519414	-7422	-803	231
519742	-6617	-715	153
520070	-5802	-784	93
520398	-4952	-937	86
520726	-3917	-836	86
521054	-2767	-698	-18
521382	-1597	-824	-107
521710	-267	-951	-105
522038	1120	-910	-103
522366	2212	-951	-155
522694	2995	-922	-277
523022	3809	-822	-374
523350	4818	-840	-374
523678	5707	-984	-282
524006	6356	-1053	-128
524334	6455	-1079	-116
524662	6156	-386	-109
524990	6417	299	-14
525318	6172	301	35
525646	5128	156	-20
525974	4696	-850	182
526302	5851	-698	321
526630	6947	629	320
526958	4974	2394	376
527286	2467	3332	378
527614	1225	2449	578
527942	690	2188	719
528270	-745	3382	629
528598	-1938	3928	552
528926	-2536	4056	666
529254	-2705	3701	603
529582	-2297	2678	407
529910	-422	2540	-516
530238	1075	1923	-811
530566	2779	1193	-743
530894	4510	953	-758
531222	5801	-187	-605
531550	6400	-750	-462
531878	5878	-94	-574
532206	4835	668	-639
532534	4177	821	-487
532862	3390	1205	-419
533190	2471	1514	-520
533518	1638	1231	-491
533846	1130	1290	-591
534174	982	1191	-602
534502	934	1244	-820
534830	1063	919	-855
535158	1104	757	-1069
535486	1545	787	-994
535814	1329	870	-1083
536142	1068	899	-1012
536470	609	905	-1022
536798	145	1106	-1075
537126	-34	880	-1083
537454	-159	615	-911
537782	-167	809	-871
538110	-150	580	-908
538438	87	269	-965
538766	337	208	-987
539094	592	181	-942
539422	858	136	-858
539750	910	174	-782
540078	696	72	-730
540406	360	60	-708
540734	160	165	-731
541062	81	125	-665
541390	283	-136	-629
541718	555	-330	-565
542046	731	-434	-596
542374	1105	-752	-624
542702	1830	-932	-562
543030	2642	-398	-693
543358	2730	-371	-699
543686	2856	-1014	-437
544014	2237	-965	-341
544342	1854	-944	-290
544670	1754	-1122	-199
544998	1453	-1145	-184
545326	801	-858	-164
545654	162	-436	-216
545982	-710	-502	-144
546310	-1470	-707	29
546638	-2208	-686	120
546966	-2545	-787	174
547294	-2589	-876	221
547622	-2713	-543	279
547950	-3011	-137	329
548278	-3700	4	462
548606	-4533	121	617
548934	-5290	139	736
549262	-5805	101	786
549590	-5989	24	793
549918	-5875	-12	750
550246	-5578	-95	736
550574	-5143	-67	640
550902	-4658	-77	512
551230	-4089	-272	380
551558	-3498	-489	323
551886	-2813	-473	225
552214	-2176	-447	147
552542	-1520	-484	80
552870	-1066	-440	7
553198	-811	-362	-80
553526	-630	-211	-150
553854	-926	-247	-204
554182	-999	-262	-269
554510	-1106	-210	-331
554838	-1164	-135	-439
555166	-1287	-95	-497
555494	-1290	-79	-543
555822	-1435	-44	-693
556150	-1417	0	-678
556478	-1345	-57	-679
556806	-1245	-119	-771
557134	-1095	-33	-685
557462	-1222	116	-641
557790	-1491	141	-613
558118	-1480	139	-596
558446	-1441	175	-537
558774	-1331	159	-504
559102	-1142	92	-515
559430	-905	14	-469
559758	-652	7	-406
560086	-325	119	-429
560414	-175	230	-350
560742	-232	247	-350
561070	-215	286	-266
561398	-309	242	-261
561726	-310	170	-215
562054	-290	118	-186
562382	-269	114	-178
562710	-194	103	-164
563038	-133	151	-192
563366	-22	98	-204
563694	39	76	-256
564022	-166	400	-326
564350	-6	428	-313
564678	355	273	-297
565006	649	77	-274
565334	710	113	-265
565662	652	204	-219
565990	459	227	-146
566318	354	272	-77
566646	228	387	-49
566974	185	419	-52
567302	213	443	-47
567630	298	519	-13
567958	469	516	-14
568286	638	472	2
568614	784	460	21
568942	840	423	16
569270	892	399	51
569598	900	487	58
569926	844	595	78
570254	741	551	114
570582	802	499	194
570910	833	536	233
571238	841	555	226
571566	896	549	224
571894	842	539	246
572222	844	669	289
572550	635	926	281
572878	453	788	352
573206	651	644	513
573534	601	753	561
573862	478	892	516
574190	601	871	495
574518	738	821	567
574846	882	742	636
575174	975	750	751
575502	992	776	702
575830	1033	800	662
576158	1480	874	560
576486	1655	809	632
576814	2326	774	611
577142	2454	1130	634
577470	2480	1048	654
577798	2369	682	843
578126	2457	757	923
578454	2513	449	1100
578782	3424	-215	963
579110	4144	-510	789
579438	5015	-282	622
579766	5870	-289	488
580094	6854	-177	477
580422	7426	-7	473
580750	7332	-5	471
581078	6867	-74	460
581406	6090	-187	407
581734	5438	-419	363
582062	5176	-577	307
582390	5136	-615	241
582718	5559	-895	232
583046	6201	-1004	220
583374	6713	-1238	185
583702	6882	-1335	157
584030	6825	-1133	165
584358	6460	-951	219
584686	5965	-1063	394
585014	5300	-1014	573
585342	4581	-1037	817
585670	3986	-1108	1024
585998	3547	-1269	1229
586326	3164	-1450	1382
586654	2710	-1365	1577
586982	2238	-1289	1817
587310	1696	-735	1952
587638	1111	-805	2086
587966	1110	-1657	2327
588294	507	-1620	2570
588622	247	-1371	2803
588950	-113	-1768	3082
589278	-267	-2272	3263
589606	-186	-2449	3534
589934	421	-2206	3661
590262	1003	-3155	3840
590590	1413	-3337	3967
590918	875	-2571	3871
591246	679	-3089	4157
591574	684	-3739	4496
591902	1408	-3774	4434
592230	3857	-5870	2967
592558	5592	-6031	2009
592886	7744	-6446	1405
593214	9743	-6347	962
593542	10876	-5998	841
593870	10712	-5304	745
594198	9433	-5023	683
594526	6931	-4791	602
594854	4309	-4140	440
595182	2584	-3694	226
595510	1894	-3034	38
595838	2444	-2600	-244
596166	3161	-2012	-718
596494	3571	-1573	-1093
596822	3905	-1124	-1364
597150	3839	-519	-1530
597478	3224	76	-1724
597806	2077	378	-1829
598134	236	1069	-1932
598462	-2064	1667	-1935
598790	-3700	1840	-1757
599118	-4474	1662	-1623
599446	-4240	961	-1579
599774	-3297	401	-1534
600102	-1987	203	-1522
600430	-585	-13	-1551
600758	217	-86	-1595
601086	348	301	-1563
601414	41	224	-1372
601742	-869	180	-1141
602070	-1606	330	-921
602398	-1991	322	-788
602726	-1927	-63	-669
603054	-1492	-538	-406
603382	-578	-943	56
603710	205	-1384	198
604038	634	-1470	370
604366	1016	-1542	548
604694	685	-1676	916
605022	-242	-1917	1256
605350	-944	-2018	1586
605678	-1616	-1815	1943
606006	-1931	-2054	2454
606334	-1801	-2063	3163
606662	-1899	-2118	3672
606990	-2323	-2369	4114
607318	-2361	-2882	4506
607646	-2785	-3225	4959
607974	-2473	-3454	5396
608302	-1512	-4272	5953
608630	-558	-4474	6511
608958	428	-4819	7125
609286	757	-5114	7687
609614	740	-5681	8240
609942	787	-6956	9110
610270	-460	-8399	9847
610598	-1334	-11580	9610
610926	1474	-12180	9035
611254	5837	-12714	8214
611582	11332	-11239	7513
611910	17109	-10491	6705
612238	25932	-11448	5799
612566	30986	-13541	5623
612894	31232	-12523	4755
613222	31227	-10422	3466
613550	29810	-7759	1984
613878	25885	-5258	-935
614206	21745	-4144	-2978
614534	17484	-3709	-4929
614862	13152	-3145	-6005
615190	8779	-3399	-7051
615518	2951	-2605	-8283
615846	-2458	-848	-9882
616174	-7603	720	-11542
616502	-11682	1680	-13381
616830	-13983	2909	-14568
617158	-13541	4237	-16516
617486	-11268	3591	-18098
617814	-7056	2923	-20177
618142	-2605	1754	-21915
618470	1452	-7	-23589
618798	6303	-1411	-25197
619126	10374	-2435	-26209
619454	13425	-2936	-27306
619782	14801	-2979	-28138
620110	15169	-3243	-28783
620438	15786	-6353	-29044
620766	14539	-9256	-28656
621094	10209	-8097	-27937
621422	5615	-6473	-26516
621750	1097	-4927	-24022
622078	-579	-3959	-21475
622406	-878	-5342	-17616
622734	-1324	-6803	-12925
623062	-1280	-2582	-5299
623390	-216	973	-2053
623718	1331	-231	916
624046	2318	-5897	4313
624374	3240	-6151	8003
624702	6429	-646	10361
625030	6694	2501	11939
625358	13528	636	12415
625686	16398	-2018	11653
626014	13520	2119	6932
626342	14395	1230	6406
626670	14210	2223	7279
626998	10524	1225	7105
627326	6922	1542	6863
627654	4704	993	5635
627982	6231	1486	4617
628310	6722	2759	4515
628638	4942	1886	4139
628966	2652	1851	3910
629294	745	1218	4012
629622	-118	1303	3645
629950	-751	1184	3728
630278	-1151	1338	3167
630606	-1423	1427	2826
630934	-511	1372	2377
631262	627	1431	2155
631590	1373	1435	1759
631918	1351	1282	1479
632246	1743	1379	1112
632574	1203	1499	1001
632902	467	1191	1085
633230	51	475	1148
633558	-567	-4	1431
633886	-405	-126	1424
634214	-393	341	1326
634542	-324	584	1204
634870	92	711	1135
635198	93	825	959
635526	-208	661	734
635854	-260	651	524
636182	-791	549	393
636510	-1493	400	370
636838	-1135	-377	285
637166	-653	-602	234
637494	22	-267	110
637822	131	-131	-320
638150	391	-24	-577
638478	634	5	-650
638806	642	-72	-781
639134	364	-255	-860
639462	-12	-398	-891
639790	-532	-699	-951
640118	-452	-775	-993
640446	-71	-808	-999
640774	-119	-804	-1129
641102	-120	-691	-1225
641430	-29	-779	-1270
641758	-262	-839	-1316
642086	-399	-934	-1423
642414	-290	-1054	-1459
642742	-642	-1185	-1531
643070	-953	-1308	-1641
643398	-822	-1381	-1754
643726	-524	-1283	-1790
644054	-716	-1290	-1953
644382	-822	-1231	-1987
644710	-745	-1194	-2006
645038	-977	-1415	-2324
645366	-1115	-1358	-2457
645694	-1235	-1384	-2772
646022	-1170	-1467	-2984
646350	-1600	-1300	-3277
646678	-1653	-1388	-3644
647006	-1728	-1617	-4056
647334	-2318	-1408	-4454
647662	-1961	-1496	-5098
647990	-2262	-1524	-5250
648318	-2362	-1565	-6092
648646	-2429	-1649	-6412
648974	-3106	-2159	-6986
649302	-4398	-2499	-7575
649630	-4684	-2598	-8141
649958	-4493	-2177	-9438
650286	-5712	-1985	-9721
650614	-5955	-1227	-10313
650942	-6785	-872	-10892
651270	-9178	-127	-10575
651598	-11453	235	-9684
651926	-12145	383	-7259
652254	-13361	-1321	-4398
652582	-10990	-3623	-265
652910	-9685	-1273	3251
653238	-8435	4160	6156
653566	-5132	6398	9758
653894	-3924	7422	11510
654222	-6815	4730	16226
654550	-11920	5428	17259
654878	-12588	5028	17176
655206	-11008	2136	17089
655534	-10548	2061	16189
655862	-10082	3507	15485
656190	-8452	4314	15649
656518	-8331	5396	15740
656846	-9044	5896	15253
657174	-10101	5641	15186
657502	-12516	5473	15114
657830	-15607	5554	14972
658158	-19096	6218	14502
658486	-20995	6605	14094
658814	-21992	6736	13787
659142	-22733	6765	13342
659470	-23140	6658	12779
659798	-23176	6751	11830
660126	-23586	6562	10970
660454	-23958	5896	10251
660782	-24192	5342	9520
661110	-24615	4917	8910
661438	-24834	3582	8054
661766	-26162	3677	6842
662094	-28192	4656	5217
662422	-28378	5716	3753
662750	-26929	6241	2657
663078	-23795	6470	2059
663406	-22018	6744	1342
663734	-20509	5014	753
664062	-19147	2745	432
664390	-18110	1333	33
664718	-19258	2715	-127
665046	-20107	5146	-604
665374	-19988	7000	-745
665702	-20876	7638	-558
666030	-21561	9091	-91
666358	-22624	10571	-597
666686	-21701	9610	-736
667014	-18141	7395	-500
667342	-13136	4008	-360
667670	-9065	3830	780
667998	2775	-7546	3619
668326	7345	-6274	5028
668654	-2520	6361	4796
668982	-14220	13085	3764
669310	-17192	10554	3357
669638	-15471	2532	2532
669966	-10113	6514	4284
670294	-5621	8808	7311
670622	-3916	3841	6218
670950	-1537	1363	5080
671278	4549	885	4691
671606	9562	1665	3768
671934	10117	2317	1929
672262	11061	1571	266
672590	12934	1493	1590
672918	10471	2278	2257
673246	5102	2067	2400
673574	-1999	771	2410
673902	-5668	2173	2192
674230	-6529	1946	2158
674558	-6556	1967	1935
674886	-6224	1955	1451
675214	-5384	1465	855
675542	-4078	941	611
675870	-2346	1058	281
676198	-942	441	358
676526	-451	135	102
676854	-320	111	61
677182	-306	129	110
677510	-724	64	254
677838	-1242	140	164
678166	-1577	-382	-36
678494	-1709	-715	-170
678822	-1356	-531	-188
679150	-454	-1161	-331
679478	235	-1780	-451
679806	1132	-1998	-452
680134	2020	-2528	-752
680462	2882	-2661	-855
680790	3039	-2772	-1123
681118	3404	-3368	-1647
681446	3126	-3263	-1896
681774	2464	-3799	-2488
682102	1678	-4307	-3066
682430	627	-4944	-3902
682758	350	-5632	-4866
683086	248	-5936	-5547
683414	350	-6091	-6064
683742	174	-5481	-6429
684070	43	-3485	-6687
684398	-934	-1781	-6521
684726	-3833	-517	-6227
685054	-8415	139	-6028
685382	-13408	1083	-5987
685710	-21507	4257	-5680
686038	-22938	5990	-5094
686366	-23000	6571	-4097
686694	-21940	6638	-3023
687022	-20804	7237	-1343
687350	-18282	6826	289
687678	-16382	5592	2586
688006	-13213	4688	4727
688334	-9728	3293	6682
688662	-6538	2240	8273
688990	-3695	2364	9386
689318	-1501	2720	9982
689646	-214	3326	10172
689974	375	3173	10405
690302	203	3290	10513
690630	-407	3569	10341
690958	-1124	2632	9699
691286	-2621	1664	8585
691614	-4382	2316	6766
691942	-4817	1694	4584
692270	-3374	610	2384
692598	-2202	-336	-203
692926	-1631	-488	-2358
693254	-1489	-145	-3982
693582	-849	-254	-3883
693910	-686	-76	-2329
694238	-594	1288	-302
694566	-1503	2371	1151
694894	-2931	2052	1566
695222	-4312	2186	1359
695550	-5410	2130	694
695878	-6572	1780	303
696206	-6950	1844	299
696534	-6068	1884	565
696862	-4567	1509	756
697190	-2794	1038	981
697518	-1335	821	1047
697846	-293	1004	951
698174	-24	976	831
698502	-261	828	899
698830	-439	961	1021
699158	-722	950	1209
699486	-1074	791	1496
699814	-1208	655	1752
700142	-1415	395	1991
700470	-1084	336	2103
700798	-474	403	2326
701126	-225	545	2556
701454	5	752	2756
701782	184	1121	3072
702110	413	1305	3276
702438	562	1470	3537
702766	630	1657	3762
703094	174	1976	3951
703422	-58	1830	4290
703750	-758	1648	3949
704078	-1628	1827	4136
704406	-1512	2092	3872
704734	-1719	2343	4101
705062	-1215	2466	4167
705390	-480	2004	4067
705718	57	1922	4514
706046	261	2644	4330
706374	743	3174	4603
706702	640	3050	4960
707030	265	2611	4913
707358	-252	2500	4925
707686	196	2576	4845
708014	290	2926	5002
708342	-32	3275	4981
708670	-317	3016	5326
708998	-384	2817	5549
709326	-1337	2812	5435
709654	-1569	2661	4885
709982	-1066	2296	5262
710310	-1693	2149	4829
710638	-1610	2618	4825
710966	-643	3358	5097
711294	-1260	4465	4928
711622	-1486	3389	4878
711950	-1217	788	4674
712278	-1601	142	4140
712606	-1773	820	4031
712934	-1647	-190	3471
713262	-219	-196	3350
713590	708	319	3276
713918	1748	-145	2944
714246	2916	-340	3068
714574	3149	-660	2999
714902	3434	-1020	2804
715230	3787	-1149	2628
715558	3626	-1382	2591
715886	3563	-1496	2720
716214	2099	-1357	2882
716542	1400	-1537	2893
716870	998	-1355	2676
717198	408	-1126	2633
717526	308	-960	2413
717854	258	-573	2345
718182	259	-641	2458
718510	499	-536	2124
718838	247	-229	2065
719166	-259	-341	1604
719494	-510	-222	1343
719822	-782	-183	1135
720150	-829	-270	1047
720478	-1380	-483	903
720806	-2226	-428	931
721134	-2796	-320	1106
721462	-3597	-124	1764
721790	-2973	183	2031
722118	-2594	356	2789
722446	-2752	851	3880
722774	-2976	1519	4692
723102	-4425	2202	5620
723430	-6078	2781	6515
723758	-7765	2570	7791
724086	-9565	2078	9011
724414	-10106	1223	10379
724742	-8793	1181	11237
725070	-7302	32	11444
725398	-5713	-658	10941
725726	-4335	-716	10293
726054	-2234	-619	9540
726382	-655	-139	8547
726710	-811	703	7241
727038	-1369	906	5748
727366	-2221	578	4429
727694	-3221	-476	3258
728022	-4439	-1352	2219
728350	-4825	-1627	1337
728678	-3553	-1826	690
729006	-1933	-1633	84
729334	-668	-1435	-550
729662	-286	-1131	-1122
729990	127	-765	-1399
730318	-85	-143	-1687
730646	-376	144	-1821
730974	-542	349	-1784
731302	-1029	569	-1775
731630	-1529	681	-1773
731958	-1881	765	-1764
732286	-1875	758	-1772
732614	-1529	689	-1904
732942	-911	708	-2133
733270	-812	690	-2135
733598	-531	536	-2051
733926	-587	445	-2055
734254	-858	449	-2015
734582	-871	355	-1811
734910	-899	293	-1607
735238	-836	195	-1494
735566	-419	126	-1488
735894	296	0	-1414
736222	1013	-136	-1485
736550	1904	-181	-1542
736878	2697	-100	-1603
737206	2992	35	-1639
737534	2962	102	-1740
737862	2713	90	-1817
738190	2283	120	-1913
738518	2085	34	-1988
738846	2032	-167	-2151
739174	2066	-298	-2302
739502	2136	-296	-2508
739830	2166	-305	-2621
740158	2241	-158	-2757
740486	2487	64	-2918
740814	2853	528	-3173
741142	2606	980	-3521
741470	2095	1709	-3811
741798	1263	2332	-3918
742126	-330	2755	-4108
742454	-1847	3513	-4267
742782	-3680	3585	-4265
743110	-5190	3695	-4494
743438	-5818	3529	-4543
743766	-5732	3496	-4610
744094	-4751	3061	-4773
744422	-3402	2918	-4891
744750	-1797	2442	-4939
745078	-538	1610	-4843
745406	877	957	-4742
745734	2948	684	-4338
746062	5385	894	-3513
746390	7606	954	-2331
746718	8386	1256	-1040
747046	7504	1737	-325
747374	3177	1460	-945
747702	423	1055	-1383
748030	-1512	554	-1653
748358	-1786	98	-1693
748686	-1446	-237	-1819
749014	-838	-172	-1651
749342	22	101	-1482
749670	963	84	-1195
749998	1715	-91	-927
750326	1954	-208	-870
750654	1633	-391	-869
750982	1579	-470	-853
751310	1622	-579	-798
751638	1514	-681	-765
751966	1304	-886	-560
752294	1166	-961	-402
752622	1295	-1193	-209
752950	1655	-1216	33
753278	1715	-1141	334
753606	1672	-1226	634
753934	1641	-1498	964
754262	1392	-1648	1168
754590	1240	-2121	1342
754918	1071	-2293	1422
755246	1350	-2480	1497
755574	1908	-2883	1658
755902	2036	-3161	1801
756230	2238	-3359	1964
756558	2497	-3792	1975
756886	3128	-3998	2021
757214	3850	-4527	1828
757542	4482	-5066	1578
757870	4400	-5770	1424
758198	4924	-6352	1398
758526	5702	-6581	1471
758854	6015	-6493	1723
759182	6061	-6493	2043
759510	5306	-6544	2503
759838	4455	-6853	2926
760166	4150	-7475	3255
760494	4182	-8255	3233
760822	4459	-8806	2961
761150	5290	-9656	2604
761478	6500	-10557	2289
761806	7589	-11188	1651
762134	8667	-11635	1094
762462	9601	-12067	414
762790	10472	-12112	-43
763118	11166	-11961	-343
763446	11235	-11495	-596
763774	10287	-10654	-865
764102	8798	-9396	-1116
764430	7764	-7900	-1280
764758	6404	-6232	-1435
765086	3477	-4007	-1634
765414	297	-2107	-1899
765742	-2991	-237	-2170
766070	-6206	965	-2421
766398	-9100	1726	-2525
766726	-10824	1819	-2604
767054	-11920	965	-2767
767382	-12119	-707	-2764
767710	-10003	-2653	-2636
768038	-4762	-4150	-2571
768366	1217	-3906	-2915
768694	5252	-2641	-2860
769022	6219	766	-3331
769350	6491	-2444	-2372
769678	4319	-368	-2039
770006	509	-1434	-1195
770334	-3906	-1351	-1029
770662	-6353	-1849	-1147
770990	-6189	-2617	-1122
771318	-5665	-3303	-1038
771646	-3832	-4247	-1534
771974	-1234	-5410	-1547
772302	1813	-6731	-1213
772630	4481	-7810	-668
772958	6761	-8835	38
773286	7995	-9378	724
773614	7928	-10038	1553
773942	7994	-10348	3180
774270	7831	-10916	4526
774598	7800	-11364	6165
774926	6870	-11434	7769
775254	5830	-13103	7809
775582	6809	-14883	7667
775910	9431	-13707	6593
776238	13650	-11935	4942
776566	16790	-10662	4110
776894	22311	-10941	4239
777222	25583	-10228	3929
777550	25839	-8391	2657
777878	27277	-7075	1372
778206	25996	-5825	-1246
778534	19839	-5603	-6801
778862	15291	-4498	-7924
779190	7998	-2721	-8389
779518	133	-1214	-9007
779846	-6882	715	-9861
780174	-13118	2455	-11192
780502	-16681	3507	-12637
780830	-17866	4056	-14470
781158	-16708	3286	-16266
781486	-13638	1971	-17951
781814	-9343	1740	-19697
782142	-3878	1121	-21230
782470	1939	-200	-22661
782798	6906	-1275	-24026
783126	11028	-1840	-24959
783454	14163	-2326	-25831
783782	14851	-2464	-26179
784110	14063	-3661	-26343
784438	11542	-5526	-25453
784766	7774	-5270	-24158
785094	4488	-5685	-22687
785422	2307	-5533	-20868
785750	1789	-3627	-18964
786078	986	-2610	-17353
786406	216	-2474	-15697
786734	-1272	-2428	-14342
787062	-3627	-1852	-13431
787390	-3519	-1598	-12017
787718	-1387	-2878	-9663
788046	-891	-4439	-7955
788374	1439	-3130	-6727
788702	1325	-2973	-4825
789030	1174	-2110	-3628
789358	951	-1813	-1351
789686	1771	-1122	943
790014	1950	-1869	2993
790342	2251	-1116	4009
790670	1493	-1008	4300
790998	1923	100	4858
791326	3703	872	5301
791654	3600	1105	4739
791982	2195	1693	4632
792310	274	2917	4675
792638	-1656	3868	4963
792966	-3590	4058	5395
793294	-5119	3539	5800
793622	-5878	3366	6194
793950	-5347	3674	6114
794278	-4805	4198	6045
794606	-3761	3915	5739
794934	-2903	3299	5267
795262	-2282	3215	5445
795590	-2242	3974	5546
795918	-2235	4805	5782
796246	-2289	5317	6159
796574	-2294	5755	6193
796902	-3835	5793	5689
797230	-4874	5207	5308
797558	-5656	5778	4852
797886	-6669	6219	4475
798214	-6982	6209	4472
798542	-7318	6706	4534
798870	-8098	7152	4624
799198	-8273	7069	4684
799526	-8198	6842	4659
799854	-7365	6437	4445
800182	-7123	5912	4009
800510	-7200	5326	3539
800838	-7759	3934	2986
801166	-8100	2961	2973
801494	-8334	797	3125
801822	-7732	-2116	4091
802150	-1857	-3570	4740
802478	6152	-2872	4753
802806	11342	-3022	2670
803134	12616	-2070	899
803462	10274	1011	787
803790	6106	3103	2192
804118	1398	2950	2947
804446	-2257	1202	3444
804774	-5658	139	3358
805102	-7381	1273	2830
805430	-5609	1298	3127
805758	-4678	1913	3630
806086	-3774	2461	3885
806414	-2744	2358	3695
806742	-1994	2179	3448
807070	-1778	1931	3076
807398	-2727	1912	2860
807726	-3338	1954	2773
808054	-3567	1787	2892
808382	-3721	1793	3278
808710	-3715	1835	3362
809038	-3763	1844	3287
809366	-3939	1572	3391
809694	-3754	1130	3520
810022	-3577	707	3651
810350	-2632	576	3718
810678	-2451	330	3704
811006	-1822	91	3701
811334	-1739	-153	3582
811662	-1555	-519	3506
811990	-1501	-668	3369
812318	-1236	-773	3259
812646	-1093	-841	3222
812974	-1219	-1051	3221
813302	-1351	-1003	3187
813630	-1558	-1063	3186
813958	-1694	-767	3162
814286	-1974	-708	3286
814614	-2302	-527	3358
814942	-2484	-571	3509
815270	-2381	-833	3701
815598	-2732	-930	3768
815926	-2802	-902	3928
816254	-2765	-1097	3980
816582	-2864	-1350	3821
816910	-3230	-1478	3714
817238	-2793	-1599	3516
817566	-2528	-1987	3289
817894	-2503	-2020	3171
818222	-2704	-2540	2990
818550	-2460	-3031	2739
818878	-2732	-3385	2494
819206	-2508	-3296	2342
819534	-2151	-3285	2127
819862	-2400	-3276	1763
820190	-2663	-3566	1476
820518	-2546	-3794	1337
820846	-2466	-4095	1215
821174	-2295	-4288	1264
821502	-1323	-4756	1525
821830	-296	-5937	1940
822158	840	-6329	2364
822486	2479	-6767	2723
822814	3858	-7650	2949
823142	4679	-8262	3143
823470	5122	-8970	3517
823798	6044	-9055	4240
824126	7008	-8746	5452
824454	7522	-8188	6740
824782	7057	-8188	7188
825110	6606	-8337	7640
825438	5204	-7735	7586
825766	3837	-6656	6759
826094	5536	-5096	5952
826422	9065	-4819	4842
826750	12005	-6193	3565
827078	13160	-6792	2095
827406	12551	-4334	-33
827734	12655	-2280	-2106
828062	13206	-2483	-4714
828390	13395	-3553	-7006
828718	12475	-4671	-8642
829046	9109	-3883	-9647
829374	4162	-3433	-10464
829702	-371	-2780	-11297
830030	-3789	-2185	-12197
830358	-5708	-2070	-12982
830686	-6712	-1834	-13971
831014	-5597	-2765	-15272
831342	-3590	-4140	-16610
831670	-1358	-4591	-17941
831998	1297	-5003	-19137
832326	3962	-5575	-20034
832654	5572	-5862	-20679
832982	6417	-5945	-21126
833310	6995	-6033	-21267
833638	6527	-5834	-21169
833966	4668	-5208	-21110
834294	2691	-3921	-20691
834622	1143	-2839	-20336
834950	483	-2470	-19950
835278	568	-2522	-20203
835606	2637	-3520	-19857
835934	4142	-4469	-19787
836262	4336	-3502	-19385
836590	2562	-636	-18750
836918	2777	-357	-18074
837246	4843	-4172	-15530
837574	3645	-1274	-13700
837902	1814	-621	-11517
838230	30	-1357	-8429
838558	-2725	336	-5855
838886	-4213	2574	-3771
839214	-3200	2309	-1558
839542	-2040	1142	482
839870	2022	-4207	3752
840198	4106	-5939	6636
840526	11226	-3807	6412
840854	20392	-1589	8237
841182	18771	923	7318
841510	14579	-303	6341
841838	8604	1258	5991
842166	6578	3068	7072
842494	2792	3025	7702
842822	-285	1118	7500
843150	-4196	3779	6095
843478	-7222	5647	4431
843806	-7082	4530	3425
844134	-4881	3728	2831
844462	-1570	3073	2916
844790	-448	2461	2809
845118	-998	2148	2642
845446	-883	1979	2411
845774	-1520	1829	2348
846102	-1156	1726	1919
846430	-598	1752	1330
846758	-257	1932	1156
847086	374	1845	856
847414	550	1596	628
847742	475	1451	363
848070	319	1486	207
848398	388	1278	170
848726	-9	1187	338
849054	-321	1056	325
849382	-787	1161	338
849710	-1191	1096	373
850038	-1464	866	313
850366	-1553	732	375
850694	-1304	748	182
851022	-846	634	90
851350	-377	586	5
851678	234	504	-35
852006	537	329	-111
852334	580	144	-150
852662	590	-18	-135
852990	498	-83	-183
853318	659	-143	-286
853646	647	-320	-375
853974	750	-396	-439
854302	926	-362	-445
854630	1144	-439	-471
854958	1236	-330	-476
855286	1393	-246	-532
855614	1428	-318	-520
855942	1169	-520	-526
856270	986	-717	-470
856598	922	-892	-407
856926	995	-1137	-381
857254	1294	-1392	-315
857582	1780	-1792	-275
857910	2781	-2410	-277
858238	3595	-2888	-358
858566	4799	-2606	-334
858894	5905	-2094	-165
859222	7078	-1843	32
859550	7821	-1480	238
859878	7231	-1264	541
860206	7093	-2691	842
860534	7171	-3827	650
860862	8626	-4617	352
861190	11093	-5561	122
861518	13303	-5257	-3
861846	15529	-4755	513
862174	17189	-4980	1088
862502	17993	-5517	1488
862830	17888	-5348	1456
863158	17542	-5429	1052
863486	17009	-5404	704
863814	16002	-4718	506
864142	14837	-3557	659
864470	13285	-2424	804
864798	11727	-1443	1189
865126	9760	-1162	1405
865454	7699	-1169	1458
865782	5881	-863	867
866110	6091	-633	808
866438	5507	-14	400
866766	5559	127	752
867094	4353	761	813
867422	3987	449	793
867750	3458	306	585
868078	3021	528	321
868406	2935	137	508
868734	3044	58	657
869062	3038	104	708
869390	3189	-141	700
869718	3371	-204	603
870046	3440	-605	496
870374	4294	-642	538
870702	4400	-988	456
871030	4326	-1114	555
871358	3633	-1172	556
871686	3207	-1343	763
872014	2799	-915	781
872342	1923	-1301	728
872670	1282	-1325	671
872998	833	-1285	612
873326	935	-1348	582
873654	1292	-1421	545
873982	1515	-1551	405
874310	1655	-1755	276
874638	1704	-1863	243
874966	1914	-2264	415
875294	2333	-2581	488
875622	2338	-2853	438
875950	2765	-3066	431
876278	3083	-3285	366
876606	3714	-3623	318
876934	3833	-3786	192
877262	3691	-3918	142
877590	3936	-4183	165
877918	4105	-4578	191
878246	4102	-4642	164
878574	4272	-4694	239
878902	4852	-4657	276
879230	4862	-4978	458
879558	4785	-5077	459
879886	4353	-5114	483
880214	4440	-5548	702
880542	4623	-6082	530
880870	6495	-7421	663
881198	8081	-7959	401
881526	9387	-7674	199
881854	10718	-7336	301
882182	11082	-7256	731
882510	10616	-7055	1216
882838	9798	-7215	1738
883166	6999	-6906	2060
883494	4442	-6830	2176
883822	2613	-6844	2079
884150	1980	-7554	1494
884478	2313	-7826	1086
884806	2991	-7895	557
885134	5082	-7914	346
885462	6361	-7676	22
885790	7375	-7439	-3
886118	7577	-6958	-177
886446	7185	-6362	-412
886774	6508	-5680	-257
887102	5492	-5113	-119
887430	3978	-4599	-217
887758	2503	-4131	-398
888086	1364	-3826	-483
888414	878	-3619	-527
888742	521	-3259	-303
889070	-85	-3369	-321
889398	-315	-3522	-347
889726	-315	-3359	-414
890054	21	-3369	-595
890382	553	-3476	-773
890710	1467	-3984	-990
891038	2086	-3757	-1155
891366	2412	-3547	-1387
891694	2328	-3775	-1624
892022	1722	-4095	-1697
892350	949	-4449	-1643
892678	-21	-4830	-1939
893006	208	-5331	-1868
893334	321	-5680	-1859
893662	697	-6638	-1813
893990	2039	-7775	-1914
894318	3479	-8782	-1652
894646	4963	-9550	-1560
894974	6785	-10244	-1551
895302	8303	-10627	-1227
895630	9402	-11022	-1138
895958	9602	-11963	-576
896286	9072	-12630	-67
896614	8379	-12880	669
896942	8268	-13117	1795
897270	8366	-13127	2047
897598	9630	-14094	1331
897926	11793	-15424	193
898254	13511	-15592	-583
898582	15675	-15784	-1362
898910	16086	-16072	-2097
899238	15659	-15683	-2320
899566	19072	-13636	-1173
899894	19824	-15806	45
900222	22034	-15276	870
900550	21738	-10960	1496
900878	21410	-7407	1018
901206	19675	-5774	-444
901534	11225	-3226	-4079
901862	6997	-3284	-5032
902190	3107	-2929	-5490
902518	-2818	-1090	-6845
902846	-9109	1961	-8149
903174	-13940	4363	-9801
903502	-16089	5726	-11353
903830	-15368	5800	-12956
904158	-12925	4962	-15024
904486	-9282	2593	-17523
904814	-6604	1030	-19155
905142	-2902	1119	-21510
905470	3409	239	-23162
905798	9616	-1214	-24589
906126	13284	-1868	-25840
906454	15978	-2103	-26894
906782	16925	-2327	-27535
907110	16895	-2781	-28305
907438	16907	-3641	-28436
907766	16131	-5230	-27671
908094	13247	-6162	-27186
908422	8576	-4223	-26645
908750	5543	-2961	-26009
909078	4782	-3771	-25072
909406	6818	-5547	-23012
909734	8625	-9151	-20447
910062	8977	-9428	-16924
910390	11228	-7780	-12751
910718	11161	-6050	-8738
911046	8134	-3042	-5458
911374	4553	-360	-2492
911702	666	-222	909
912030	-1966	-52	3916
912358	-1156	561	7005
912686	-2515	1508	8540
913014	-4837	3579	8330
913342	752	1822	9384
913670	8468	1948	11657
913998	10106	-371	10321
914326	9067	533	7995
914654	6200	2678	6042
914982	6109	2905	5982
915310	7699	919	6179
915638	7302	-521	5303
915966	6529	235	4255
916294	6590	725	4186
916622	6563	935	4504
916950	5067	1615	4520
917278	2171	1710	4044
917606	406	1393	3644
917934	383	1319	2792
918262	550	1827	2414
918590	687	1833	2231
918918	703	1728	1857
919246	1102	1571	1720
919574	1111	1320	1559
919902	1315	1053	1384
920230	1169	907	1272
920558	1063	838	1246
920886	1088	698	1235
921214	1275	669	1256
921542	1407	791	1107
921870	1653	662	923
922198	1621	689	791
922526	1531	507	707
922854	1120	187	663
923182	1003	80	596
923510	1097	131	521
923838	1005	28	387
924166	974	70	231
924494	681	133	125
924822	325	96	-11
925150	304	-2	-35
925478	24	-164	-129
925806	-200	-283	-273
926134	-192	-416	-467
926462	80	-422	-636
926790	241	-326	-843
927118	187	-328	-1073
927446	-84	-276	-1316
927774	-260	-405	-1429
928102	-411	-606	-1557
928430	-817	-713	-1774
928758	-755	-865	-2021
929086	-449	-873	-2290
929414	-737	-932	-2586
929742	-920	-1043	-2856
930070	-1073	-1168	-3079
930398	-1331	-1176	-3310
930726	-1702	-1317	-3543
931054	-1692	-1413	-3793
931382	-2038	-1349	-4139
931710	-2327	-1345	-4526
932038	-2284	-1401	-4785
932366	-3327	-1201	-5835
932694	-3858	-995	-6184
933022	-4883	-869	-6864
933350	-5880	-491	-7199
933678	-6935	156	-7933
934006	-8130	444	-8382
934334	-10107	1184	-8482
934662	-12466	1249	-8549
934990	-14406	1828	-8305
935318	-16151	1512	-7263
935646	-18999	1450	-6204
935974	-20131	1403	-4749
936302	-19357	-1226	-2775
936630	-16800	-502	-1215
936958	-13345	2208	303
937286	-9833	3374	2388
937614	-8939	5677	4239
937942	-10371	8244	5427
938270	-12382	7087	6581
938598	-14817	3515	6968
938926	-15861	654	7319
939254	-15453	-1678	6582
939582	-13127	-4195	5687
939910	-8873	-5487	5168
940238	-4426	-5803	4922
940566	-430	-6873	4734
940894	2040	-7881	4631
941222	2220	-7042	4808
941550	568	-5517	5323
941878	-1626	-4797	5599
942206	-5104	-3603	5792
942534	-8996	-2029	5569
942862	-12356	-1424	5281
943190	-14538	-1383	5052
943518	-15459	-1064	4889
943846	-16191	-1257	4635
944174	-15940	-1526	4028
944502	-14921	-1593	3511
944830	-13741	-1421	2819
945158	-12526	-1615	2080
945486	-11416	-1781	1602
945814	-10311	-1745	1078
946142	-9488	-2015	554
946470	-8966	-2433	317
946798	-8616	-2581	274
947126	-8427	-2421	82
947454	-8221	-2226	287
947782	-8046	-1773	573
948110	-7754	-1789	830
948438	-7459	-1640	1164
948766	-6544	-1413	1494
949094	-5666	-1595	1658
949422	-4899	-2035	2099
949750	-3963	-1964	2584
950078	-3369	-1306	3151
950406	-3513	-630	3737
950734	-4194	338	4304
951062	-5050	2070	5031
951390	-5131	2700	5065
951718	-5057	3023	4705
952046	-6274	4248	4221
952374	-7570	4669	4023
952702	-9072	4650	4564
953030	-10436	4401	4467
953358	-9476	4396	4529
953686	-6806	4360	4481
954014	-4811	4151	4310
954342	-2967	4000	4205
954670	-2694	4487	4452
954998	-3680	5598	4506
955326	-2728	6012	4574
955654	-903	4384	5848
955982	2282	1887	6789
956310	3945	1497	6732
956638	5405	1083	6744
956966	4606	1332	5639
957294	2688	2480	4086
957622	-915	4684	3649
957950	-4800	7339	3406
958278	-6672	8124	4192
958606	-6716	7123	5499
958934	-6661	6315	6469
959262	-7357	6495	7337
959590	-8309	5845	7299
959918	-8626	4967	7087
960246	-8070	4877	6661
960574	-6855	3802	6002
960902	-3170	1815	5904
961230	949	-498	6216
961558	4178	-1189	6357
961886	6034	-779	5923
962214	8689	-329	5100
962542	10355	573	3998
962870	4994	3169	3537
963198	1003	4532	4201
963526	-2688	4405	4556
963854	-4275	3370	4520
964182	-4720	2352	4242
964510	-4206	2144	3400
964838	-2815	2449	3162
965166	-2452	3165	3068
965494	-2204	3410	3132
965822	-1719	3225	3035
966150	-1436	2934	3035
966478	-1860	2540	2917
966806	-2599	2715	2751
967134	-3431	2920	2628
967462	-3780	3114	2745
967790	-3876	3255	2669
968118	-3907	2889	2557
968446	-3634	2257	2455
968774	-3213	1468	2264
969102	-2691	864	2028
969430	-1306	152	1830
969758	-51	-522	1693
970086	1387	-732	1716
970414	2086	-1175	1894
970742	2740	-1579	2104
971070	3132	-1542	2588
971398	2282	-1167	2892
971726	1829	-1014	3344
972054	576	-815	3510
972382	-756	-406	3577
972710	-1448	-68	3645
973038	-1995	585	3539
973366	-2388	1454	3577
973694	-3218	2153	3622
974022	-4160	2798	3659
974350	-5406	2900	3825
974678	-6550	3408	3925
975006	-7903	3776	4171
975334	-8675	4599	4602
975662	-9772	5753	4906
975990	-11326	7326	5207
976318	-13081	9005	5844
976646	-15534	10768	6156
976974	-18549	11913	6823
977302	-20940	13083	7654
977630	-23029	13543	8077
977958	-24767	13580	7901
978286	-26069	13154	7105
978614	-26430	12448	6120
978942	-25031	11612	5225
979270	-23167	10896	4033
979598	-20954	9663	3019
979926	-18996	8515	2516
980254	-16958	7273	2308
980582	-14241	5323	2208
980910	-12208	4045	1480
981238	-10265	2896	598
981566	-8298	1490	-270
981894	-6113	389	-875
982222	-3264	-470	-1632
982550	-553	-974	-2765
982878	1302	-988	-3421
983206	1673	-938	-3520
983534	1251	-879	-3328
983862	642	-927	-2937
984190	-1121	-778	-2591
984518	-3041	-220	-2310
984846	-4056	-87	-1906
985174	-4464	214	-1583
985502	-4624	502	-1467
985830	-4808	699	-1396
986158	-4256	846	-1266
986486	-3952	411	-1401
986814	-3510	193	-1397
987142	-3443	357	-1434
987470	-2926	171	-1336
987798	-2492	-250	-1319
988126	-1972	-512	-1314
988454	-758	-448	-1278
988782	575	-783	-1250
989110	1412	-773	-1334
989438	2127	-718	-1281
989766	2808	-726	-1183
990094	2926	-851	-1092
990422	2766	-934	-941
990750	2740	-1224	-813
991078	2219	-1306	-582
991406	1507	-940	-437
991734	1049	-705	-285
992062	916	-499	-108
992390	1036	-371	-1
992718	1689	-312	23
993046	2260	-203	86
993374	2685	-129	201
993702	3771	-738	427
994030	5084	-1399	403
994358	6685	-2171	205
994686	8062	-2820	-102
995014	9092	-3417	-433
995342	10313	-4265	-883
995670	11550	-5049	-1374
995998	12532	-5021	-1884
996326	13584	-4724	-2367
996654	14264	-4340	-2856
996982	14136	-3269	-3482
997310	13595	-2307	-4032
997638	12100	-881	-4453
997966	9584	-567	-4196
998294	4418	533	-3076
998622	-2780	3379	-2319
998950	-3447	2978	-1078
999278	-3210	1895	-1443
999606	-1674	1333	298
999934	-2339	3984	-717
1000262	-572	3403	-2272
1000590	1677	2910	-2382
1000918	2993	2736	-2236
1001246	4028	2110	-1849
1001574	4415	1557	-1602
1001902	3365	894	-1664
1002230	2595	667	-1680
1002558	2352	942	-1388
1002886	2571	1204	-1116
1003214	2295	1117	-965
1003542	1835	935	-954
1003870	1493	577	-895
1004198	1529	204	-855
1004526	1868	-20	-788
1004854	1821	-135	-697
1005182	2221	-392	-542
1005510	2580	-657	-391
1005838	2330	-1007	-301
1006166	1996	-1378	-199
1006494	1623	-1480	-239
1006822	1846	-1664	-254
1007150	2212	-1640	-349
1007478	2444	-1533	-341
1007806	2649	-1432	-149
1008134	2450	-1611	-35
1008462	2204	-1847	226
1008790	1583	-1882	380
1009118	1106	-1856	529
1009446	1187	-1912	456
1009774	1490	-2187	415
1010102	1746	-2037	365
1010430	1861	-1965	398
1010758	1833	-1886	414
1011086	1611	-1956	466
1011414	1220	-1994	641
1011742	686	-2165	710
1012070	142	-1998	734
1012398	-90	-2070	712
1012726	54	-2252	741
1013054	98	-2212	828
1013382	-436	-1935	966
1013710	-708	-1924	1184
1014038	-1393	-2217	1319
1014366	-1971	-2308	1288
1014694	-1956	-2745	1335
1015022	-2353	-2948	1136
1015350	-2295	-3020	772
1015678	-1277	-3362	642
1016006	-536	-3533	409
1016334	-88	-4050	199
1016662	-363	-4308	-95
1016990	9	-4936	-316
1017318	364	-5836	-588
1017646	988	-6505	-930
1017974	1512	-6933	-1465
1018302	1747	-7693	-1643
1018630	1318	-8504	-2006
1018958	1496	-9225	-2490
1019286	1912	-10280	-2985
1019614	3031	-11043	-3203
1019942	3674	-11450	-3609
1020270	4257	-11672	-3735
1020598	4834	-11863	-3427
1020926	5867	-12126	-2751
1021254	6687	-12221	-2045
1021582	7361	-11963	-1221
1021910	7567	-11670	-573
1022238	7116	-11385	9
1022566	6658	-12026	560
1022894	6387	-12625	1223
1023222	7655	-13736	1639
1023550	8401	-14457	2502
1023878	8183	-14576	3064
1024206	8602	-14397	2716
1024534	10890	-14105	2404
1024862	14330	-10794	3246
1025190	19241	-9666	4614
1025518	22619	-6958	4200
1025846	26661	-3186	3278
1026174	28511	-1234	1501
1026502	25728	-298	-267
1026830	21415	862	-2053
1027158	13857	2805	-3170
1027486	4900	5320	-3317
1027814	-2468	7171	-4048
1028142	-7897	8353	-4500
1028470	-10426	8230	-4823
1028798	-11363	7979	-5781
1029126	-10364	7002	-7737
1029454	-7490	5474	-9864
1029782	-3418	3741	-12122
1030110	715	2326	-14146
1030438	4777	1523	-16078
1030766	9402	892	-17731
1031094	13716	-496	-19028
1031422	16481	-2503	-20217
1031750	17885	-4618	-21347
1032078	17297	-6156	-21807
1032406	15177	-6483	-22269
1032734	11693	-6143	-22401
1033062	7810	-5475	-22312
1033390	4950	-4888	-22191
1033718	1665	-4640	-21777
1034046	-26	-4508	-21867
1034374	-1014	-4962	-22125
1034702	-583	-5144	-22745
1035030	1830	-5514	-23057
1035358	3931	-7268	-22620
1035686	5966	-7969	-21778
1036014	8480	-7409	-20152
1036342	11314	-6298	-18416
1036670	13406	-5798	-15322
1036998	12329	-5366	-12819
1037326	6967	-4337	-10254
1037654	2503	-3192	-7709
1037982	1524	-3493	-4006
1038310	1613	-4085	-1120
1038638	1085	-3883	893
1038966	1287	-2492	2518
1039294	1314	-2339	3500
1039622	2420	-1957	4273
1039950	3317	-1100	4251
1040278	4169	-882	3965
1040606	5782	-624	3673
1040934	6285	-858	3326
1041262	6131	-1209	2973
1041590	5315	-194	2867
1041918	3309	1400	3263
1042246	555	2493	4244
1042574	-62	3838	5585
1042902	-564	4893	7116
1043230	-1396	4950	7498
1043558	-1886	5696	7289
1043886	-2471	6634	6472
1044214	-3462	6267	5809
1044542	-3735	5002	5148
1044870	-2939	3478	5859
1045198	-1122	2273	6418
1045526	127	1643	7024
1045854	813	1915	6805
1046182	508	2949	6552
1046510	-824	3596	6061
1046838	-1622	4147	5840
1047166	-2446	4475	5580
1047494	-3022	4738	5429
1047822	-3542	5251	5289
1048150	-3983	5522	5233
1048478	-4236	5365	5290
1048806	-4487	4468	5259
1049134	-3566	2820	5230
1049462	-2363	1077	5546
1049790	942	832	5734
1050118	4092	168	5028
1050446	6836	17	3674
1050774	6836	613	2571
1051102	5545	2409	2322
1051430	3441	3750	2728
1051758	1254	3661	2727
1052086	-725	2804	2559
1052414	-2045	2145	2465
1052742	-2442	1807	2350
1053070	-2346	1848	2167
1053398	-2106	2101	2068
1053726	-2360	2206	1892
1054054	-2044	2658	1947
1054382	-1962	3142	1879
1054710	-1936	3263	1848
1055038	-3057	3641	1941
1055366	-3437	3616	2141
1055694	-3629	3346	2202
1056022	-3592	3215	2360
1056350	-3627	3502	2638
1056678	-3253	2914	2877
1057006	-3097	2598	2957
1057334	-2771	2217	2939
1057662	-2115	2020	2967
1057990	-1827	1673	3110
1058318	-1687	1385	3379
1058646	-1303	1267	3651
1058974	-1663	996	3750
1059302	-1627	1135	3852
1059630	-1471	1335	3997
1059958	-1612	1487	4162
1060286	-2303	1733	4304
1060614	-2596	1924	4291
1060942	-3130	2323	4140
1061270	-3706	2816	4039
1061598	-5343	3646	4270
1061926	-7602	4594	4415
1062254	-9806	5341	4467
1062582	-11811	5580	4473
1062910	-12230	5718	4890
1063238	-12427	5500	5291
1063566	-12222	4994	5788
1063894	-10909	4663	6372
1064222	-9081	3954	6894
1064550	-7987	3103	7169
1064878	-7098	1695	7258
1065206	-6212	498	7285
1065534	-4917	-1310	7217
1065862	-3813	-2704	6905
1066190	-2218	-4265	6911
1066518	-709	-5219	6758
1066846	844	-5600	6843
1067174	1453	-5678	6939
1067502	1740	-5891	7182
1067830	1767	-5696	7537
1068158	1466	-6048	7938
1068486	1305	-6816	8386
1068814	2018	-7666	8722
1069142	1241	-7374	8977
1069470	1822	-7164	9265
1069798	3002	-6875	9688
1070126	3439	-6639	9550
1070454	2617	-5303	8202
1070782	2943	-3639	6560
1071110	4088	-3570	4797
1071438	6734	-5401	3884
1071766	10332	-6489	2555
1072094	10658	-5373	1180
1072422	9958	-2945	-694
1072750	9266	-1410	-3435
1073078	6599	-2205	-5822
1073406	4291	-3437	-7370
1073734	1647	-2917	-8331
1074062	-1202	-2587	-9238
1074390	-4255	-2198	-10328
1074718	-6094	-2414	-11775
1075046	-6541	-3129	-12957
1075374	-5993	-4246	-14528
1075702	-4182	-5381	-16053
1076030	-2475	-6835	-17803
1076358	168	-7420	-19228
1076686	2690	-8018	-20275
1077014	5274	-8818	-21328
1077342	7327	-9324	-22043
1077670	7887	-9647	-22457
1077998	7705	-9857	-22789
1078326	7620	-10110	-22852
1078654	6479	-10294	-22644
1078982	3425	-10006	-22709
1079310	403	-8275	-22506
1079638	-628	-6817	-22303
1079966	132	-6736	-22296
1080294	3187	-7244	-22671
1080622	8093	-7669	-22763
1080950	14591	-9312	-21906
1081278	19769	-10251	-19951
1081606	22880	-9588	-18136
1081934	23656	-9447	-16242
1082262	22903	-9354	-13359
1082590	19724	-6867	-10269
1082918	13425	-2865	-7363
1083246	6592	-718	-4914
1083574	609	-510	-2684
1083902	-1941	-878	-197
1084230	-956	-2940	2089
1084558	1001	-2896	4177
1084886	4147	-2264	6221
1085214	7435	795	8144
1085542	7223	3202	8370
1085870	8503	3578	9793
1086198	12772	1352	11059
1086526	11548	5287	10913
1086854	6575	7830	9335
1087182	2751	5724	8328
1087510	1126	4318	8936
1087838	-1822	4694	9032
1088166	-1422	2450	9594
1088494	101	-724	9473
1088822	2810	-1633	7914
1089150	5084	593	7217
1089478	7641	1185	7075
1089806	6600	823	6439
1090134	5426	584	5542
1090462	5684	720	4720
1090790	3926	1369	4844
1091118	2467	1590	3912
1091446	1758	1911	3652
1091774	870	1763	3613
1092102	-244	1034	3151
1092430	221	1133	2783
1092758	52	655	2587
1093086	137	176	2380
1093414	630	-519	2163
1093742	1659	-1255	1835
1094070	2102	-1548	1039
1094398	2857	-1929	612
1094726	3331	-2328	239
1095054	3620	-2487	-185
1095382	3560	-2526	-591
1095710	3449	-2638	-804
1096038	3121	-2615	-938
1096366	2626	-2505	-1131
1096694	2224	-2526	-1315
1097022	1723	-2597	-1458
1097350	1324	-2510	-1527
1097678	993	-2435	-1603
1098006	1543	-2266	-1545
1098334	1775	-2099	-1681
1098662	1740	-1763	-1777
1098990	1843	-1556	-1785
1099318	1480	-1235	-1788
1099646	1033	-797	-1670
1099974	572	-335	-1433
1100302	-39	76	-1145
1100630	-897	575	-1020
1100958	-1622	919	-806
1101286	-1714	808	-521
1101614	-1682	657	-198
1101942	-1359	507	18
1102270	-671	494	114
1102598	-43	515	71
1102926	414	635	54
1103254	725	668	31
1103582	756	691	206
1103910	293	647	410
1104238	-283	534	615
1104566	-461	563	756
1104894	-465	567	777
1105222	-295	615	747
1105550	-136	617	694
1105878	33	548	624
1106206	94	395	625
1106534	130	353	546
1106862	73	203	468
1107190	217	-42	364
1107518	537	-124	273
1107846	866	-262	126
1108174	1126	-407	18
1108502	1242	-484	13
1108830	973	-613	-47
1109158	962	-753	-41
1109486	880	-764	-110
1109814	530	-814	-167
1110142	628	-863	-265
1110470	983	-929	-399
1110798	1202	-1064	-557
1111126	1265	-1122	-716
1111454	1389	-1071	-823
1111782	1519	-1072	-926
1112110	1691	-1183	-1037
1112438	1599	-1105	-1228
1112766	1820	-1189	-1388
1113094	2041	-1305	-1546
1113422	2094	-1297	-1796
1113750	2454	-1374	-2002
1114078	2825	-1541	-2363
1114406	3177	-1516	-2384
1114734	3386	-1628	-2459
1115062	3598	-1867	-2609
1115390	3814	-2033	-2696
1115718	3918	-2260	-2809
1116046	4035	-2104	-2938
1116374	4301	-2284	-3027
1116702	4809	-2597	-3196
1117030	5199	-3029	-3277
1117358	5714	-3259	-3364
1117686	5994	-3579	-3446
1118014	6454	-3909	-3556
1118342	9411	-5025	-3706
1118670	12871	-6322	-4258
1118998	16292	-6750	-5001
1119326	18668	-6642	-5385
1119654	19975	-6452	-5197
1119982	20088	-6312	-4615
1120310	19107	-6037	-4298
1120638	17762	-5469	-3911
1120966	15381	-4875	-3629
1121294	13252	-3094	-3109
1121622	10750	-1680	-2143
1121950	7824	-548	-1227
1122278	2918	1175	-659
1122606	-1154	2171	44
1122934	-4972	3114	623
1123262	-7430	3608	745
1123590	-8371	4011	961
1123918	-8371	3775	1003
1124246	-7884	3619	804
1124574	-6628	3386	814
1124902	-4891	2846	603
1125230	-2907	2251	660
1125558	-1299	1987	683
1125886	723	1334	648
1126214	2038	780	573
1126542	2418	152	446
1126870	2393	-612	378
1127198	2258	-754	434
1127526	1931	-803	409
1127854	1357	-817	421
1128182	448	-992	545
1128510	-325	-1145	668
1128838	-763	-1371	725
1129166	-944	-1502	648
1129494	-688	-1233	619
1129822	-123	-1123	424
1130150	323	-1175	280
1130478	275	-1067	222
1130806	227	-1112	297
1131134	4	-1237	352
1131462	37	-1476	386
1131790	-166	-1662	356
1132118	-150	-1476	257
1132446	-342	-1568	347
1132774	-340	-1784	348
1133102	-173	-2147	435
1133430	-612	-2333	454
1133758	-377	-2651	558
1134086	-169	-3100	509
1134414	61	-3214	370
1134742	507	-3287	466
1135070	547	-3533	649
1135398	784	-3657	814
1135726	954	-3612	942
1136054	633	-3551	1034
1136382	61	-3626	1142
1136710	-995	-3449	1274
1137038	-1338	-3495	1256
1137366	-1363	-3391	1192
1137694	-1380	-3476	1308
1138022	-1379	-3321	1311
1138350	-901	-3321	1276
1138678	-543	-3612	1231
1139006	-113	-3477	1135
1139334	-163	-3322	1051
1139662	189	-3072	1075
1139990	147	-3124	1073
1140318	-216	-3030	970
1140646	-1056	-2796	705
1140974	-1442	-2356	731
1141302	-1371	-2144	751
1141630	-1311	-1919	774
1141958	-1726	-1575	469
1142286	-1975	-1492	383
1142614	-2117	-1432	400
1142942	-2329	-1558	411
1143270	-2535	-1322	257
1143598	-1985	-1425	63
1143926	-1435	-1537	-135
1144254	-1013	-1501	-285
1144582	-703	-1265	-481
1144910	-357	-1103	-650
1145238	-458	-1073	-667
1145566	-377	-919	-847
1145894	-812	-677	-915
1146222	-865	-852	-838
1146550	-1232	-1109	-799
1146878	-1472	-1145	-972
1147206	-1209	-1273	-1079
1147534	-496	-1625	-1003
1147862	94	-1977	-1113
1148190	633	-2073	-1172
1148518	833	-2214	-1150
1148846	1126	-2185	-1255
1149174	1267	-2183	-1262
1149502	1465	-2359	-1267
1149830	1553	-2101	-1272
1150158	1426	-1796	-1304
1150486	1101	-1728	-1237
1150814	834	-1576	-1107
1151142	793	-1742	-1134
1151470	1370	-1765	-1189
1151798	1385	-1559	-1043
1152126	1282	-1326	-1050
1152454	1369	-1373	-1130
1152782	1453	-1259	-1073
1153110	1227	-1099	-1065
1153438	1040	-842	-998
1153766	552	-817	-1019
1154094	765	-1067	-895
1154422	-397	-1004	-786
1154750	-1594	-508	-785
1155078	-1832	-416	-775
1155406	-1605	-492	-889
1155734	-1509	-90	-1124
1156062	-1123	201	-1210
1156390	-636	-18	-1171
1156718	-772	-14	-1242
1157046	-760	10	-1294
1157374	-996	166	-1273
1157702	-1197	292	-1366
1158030	-1396	277	-1469
1158358	-1683	283	-1551
1158686	-1716	135	-1620
1159014	-1702	-183	-1714
1159342	-1679	-298	-1809
1159670	-1396	-642	-1836
1159998	-1160	-1163	-1865
1160326	-1054	-1787	-2082
1160654	-402	-2236	-2131
1160982	93	-2408	-2309
1161310	60	-2915	-2275
1161638	554	-3329	-2244
1161966	620	-4097	-2434
1162294	1265	-4668	-2539
1162622	1601	-5334	-2543
1162950	2114	-6302	-2489
1163278	2875	-6920	-2276
1163606	3642	-7758	-2107
1163934	4422	-8289	-1652
1164262	5045	-8180	-1507
1164590	5217	-8119	-1555
1164918	5157	-8233	-1683
1165246	5096	-8730	-1770
1165574	3616	-9915	-1949
1165902	3251	-8790	-2439
1166230	3948	-9512	-3241
1166558	4935	-9519	-3981
1166886	5789	-8248	-4301
1167214	8133	-7763	-3208
1167542	10906	-7104	-1131
1167870	14490	-6125	1068
1168198	17934	-5144	2396
1168526	19954	-4526	2036
1168854	20076	-4340	1055
1169182	20104	-3217	97
1169510	18453	-1642	103
1169838	15300	-304	181
1170166	12342	52	330
1170494	9003	96	-21
1170822	6282	472	-782
1171150	5155	381	-1587
1171478	5623	-905	-2602
1171806	7047	-1725	-3864
1172134	9837	-3331	-5802
1172462	12067	-4543	-7537
1172790	13791	-5540	-9606
1173118	15465	-6274	-11529
1173446	16183	-6377	-13280
1173774	16166	-6368	-14700
1174102	16006	-6434	-15682
1174430	16179	-6936	-16367
1174758	15723	-7388	-16742
1175086	15175	-7821	-16946
1175414	14364	-8260	-17228
1175742	13136	-8450	-17376
1176070	11018	-7355	-17706
1176398	11720	-7600	-17841
1176726	12566	-7769	-17916
1177054	13027	-7509	-17856
1177382	13714	-7547	-17626
1177710	13705	-7528	-17164
1178038	12101	-6491	-16944
1178366	10039	-5450	-16872
1178694	8304	-4448	-16543
1179022	6927	-2975	-16289
1179350	5926	-2042	-16067
1179678	6543	-2215	-15501
1180006	7263	-3028	-14913
1180334	7452	-3455	-14379
1180662	7586	-3370	-13918
1180990	7619	-3840	-13088
1181318	7331	-4518	-12441
1181646	6516	-4246	-11571
1181974	5135	-3419	-10296
1182302	2605	-2521	-9268
1182630	198	-851	-7830
1182958	-720	519	-6326
1183286	-457	474	-5419
1183614	1199	-1605	-4100
1183942	4102	-2866	-2801
1184270	7057	-3211	-1751
1184598	8813	-3696	-744
1184926	10656	-4376	118
1185254	11822	-4797	1079
1185582	11746	-3480	1736
1185910	10717	-2558	2370
1186238	9267	-2269	3304
1186566	9002	-1537	4439
1186894	8567	-1514	5561
1187222	5963	-1404	6091
1187550	823	893	8393
1187878	2446	3873	9277
1188206	2326	3803	9880
1188534	3312	-586	8526
1188862	1344	2322	7184
1189190	-3447	5432	4913
1189518	-4610	5331	3383
1189846	-1401	2415	4456
1190174	2742	-2368	4919
1190502	7273	-3620	4583
1190830	7937	-3052	3661
1191158	9717	-946	3522
1191486	11147	-1672	3972
1191814	9784	-2547	3974
1192142	7619	-1654	3733
1192470	6188	-1004	3374
1192798	5350	-1097	2977
1193126	4161	-863	2556
1193454	3465	-1214	2183
1193782	3632	-1778	1971
1194110	4432	-1942	1818
1194438	4812	-1867	1671
1194766	4594	-1457	1442
1195094	4547	-1226	1307
1195422	4023	-1071	1395
1195750	3353	-888	1321
1196078	2305	-367	1439
1196406	1773	368	1668
1196734	1543	1059	1624
1197062	1209	1672	1518
1197390	863	1981	1191
1197718	376	1945	1059
1198046	251	1508	927
1198374	608	1045	848
1198702	871	637	564
1199030	1761	783	493
1199358	1696	717	228
1199686	1721	524	311
1200014	1273	503	312
1200342	1197	409	317
1200670	879	474	168
1200998	560	576	95
1201326	365	475	17
1201654	301	382	-3
1201982	248	220	-153
1202310	273	142	-217
1202638	320	186	-286
1202966	781	-57	-363
1203294	947	-100	-552
1203622	1228	-264	-591
1203950	1243	-320	-672
1204278	1101	-392	-665
1204606	928	-465	-747
1204934	649	-564	-849
1205262	484	-577	-983
1205590	551	-752	-1189
1205918	529	-1004	-1337
1206246	1023	-1050	-1448
1206574	900	-1257	-1563
1206902	808	-1300	-1632
1207230	765	-1223	-1644
1207558	541	-1272	-1757
1207886	97	-1272	-1888
1208214	-331	-1140	-1937
1208542	-620	-1090	-2073
1208870	-641	-1267	-2306
1209198	-1010	-1524	-2653
1209526	-937	-1166	-2886
1209854	-563	-1131	-3101
1210182	-402	-1260	-3392
1210510	-457	-1165	-3645
1210838	-393	-899	-3896
1211166	-293	-772	-4284
1211494	-264	-897	-4663
1211822	-391	-800	-4945
1212150	-706	-917	-5211
1212478	-834	-1204	-5838
1212806	-1743	-1124	-5981
1213134	-2140	-1030	-6178
1213462	-2355	-1550	-6205
1213790	-2724	-1985	-6382
1214118	-3568	-1987	-5825
1214446	-4493	-1750	-5519
1214774	-6047	-1013	-5125
1215102	-8115	3	-5482
1215430	-10405	1137	-5699
1215758	-12749	2099	-5982
1216086	-14855	1747	-6127
1216414	-16368	759	-6070
1216742	-16817	-233	-5591
1217070	-17725	180	-4401
1217398	-19867	2974	-2638
1217726	-22066	4648	-412
1218054	-23806	5004	2128
1218382	-23973	4208	4992
1218710	-21302	3354	7208
1219038	-17108	1528	8684
1219366	-12331	-253	9565
1219694	-7444	-2126	10192
1220022	-2954	-3005	10746
1220350	364	-2984	11094
1220678	2156	-2884	11307
1221006	2985	-2649	11497
1221334	2517	-2562	11773
1221662	1108	-2225	11654
1221990	-997	-2140	11343
1222318	-3210	-1824	10939
1222646	-5533	-1360	10309
1222974	-7299	-1201	9517
1223302	-8763	-965	8518
1223630	-9891	-534	7475
1223958	-10439	-613	6325
1224286	-10638	-706	5154
1224614	-10698	-396	4155
1224942	-10932	-427	3054
1225270	-10820	-407	2272
1225598	-10395	-280	1449
1225926	-9951	-486	601
1226254	-9703	-223	14
1226582	-9806	452	-525
1226910	-9767	736	-941
1227238	-9800	727	-1297
1227566	-9678	568	-1608
1227894	-9640	-128	-1758
1228222	-9776	-136	-1662
1228550	-9779	-275	-1637
1228878	-9947	-707	-1530
1229206	-9508	-407	-1350
1229534	-8538	-344	-1332
1229862	-7979	-1036	-1139
1230190	-7256	-1885	-1118
1230518	-6708	-3218	-874
1230846	-6633	-2752	-780
1231174	-5642	-1998	-689
1231502	-5069	-2152	-602
1231830	-3865	-2170	-405
1232158	-2141	-2287	-18
1232486	-618	-2066	313
1232814	1181	-2503	652
1233142	2301	-3139	1085
1233470	2272	-3221	1265
1233798	1471	-2608	1517
1234126	387	-1634	2141
1234454	-1278	-877	2117
1234782	-1979	-562	2377
1235110	-2414	-121	2542
1235438	-2816	474	2626
1235766	-2576	586	2816
1236094	-2272	-131	3127
1236422	-86	-1186	3877
1236750	2298	-1481	6269
1237078	2166	2324	6305
1237406	617	3053	5523
1237734	-882	-86	6749
1238062	-6023	1612	5096
1238390	-7281	5932	3147
1238718	-5565	3838	3582
1239046	-2822	4789	4655
1239374	-1818	5218	5412
1239702	-2735	6143	4986
1240030	-4115	7984	4557
1240358	-4683	7187	4229
1240686	-4392	5239	4182
1241014	-2571	3605	3647
1241342	-535	2812	3038
1241670	1455	2006	2536
1241998	2703	1882	2252
1242326	3407	1473	2772
1242654	3696	990	3497
1242982	3076	1103	3948
1243310	2674	1158	3756
1243638	2135	1416	3349
1243966	759	2110	2829
1244294	-473	2852	2629
1244622	-1244	3112	2634
1244950	-1462	2855	2434
1245278	-1209	2469	2143
1245606	-616	2293	1901
1245934	106	1898	1806
1246262	592	1343	1883
1246590	791	1201	2078
1246918	753	1460	2081
1247246	401	1236	2078
1247574	80	1380	2005
1247902	-225	1877	1848
1248230	-421	2101	1778
1248558	-785	2159	1717
1248886	-875	2602	1749
1249214	-689	2632	1559
1249542	-685	2489	1661
1249870	-989	2457	1846
1250198	-1036	2387	2013
1250526	-1136	2215	2137
1250854	-1283	2161	2212
1251182	-1395	2451	2128
1251510	-1819	2863	2240
1251838	-2277	3467	2236
1252166	-2767	3952	2223
1252494	-2955	4160	2377
1252822	-3274	4124	2544
1253150	-3310	3711	2744
1253478	-3028	3442	2906
1253806	-2211	3044	3107
1254134	-1331	2443	2980
1254462	-355	2426	2995
1254790	-401	2144	3062
1255118	-96	1523	3410
1255446	733	980	3843
1255774	1752	798	3980
1256102	2734	949	3689
1256430	3308	1479	3392
1256758	3213	2244	3297
1257086	2555	2777	3545
1257414	2657	2792	4029
1257742	2713	2497	4106
1258070	3923	2190	3977
1258398	4617	1801	3666
1258726	4365	1847	3364
1259054	4551	2571	3476
1259382	5206	2379	3485
1259710	5639	1740	3224
1260038	5938	1475	2806
1260366	5521	1472	2681
1260694	4771	1680	2696
1261022	3941	1504	2688
1261350	2845	1373	2460
1261678	2421	1166	2223
1262006	2223	774	1899
1262334	2099	900	1591
1262662	1769	1177	1335
1262990	1858	1398	1151
1263318	1793	1504	989
1263646	1769	1728	767
1263974	1911	1820	750
1264302	1852	2016	786
1264630	2140	2199	585
1264958	2243	2267	554
1265286	1735	2518	506
1265614	1076	2837	589
1265942	871	2976	472
1266270	528	3285	627
1266598	-67	3282	826
1266926	-955	3317	1142
1267254	-2678	4075	1508
1267582	-3893	4497	1541
1267910	-4617	4970	1855
1268238	-5046	5380	2089
1268566	-5639	5923	2055
1268894	-6108	6379	2022
1269222	-6569	6508	2034
1269550	-6580	6542	2203
1269878	-6681	6349	2163
1270206	-6811	6519	2010
1270534	-6083	7650	1806
1270862	-8472	10386	1270
1271190	-9382	11599	1448
1271518	-12582	12851	1142
1271846	-16502	13595	1201
1272174	-19145	14084	1050
1272502	-20187	14740	1153
1272830	-20522	15299	1112
1273158	-20205	15626	988
1273486	-19720	15763	791
1273814	-19573	15871	549
1274142	-20082	15761	214
1274470	-20565	15364	-1
1274798	-21268	15039	-4
1275126	-21588	14515	220
1275454	-22076	13525	591
1275782	-22489	11963	1288
1276110	-21352	9603	2160
1276438	-19058	7529	2990
1276766	-15324	6970	3746
1277094	-12304	6691	3472
1277422	-10905	6445	2596
1277750	-11034	5703	1958
1278078	-11470	5152	1880
1278406	-11824	4280	2175
1278734	-12499	3604	2159
1279062	-12824	2782	2186
1279390	-11869	2556	2169
1279718	-10325	2383	2076
1280046	-9210	2403	1760
1280374	-8830	2485	1289
1280702	-8961	2345	1069
1281030	-9193	2032	940
1281358	-9026	1595	768
1281686	-9132	1124	357
1282014	-8850	898	-85
1282342	-8314	675	-465
1282670	-7684	113	-953
1282998	-7034	-26	-1273
1283326	-6884	-121	-1562
1283654	-6599	-483	-1927
1283982	-6459	-661	-2244
1284310	-6386	-811	-2305
1284638	-6947	-810	-2384
1284966	-7650	-691	-2327
1285294	-8303	-677	-2143
1285622	-8677	-548	-2012
1285950	-9048	-238	-2024
1286278	-8148	-186	-2247
1286606	-6210	-469	-2589
1286934	-4280	-500	-3149
1287262	-3052	120	-3515
1287590	-2453	538	-3676
1287918	-2121	429	-3693
1288246	-2264	332	-3566
1288574	-2578	304	-3272
1288902	-3108	268	-3134
1289230	-3536	-30	-2862
1289558	-3875	-200	-2528
1289886	-3855	-286	-2313
1290214	-3881	-87	-1921
1290542	-3673	-96	-1833
1290870	-3495	-1	-1635
1291198	-3071	220	-1576
1291526	-2585	346	-1469
1291854	-2067	92	-1458
1292182	-1337	-286	-1425
1292510	-903	-713	-1381
1292838	-776	-935	-1303
1293166	-686	-913	-1209
1293494	-837	-1016	-1091
1293822	-809	-1071	-1008
1294150	-641	-1061	-821
1294478	-459	-1019	-758
1294806	138	-1000	-668
1295134	533	-1078	-777
1295462	893	-996	-713
1295790	964	-972	-709
1296118	1048	-943	-687
1296446	812	-795	-664
1296774	436	-718	-547
1297102	201	-611	-474
1297430	-445	-561	-619
1297758	-781	-199	-456
1298086	-748	-175	-447
1298414	-1167	-36	-563
1298742	-1230	294	-535
1299070	-1166	382	-537
1299398	-976	324	-488
1299726	-597	335	-380
1300054	-449	313	-365
1300382	-322	409	-260
1300710	-221	520	-143
1301038	-257	630	-26
1301366	-556	521	144
1301694	-675	502	388
1302022	-712	471	640
1302350	-804	411	818
1302678	-454	439	1075
1303006	-48	269	1348
1303334	191	170	1564
1303662	310	60	1897
1303990	608	-200	2274
1304318	335	-43	2547
1304646	-64	333	2837
1304974	-618	703	3094
1305302	-1438	899	3249
1305630	-2276	1348	3491
1305958	-3191	1939	3720
1306286	-3775	1870	3906
1306614	-3800	1525	3988
1306942	-3911	1250	3903
1307270	-3910	1204	3816
1307598	-3400	1339	3754
1307926	-1855	862	3717
1308254	107	464	3588
1308582	1392	602	3347
1308910	2246	840	3356
1309238	2602	934	3582
1309566	2112	1272	3512
1309894	2293	1358	3626
1310222	2657	911	3674
1310550	3546	445	3534
1310878	4704	187	3515
1311206	4640	482	3337
1311534	5160	568	3348
1311862	5899	-31	3255
1312190	5292	-147	3380
1312518	4705	62	3146
1312846	5000	-400	2969
1313174	5269	-804	2700
1313502	6092	-820	2321
1313830	6527	-713	2087
1314158	6672	-221	1680
1314486	6766	212	1064
1314814	7609	-45	231
1315142	8570	335	-526
1315470	9989	211	-1349
1315798	10835	436	-2035
1316126	10956	801	-2388
1316454	10397	951	-2627
1316782	9289	593	-2742
1317110	7852	810	-2638
1317438	6351	888	-2802
1317766	5518	1331	-2851
1318094	5174	1679	-2808
1318422	5411	1983	-2601
1318750	5616	1992	-2446
1319078	5355	1900	-2428
1319406	4692	1924	-2490
1319734	3604	2198	-2323
1320062	3043	2331	-2113
1320390	3229	2177	-1724
1320718	2972	2284	-1493
1321046	2097	2636	-1448
1321374	2078	2425	-1050
1321702	1671	2217	-880
1322030	1350	2111	-786
1322358	2197	1369	-516
1322686	2669	895	-614
1323014	2836	829	-401
1323342	3416	13	-393
1323670	4229	26	-385
1323998	5143	-713	-554
1324326	6377	-1231	-738
1324654	7576	-1891	-1195
1324982	8843	-3144	-1479
1325310	9975	-4424	-1776
1325638	11427	-5705	-1930
1325966	13105	-6580	-1775
1326294	14306	-7773	-1920
1326622	15278	-8576	-1983
1326950	15733	-9022	-1942
1327278	16264	-9624	-2038
1327606	17029	-9943	-1995
1327934	16957	-9793	-2043
1328262	16214	-9145	-1865
1328590	15036	-8568	-1567
1328918	13728	-8138	-1392
1329246	12570	-7846	-1218
1329574	11435	-7593	-1067
1329902	10700	-7451	-982
1330230	10541	-7726	-879
1330558	10417	-8078	-825
1330886	10651	-8343	-761
1331214	11236	-8840	-675
1331542	11885	-9231	-595
1331870	12347	-9438	-718
1332198	13059	-9632	-979
1332526	13593	-9799	-1235
1332854	13528	-9912	-1567
1333182	13130	-9812	-1784
1333510	12600	-9601	-1942
1333838	12030	-9451	-1940
1334166	11335	-9127	-1989
1334494	10679	-8990	-1934
1334822	9839	-8494	-2027
1335150	9238	-8128	-1986
1335478	8558	-7625	-1900
1335806	7646	-7046	-1857
1336134	6533	-6360	-1863
1336462	5219	-5803	-1800
1336790	3667	-5084	-1653
1337118	2385	-4613	-1525
1337446	1394	-4651	-1355
1337774	641	-4630	-1334
1338102	530	-4823	-1439
1338430	977	-5167	-1601
1338758	1734	-5489	-1779
1339086	2748	-5697	-1986
1339414	3798	-5948	-2163
1339742	4540	-6098	-2306
1340070	4797	-6211	-2398
1340398	4772	-6453	-2353
1340726	4644	-6612	-2279
1341054	4305	-6982	-2389
1341382	4604	-7260	-2338
1341710	5062	-7538	-2524
1342038	5726	-7906	-2787
1342366	6823	-7940	-2916
1342694	7987	-7790	-2962
1343022	8989	-7645	-3009
1343350	9141	-7259	-3065
1343678	8739	-6677	-2722
1344006	8241	-6036	-2801
1344334	6760	-5451	-2505
1344662	4953	-4745	-2437
1344990	3097	-3995	-2436
1345318	1461	-3330	-2264
1345646	-90	-2658	-2188
1345974	-1191	-2067	-2247
1346302	-1896	-1548	-2202
1346630	-2340	-1083	-2113
1346958	-2522	-609	-2180
1347286	-2487	-237	-2065
1347614	-2607	0	-2278
1347942	-2576	117	-2241
1348270	-2396	456	-2348
1348598	-2034	584	-2122
1348926	-2124	675	-2225
1349254	-2391	1185	-1975
1349582	-2208	1305	-1804
1349910	-1092	1311	-1705
1350238	510	1024	-1727
1350566	2493	580	-1665
1350894	4296	350	-1887
1351222	5472	637	-1919
1351550	5610	1252	-1978
1351878	5279	1497	-1909
1352206	4461	1692	-1574
1352534	3294	2065	-1355
1352862	2200	2359	-1035
1353190	1090	2578	-824
1353518	301	2785	-762
1353846	-126	3003	-690
1354174	-70	3327	-731
1354502	214	3623	-747
1354830	486	3514	-769
1355158	795	3819	-647
1355486	1323	3551	-602
1355814	2486	3034	-564
1356142	3666	2596	-563
1356470	4814	2040	-767
1356798	5622	1972	-1086
1357126	6329	1740	-1407
1357454	6848	1353	-1495
1357782	6492	1298	-1830
1358110	5758	1511	-2004
1358438	2769	1558	-2009
1358766	906	1513	-2155
1359094	-755	1746	-2164
1359422	-1678	1769	-2144
1359750	-3001	1947	-2256
1360078	-4361	1861	-2157
1360406	-5704	2075	-1997
1360734	-5925	1238	-1644
1361062	-4837	219	-968
1361390	-2350	-1241	-654
1361718	684	-1948	-619
1362046	2902	-1934	-961
1362374	4611	-1902	-1405
1362702	5292	-1001	-1721
1363030	4475	-18	-1913
1363358	2644	946	-2055
1363686	292	1381	-1772
1364014	-2218	1029	-1381
1364342	-3739	1046	-1149
1364670	-3999	597	-1053
1364998	-3364	173	-1082
1365326	-2489	20	-1169
1365654	-1571	-120	-1239
1365982	-661	-109	-1233
1366310	13	257	-1290
1366638	329	444	-1302
1366966	248	420	-1177
1367294	-14	383	-1019
1367622	-229	368	-826
1367950	-219	350	-660
1368278	-224	296	-576
1368606	-184	257	-525
1368934	73	394	-487
1369262	180	272	-391
1369590	137	316	-406
1369918	118	460	-338
1370246	42	339	-381
1370574	-31	170	-377
1370902	38	203	-400
1371230	200	585	-394
1371558	481	233	-296
1371886	596	291	-274
1372214	382	447	-393
1372542	431	572	-353
1372870	459	754	-317
1373198	379	502	-334
1373526	412	326	-275
1373854	419	340	-335
1374182	664	214	-338
1374510	929	122	-331
1374838	1071	251	-366
1375166	1136	269	-464
1375494	1293	269	-451
1375822	1366	46	-550
1376150	1552	-64	-487
1376478	1575	115	-501
1376806	969	109	-511
1377134	397	113	-567
1377462	137	163	-630
1377790	-223	111	-645
1378118	-380	86	-690
1378446	-631	195	-617
1378774	-675	186	-637
1379102	-666	92	-597
1379430	-661	12	-558
1379758	-671	-16	-534
1380086	-613	-54	-506
1380414	-510	-98	-435
1380742	-397	-148	-362
1381070	-375	-116	-288
1381398	-429	-90	-256
1381726	-432	-84	-239
1382054	-469	-104	-226
1382382	-329	-106	-182
1382710	-229	-3	-158
1383038	-260	-133	-223
1383366	-74	-223	-237
1383694	9	-362	-246
1384022	-73	-450	-319
1384350	-82	-288	-355
1384678	-73	-273	-394
1385006	-242	-218	-454
1385334	-269	-219	-498
1385662	-314	-276	-555
1385990	-361	-185	-637
1386318	-454	-164	-728
1386646	-541	-195	-808
1386974	-556	-201	-803
1387302	-595	-182	-832
1387630	-566	-127	-886
1387958	-558	-165	-975
1388286	-519	-200	-1014
1388614	-516	-125	-935
1388942	-526	-140	-904
1389270	-589	-140	-920
1389598	-583	-167	-938
1389926	-629	-100	-970
1390254	-661	65	-958
1390582	-757	103	-973
1390910	-829	-9	-922
1391238	-800	38	-838
1391566	-925	20	-794
1391894	-1007	-36	-736
1392222	-1079	29	-706
1392550	-1024	39	-672
1392878	-962	26	-654
1393206	-843	13	-603
1393534	-853	25	-571
1393862	-1114	97	-532
1394190	-1361	113	-459
1394518	-1508	129	-401
1394846	-1578	64	-378
1395174	-1465	19	-383
1395502	-1267	84	-333
1395830	-1215	61	-301
1396158	-1281	89	-239
1396486	-1225	224	-228
1396814	-1236	93	-182
1397142	-1157	182	-123
1397470	-917	271	-72
1397798	-911	155	-57
1398126	-840	123	-31
1398454	-705	185	71
1398782	-431	121	159
1399110	-154	18	215
1399438	16	28	240
1399766	521	111	370
1400094	920	40	413
1400422	1023	-174	421
1400750	841	26	545
1401078	652	248	823
1401406	617	444	1342
1401734	904	124	1259
1402062	937	-93	1314
1402390	807	-273	1560
1402718	1310	-360	1474
1403046	1773	-115	1740
1403374	2337	-127	1718
1403702	2591	-31	1727
1404030	2230	-146	1544
1404358	1896	67	1661
1404686	1173	110	1689
1405014	68	27	1779
1405342	-1081	347	1902
1405670	-1622	736	1884
1405998	-2167	608	1809
1406326	-1662	622	1910
1406654	-996	654	1867
1406982	-446	387	1784
1407310	-509	446	1527
1407638	-147	475	1513
1407966	403	528	1645
1408294	660	214	1605
1408622	906	60	1451
1408950	957	93	1268
1409278	950	441	1097
1409606	759	981	885
1409934	370	1238	566
1410262	-207	1197	487
1410590	-869	1212	573
1410918	-1538	1416	730
1411246	-2245	1399	776
1411574	-2527	1184	1057
1411902	-2032	869	1037
1412230	-1424	673	930
1412558	-472	225	710
1412886	-274	275	472
1413214	-11	283	305
1413542	182	368	304
1413870	24	483	334
1414198	-463	671	370
1414526	-864	640	415
1414854	-1035	575	488
1415182	-952	415	498
1415510	-765	176	442
1415838	-285	133	396
1416166	-72	135	290
1416494	250	273	225
1416822	226	220	184
1417150	149	114	173
1417478	-30	111	160
1417806	-327	50	163
1418134	-498	27	139
1418462	-463	6	106
1418790	-302	-212	1
1419118	-130	-219	-69
1419446	-124	-35	-206
1419774	99	114	-326
1420102	-50	32	-376
1420430	-29	198	-437
1420758	-191	88	-505
1421086	-139	-35	-561
1421414	16	28	-654
1421742	9	70	-775
1422070	-51	229	-885
1422398	150	189	-899
1422726	56	51	-974
1423054	121	95	-1001
1423382	502	98	-1015
1423710	753	-27	-1065
1424038	850	176	-1128
1424366	894	470	-1184
1424694	876	426	-1153
1425022	673	392	-1102
1425350	484	390	-1019
1425678	190	436	-982
1426006	-31	495	-903
1426334	10	674	-749
1426662	-35	794	-557
1426990	-213	698	-343
1427318	-137	662	-250
1427646	16	549	30
1427974	169	418	25
1428302	501	369	329
1428630	525	209	385
1428958	752	128	561
1429286	540	269	597
1429614	373	214	660
1429942	421	148	768
1430270	495	275	871
1430598	398	332	923
1430926	381	296	1005
1431254	180	178	946
1431582	-68	151	867
1431910	-321	125	794
1432238	-328	34	702
1432566	-337	6	614
1432894	-369	53	512
1433222	-335	-24	405
1433550	-184	-148	310
1433878	-117	-29	232
1434206	64	61	123
1434534	54	119	120
1434862	4	52	88
1435190	46	48	105
1435518	-54	33	140
1435846	-24	1	177
1436174	147	-22	175
1436502	272	-87	131
1436830	433	-165	122
1437158	578	-129	160
1437486	614	-107	181
1437814	419	-101	235
1438142	112	14	316
1438470	-79	105	401
1438798	-353	113	437
1439126	-542	143	486
1439454	-705	201	552
1439782	-863	276	684
1440110	-917	195	806
1440438	-946	188	893
1440766	-1014	234	941
1441094	-983	244	1067
1441422	-965	301	1173
1441750	-902	133	1216
1442078	-586	-99	1278
1442406	-248	-32	1371
1442734	127	-12	1429
1443062	472	2	1516
1443390	672	-13	1594
1443718	834	28	1711
1444046	840	135	1824
1444374	778	146	1974
1444702	688	221	2178
1445030	580	294	2367
1445358	708	261	2621
1445686	835	257	2874
1446014	1088	303	3194
1446342	1431	356	3527
1446670	1736	130	3871
1446998	1850	79	4074
1447326	2196	176	4496
1447654	2492	281	4717
1447982	3079	768	4917
1448310	3407	913	5319
1448638	2828	1121	5411
1448966	1592	1531	5658
1449294	1159	949	6372
1449622	800	748	6405
1449950	537	745	6406
1450278	774	407	6363
1450606	1456	662	6291
1450934	2480	708	5839
1451262	2636	1311	5751
1451590	1781	1733	5333
1451918	1169	1637	4911
1452246	-273	1384	4113
1452574	-1511	254	3142
1452902	-3298	631	2212
1453230	-3671	883	1058
1453558	-1047	291	33
1453886	-1052	1509	-1610
1454214	-2624	2606	-3849
1454542	-4296	1889	-5275
1454870	-5570	646	-4540
1455198	-5427	1170	-4467
1455526	-4537	853	-5838
1455854	-4820	419	-7806
1456182	-4858	-281	-9567
1456510	-5140	-1005	-10564
1456838	-6042	-1831	-11214
1457166	-6479	-2405	-11418
1457494	-6803	-2825	-11410
1457822	-7205	-1872	-11445
1458150	-8418	-542	-11856
1458478	-8850	383	-12274
1458806	-9137	302	-13828
1459134	-12959	3435	-16380
1459462	-16280	7676	-16642
1459790	-9842	2243	-11663
1460118	-3225	-2443	-2798
1460446	-2609	-1520	2079
1460774	-9089	2812	2210
1461102	-10933	5322	1284
1461430	-7647	3355	1173
1461758	-1689	1199	1454
1462086	4415	-819	1422
1462414	10637	-1733	1222
1462742	15379	-2201	802
1463070	17439	-1716	-11
1463398	17366	-1584	-195
1463726	15941	-1271	-385
1464054	13432	-1396	-383
1464382	10178	-1684	-414
1464710	7345	-1651	-349
1465038	4673	-1971	-195
1465366	2408	-1383	-64
1465694	1032	-1013	102
1466022	26	-793	509
1466350	697	-226	817
1466678	1072	-1168	2335
1467006	2274	-469	2896
1467334	2280	-645	3940
1467662	593	-172	4112
1467990	-3986	-622	5773
1468318	2588	-5660	10313
1468646	-1220	-7343	12684
1468974	3698	-8628	18029
1469302	2123	7247	12853
1469630	1182	414	5185
1469958	10381	-2765	840
1470286	8266	2186	-1480
1470614	12578	9441	2798
1470942	12974	5037	5877
1471270	7497	-1249	5112
1471598	-5218	-752	1921
1471926	-7799	-1141	916
1472254	-12992	1200	-2013
1472582	-4402	4239	-2432
1472910	1004	-7919	1316
1473238	8160	-550	3579
1473566	6269	1819	-533
1473894	4193	-797	-3203
1474222	628	-706	-4793
1474550	-2203	-389	-5379
1474878	-3328	-254	-5192
1475206	-4015	-635	-5067
1475534	-3884	-890	-5403
1475862	-4104	-439	-5246
1476190	-3579	-159	-4751
1476518	-2914	42	-4247
1476846	-1628	132	-3904
1477174	-568	251	-3500
1477502	519	-72	-3422
1477830	1321	-360	-3023
1478158	1690	-590	-2946
1478486	1716	-645	-2691
1478814	1695	-633	-2564
1479142	1785	-202	-1689
1479470	1703	119	-1370
1479798	846	84	-1244
1480126	-115	358	-985
1480454	-921	498	-813
1480782	-1146	224	-490
1481110	-786	145	-364
1481438	-1640	-37	-194
1481766	-1434	53	-113
1482094	-1468	54	21
1482422	-1637	-63	-57
1482750	-1563	145	-166
1483078	-1535	249	-322
1483406	-1443	368	-484
1483734	-1235	427	-577
1484062	-1105	567	-583
1484390	-987	341	-616
1484718	-900	414	-679
1485046	-574	287	-797
1485374	102	62	-798
1485702	898	-115	-724
1486030	1339	-44	-666
1486358	1461	53	-726
1486686	1508	-101	-708
1487014	1795	-308	-576
1487342	1581	-170	-509
1487670	1884	-20	-400
1487998	1521	131	-350
1488326	777	113	-432
1488654	1054	69	-322
1488982	626	155	-74
1489310	912	115	-84
1489638	1013	3	-23
1489966	795	52	-23
1490294	903	73	-13
1490622	807	83	-20
1490950	630	160	-105
1491278	577	115	-146
1491606	412	126	-217
1491934	249	289	-310
1492262	129	338	-278
1492590	-78	462	-298
1492918	-248	561	-280
1493246	-352	662	-272
1493574	-275	752	-225
1493902	-111	861	-138
1494230	223	862	33
1494558	735	804	380
1494886	961	927	642
1495214	1348	770	790
1495542	1771	639	692
1495870	1931	531	432
1496198	1892	441	235
1496526	1722	555	193
1496854	1315	571	221
1497182	786	561	221
1497510	398	316	232
1497838	139	241	324
1498166	428	213	98
1498494	395	-34	69
1498822	168	314	11
1499150	382	400	206
1499478	592	20	230
1499806	407	-896	-35
1500134	328	-2060	-411
1500462	-505	-648	-407
1500790	263	-1656	-1
1501118	771	-839	918
1501446	-351	1522	1149
1501774	-1960	2398	1172
1502102	-2523	2911	740
1502430	-2896	2098	532
1502758	-1677	154	742
1503086	-1576	-646	534
1503414	-978	-339	256
1503742	177	-154	275
1504070	792	-108	256
1504398	740	234	190
1504726	269	459	240
1505054	-912	660	296
1505382	-2210	840	327
1505710	-3092	987	413
1506038	-3295	952	444
1506366	-2949	496	434
1506694	-2378	314	387
1507022	-1806	433	274
1507350	-1222	365	209
1507678	-505	268	222
1508006	-195	117	193
1508334	-118	61	216
1508662	-270	173	246
1508990	-430	373	297
1509318	-862	291	508
1509646	-950	341	592
1509974	-1023	262	633
1510302	-897	99	659
1510630	-647	106	734
1510958	-585	176	752
1511286	-415	193	814
1511614	-343	155	894
1511942	-445	197	988
1512270	-619	299	1087
1512598	-809	246	1200
1512926	-934	249	1275
1513254	-1046	227	1317
1513582	-1147	270	1345
1513910	-1242	287	1363
1514238	-1281	135	1421
1514566	-1310	-450	1481
1514894	-1223	-381	1476
1515222	-1117	84	1496
1515550	-874	-247	1417
1515878	-763	-143	1440
1516206	-1055	109	1460
1516534	-1291	2	1506
1516862	-1421	-203	1525
1517190	-1645	-269	1523
1517518	-1781	-223	1565
1517846	-1637	-144	1529
1518174	-1475	-69	1523
1518502	-1283	-66	1499
1518830	-1291	27	1466
1519158	-1266	128	1492
1519486	-1411	304	1450
1519814	-1749	463	1398
1520142	-2038	615	1342
1520470	-2199	756	1320
1520798	-2314	957	1350
1521126	-2388	984	1400
1521454	-2414	985	1383
1521782	-2514	983	1303
1522110	-2681	937	1197
1522438	-3029	1010	1056
1522766	-3447	1134	869
1523094	-3947	1193	646
1523422	-4531	1293	348
1523750	-4898	1267	17
1524078	-5002	1061	-364
1524406	-4869	836	-714
1524734	-4542	685	-1041
1525062	-4238	627	-1335
1525390	-3686	551	-1602
1525718	-3267	531	-1762
1526046	-3015	471	-1843
