Time Stamp	Gyroscope X	Gyroscope Y	Gyroscope Z
RAW	RAW	RAW	RAW
no units	no units	no units	no units
12416907	-395	264	-254
12417235	-396	309	-261
12417563	-331	344	-273
12417891	-277	358	-298
12418219	-315	333	-290
12418547	-347	340	-281
12418875	-368	326	-274
12419203	-384	383	-251
12419531	-378	416	-276
12419859	-358	378	-299
12420187	-312	402	-330
12420515	-252	465	-337
12420843	-182	481	-350
12421171	-158	494	-370
12421499	-179	504	-390
12421827	-181	457	-418
12422155	-220	453	-463
12422483	-248	458	-495
12422811	-277	477	-513
12423139	-189	474	-541
12423467	-86	559	-581
12423795	-47	589	-609
12424123	-50	549	-639
12424451	-106	525	-634
12424779	-152	551	-635
12425107	-165	544	-608
12425435	-114	543	-588
12425763	19	620	-640
12426091	101	593	-646
12426419	193	571	-683
12426747	224	577	-674
12427075	202	540	-667
12427403	190	549	-694
12427731	73	541	-746
12428059	-4	511	-806
12428387	-79	543	-886
12428715	-179	592	-975
12429043	-291	650	-1097
12429371	-514	675	-1252
12429699	-842	710	-1474
12430027	-1145	783	-1696
12430355	-1353	898	-1918
12430683	-1534	1022	-2078
12431011	-1606	1290	-2349
12431339	-1654	1542	-2594
12431667	-1737	1828	-2899
12431995	-1900	2138	-3077
12432323	-2141	2200	-3171
12432651	-2361	2159	-3261
12432979	-2283	2292	-3385
12433307	-1831	2718	-3487
12433635	-1872	2952	-3669
12433963	-1442	3168	-3723
12434291	-1449	3049	-3754
12434619	-1001	2810	-3940
12434947	-1042	3103	-4068
12435275	-952	3976	-4202
12435603	-724	4586	-4225
12435931	-784	4635	-3998
12436259	-1015	4047	-4135
12436587	-1165	3462	-4272
12436915	-1282	3369	-4288
12437243	-1561	2646	-4053
12437571	-2288	1060	-3620
12437899	-2695	-154	-3206
12438227	-2653	-164	-2852
12438555	-2720	1255	-2564
12438883	-3189	3104	-2320
12439211	-3395	4008	-2486
12439539	-3580	3512	-2758
12439867	-3499	3254	-2713
12440195	-3060	2553	-2306
12440523	-2612	927	-1790
12440851	-2408	-10	-2255
12441179	-2763	-878	-3018
12441507	-3222	-1654	-3720
12441835	-3360	-1702	-3378
12442163	-3428	-1920	-2968
12442491	-2920	-2219	-2309
12442819	-1649	-1558	-1774
12443147	-440	21	-1444
12443475	516	1359	-809
12443803	1236	1199	-142
12444131	1619	639	733
12444459	1805	-111	1408
12444787	1667	-964	1711
12445115	1569	-1817	2098
12445443	1705	-2724	2607
12445771	2033	-3480	3479
12446099	2379	-3969	4667
12446427	2964	-5037	5778
12446755	4109	-5636	6376
12447083	5673	-5987	6817
12447411	7005	-5415	6954
12447739	9454	-4781	6553
12448067	11087	-4777	7481
12448395	11915	-4314	8590
12448723	12326	-3591	9457
12449051	11667	-3957	10162
12449379	10710	-7264	10734
12449707	8094	-12713	11073
12450035	1857	-17197	11994
12450363	-953	-18501	13088
12450691	-4441	-15561	8485
12451019	-5839	-3523	3410
12451347	-7695	8086	-821
12451675	-4944	13418	-3429
12452003	-4816	13049	-4649
12452331	-1428	4370	-2617
12452659	2619	-624	225
12452987	6417	-3673	2740
12453315	8510	-5850	3097
12453643	8823	-4802	2500
12453971	7698	-2151	2105
12454299	5615	-281	1932
12454627	3939	1034	1595
12454955	3394	2654	958
12455283	3340	3206	290
12455611	3263	2598	191
12455939	2844	2222	-19
12456267	1842	1526	-273
12456595	1195	991	-626
12456923	679	631	-1112
12457251	704	712	-1851
12457579	446	1408	-2596
12457907	-128	2285	-3559
12458235	-1022	2686	-4510
12458563	-1730	2640	-5258
12458891	-2167	2541	-5425
12459219	-2623	2312	-5505
12459547	-2605	2051	-5767
12459875	-2258	860	-5694
12460203	-5552	-1055	-6236
12460531	-8360	-5449	-8419
12460859	-10916	9395	-12747
12461187	-10947	23466	-14997
12461515	-5966	16862	-11058
12461843	1473	9609	471
12462171	1616	8233	4472
12462499	6607	10093	3602
12462827	3438	10251	1454
12463155	3064	884	-2325
12463483	-1371	-2613	-8614
12463811	-7909	-6697	-10573
12464139	-12015	-8447	-8225
12464467	-12226	-11971	-4338
12464795	-7389	-15110	74
12465123	-1481	-5193	3212
12465451	7713	8227	5907
12465779	5216	8210	3013
12466107	8448	3935	4217
12466435	9248	6305	4383
12466763	9047	6207	4938
12467091	8382	5770	5467
12467419	5954	4103	6548
12467747	3513	1013	7581
12468075	511	-1843	6638
12468403	-2733	-5745	5062
12468731	-4685	-9186	4069
12469059	-5089	-11115	4088
12469387	-4247	-10870	3654
12469715	-2788	-8915	3171
12470043	-1925	-6705	2767
12470371	-1586	-4741	2867
12470699	-1116	-3304	2827
12471027	-850	-2466	3084
12471355	-890	-1874	2779
12471683	-1064	-1919	2408
12472011	-988	-2075	2428
12472339	-826	-1839	2580
12472667	-1839	-1765	2469
12472995	-1706	-2234	2362
12473323	-1199	-2087	1928
12473651	-1135	-1640	1454
12473979	-973	-1557	1028
12474307	-832	-1341	969
12474635	-902	-1091	848
12474963	-1191	-1143	768
12475291	-1247	-1075	734
12475619	-1286	-1088	759
12475947	-1636	-1193	653
12476275	-1915	-1653	709
12476603	-2247	-1944	778
12476931	-2663	-2107	937
12477259	-3179	-2229	1089
12477587	-3276	-2170	1203
12477915	-3087	-1882	1182
12478243	-2807	-1593	1007
12478571	-2299	-1537	759
12478899	-1736	-1465	574
12479227	-943	-1080	364
12479555	92	-493	188
12479883	1433	456	-50
12480211	2529	1390	-546
12480539	2876	1712	-767
12480867	3382	1600	-475
12481195	4173	1500	-161
12481523	5210	1536	165
12481851	6373	1833	324
12482179	7105	2430	624
12482507	5122	2948	876
12482835	2959	2656	-47
12483163	1913	1248	-295
12483491	1301	-953	-69
12483819	1419	-801	209
12484147	1581	-67	-59
12484475	1652	166	-319
12484803	1542	108	-668
12485131	1275	150	-608
12485459	686	204	-363
12485787	-105	56	-77
12486115	-888	116	90
12486443	-1224	203	177
12486771	-1297	200	183
12487099	-1271	156	117
12487427	-1062	152	18
12487755	-764	79	-14
12488083	-528	37	-142
12488411	-261	79	-188
12488739	-129	165	-151
12489067	-165	154	-125
12489395	-252	145	-116
12489723	-374	142	-129
12490051	-527	99	-130
12490379	-670	86	-136
12490707	-728	140	-143
12491035	-623	243	-159
12491363	-418	322	-157
12491691	-79	371	-162
12492019	295	399	-199
12492347	548	413	-227
12492675	618	386	-253
12493003	546	326	-224
12493331	339	346	-153
12493659	-33	323	-83
12493987	-412	250	-46
12494315	-699	223	-20
12494643	-895	220	-1
12494971	-981	236	-1
12495299	-953	251	-3
12495627	-809	244	10
12495955	-664	266	38
12496283	-495	244	43
12496611	-429	194	35
12496939	-363	213	64
12497267	-321	330	71
12497595	-376	366	107
12497923	-498	216	172
12498251	-663	114	151
12498579	-861	108	145
12498907	-1074	102	145
12499235	-1319	25	222
12499563	-1542	28	256
12499891	-1701	75	234
12500219	-1664	121	173
12500547	-1300	283	42
12500875	-811	435	-90
12501203	-343	576	-229
12501531	47	460	-292
12501859	192	313	-382
12502187	166	207	-391
12502515	68	21	-344
12502843	-302	-123	-308
12503171	-636	-113	-369
12503499	-833	-190	-303
12503827	-751	-185	-233
12504155	-509	-85	-188
12504483	-410	-209	-98
12504811	-174	-259	28
12505139	-160	-146	106
12505467	-381	-180	155
12505795	-637	-319	189
12506123	-1020	-457	297
12506451	-1152	-438	451
12506779	-1080	-489	446
12507107	-1141	-448	353
12507435	-1043	-388	299
12507763	-861	-285	219
12508091	-777	-201	160
12508419	-650	-132	123
12508747	-611	72	-3
12509075	-604	147	-67
12509403	-570	211	-159
12509731	-593	277	-245
12510059	-785	223	-271
12510387	-1109	113	-295
12510715	-1346	124	-317
12511043	-1518	120	-315
12511371	-1596	132	-330
12511699	-1526	83	-327
12512027	-1384	82	-372
12512355	-1258	213	-397
12512683	-1134	157	-395
12513011	-875	54	-362
12513339	-672	63	-348
12513667	-589	20	-275
12513995	-630	-52	-217
12514323	-615	-166	-175
12514651	-481	-208	-105
12514979	-293	-182	-146
12515307	-84	-109	-151
12515635	157	-346	-59
12515963	351	-495	52
12516291	368	-484	-4
12516619	373	-605	-55
12516947	438	-805	29
12517275	590	-699	123
12517603	625	-752	111
12517931	590	-748	-68
12518259	655	-641	-242
12518587	689	-594	-351
12518915	598	-809	-374
12519243	576	-789	-380
12519571	420	-821	-485
12519899	196	-827	-673
12520227	266	-649	-846
12520555	406	-397	-1022
12520883	327	-381	-1119
12521211	245	-486	-1258
12521539	330	-383	-1500
12521867	502	-275	-1760
12522195	750	-91	-2028
12522523	540	-149	-2234
12522851	321	-285	-2392
12523179	203	-224	-2574
12523507	253	-465	-2665
12523835	656	-500	-2717
12524163	772	-408	-2719
12524491	961	-645	-2547
12524819	1575	-755	-2375
12525147	2179	-698	-2043
12525475	2533	-545	-1528
12525803	2747	-630	-994
12526131	2943	-598	-476
12526459	3229	-644	153
12526787	3963	-473	450
12527115	3619	-679	1006
12527443	4816	-1357	1617
12527771	4903	-1718	1918
12528099	5086	-2105	2087
12528427	4778	-2425	1982
12528755	3844	-2703	1993
12529083	2633	-2684	1741
12529411	1370	-2786	1284
12529739	152	-3208	1047
12530067	32	-2973	895
12530395	479	-1299	391
12530723	983	175	-694
12531051	2498	575	-1804
12531379	5187	743	-2697
12531707	8872	1514	-3104
12532035	11765	2845	-3210
12532363	13674	3434	-3322
12532691	13954	3507	-2776
12533019	13306	2785	-2635
12533347	10602	1162	-1939
12533675	7602	25	-1704
12534003	4812	-881	-1637
12534331	1975	-1419	-1686
12534659	-613	-1979	-1606
12534987	-2427	-2320	-1567
12535315	-2180	-28	-1553
12535643	-294	2236	-1735
12535971	1473	1961	-1355
12536299	2338	2364	63
12536627	1810	1691	893
12536955	1980	881	388
12537283	2103	1774	-124
12537611	-6	3073	-483
12537939	-3268	3096	11
12538267	-2828	1452	513
12538595	-1339	-1772	102
12538923	-1427	-2581	775
12539251	-2266	-1527	1225
12539579	-3295	-1198	621
12539907	-3596	-922	179
12540235	-3261	556	-130
12540563	-2889	1408	-131
12540891	-2130	1350	-227
12541219	-1063	934	-254
12541547	-508	841	-455
12541875	-136	1014	-415
12542203	-299	1172	-337
12542531	-649	1112	-517
12542859	-1203	966	-636
12543187	-1595	731	-599
12543515	-2056	571	-480
12543843	-2453	261	-273
12544171	-2584	83	-109
12544499	-2445	222	-57
12544827	-2086	398	28
12545155	-1624	415	116
12545483	-1105	500	199
12545811	-694	481	280
12546139	-301	403	332
12546467	7	472	314
12546795	46	457	312
12547123	108	364	300
12547451	188	368	287
12547779	399	348	284
12548107	589	408	221
12548435	769	428	208
12548763	864	428	198
12549091	943	384	172
12549419	913	399	178
12549747	806	359	171
12550075	665	270	200
12550403	553	196	198
12550731	564	181	224
12551059	532	122	197
12551387	502	78	181
12551715	469	48	169
12552043	428	6	187
12552371	331	-52	181
12552699	354	-64	189
12553027	362	-132	164
12553355	383	-175	103
12553683	433	-155	35
12554011	492	-131	-4
12554339	495	-98	-11
12554667	404	-70	-8
12554995	353	-34	-26
12555323	221	-51	-8
12555651	79	-78	-21
12555979	-20	-57	-66
12556307	164	9	-117
12556635	309	199	-207
12556963	329	115	-301
12557291	417	57	-370
12557619	436	121	-355
12557947	344	48	-304
12558275	232	29	-289
12558603	26	24	-270
12558931	-40	17	-289
12559259	-10	91	-299
12559587	79	90	-297
12559915	34	37	-315
12560243	93	-80	-285
12560571	80	15	-246
12560899	87	15	-281
12561227	23	-63	-287
12561555	-43	-149	-280
12561883	-102	-153	-281
12562211	-70	-103	-289
12562539	-137	-80	-232
12562867	-66	-41	-289
12563195	130	-17	-351
12563523	452	-105	-383
12563851	663	-33	-388
12564179	1072	-171	-275
12564507	1272	-113	-219
12564835	1558	1	-149
12565163	1803	54	-150
12565491	1963	63	-193
12565819	2305	39	-199
12566147	2618	-55	-197
12566475	2923	-26	-204
12566803	3419	13	-317
12567131	3905	81	-562
12567459	4604	274	-787
12567787	5583	223	-851
12568115	6432	472	-920
12568443	7294	1003	-1205
12568771	8321	1747	-1494
12569099	9321	2307	-1718
12569427	10356	2784	-1948
12569755	11462	3351	-2319
12570083	12323	3730	-2536
12570411	12905	3789	-2642
12570739	13220	3789	-2765
12571067	13469	3598	-2714
12571395	14273	3986	-2578
12571723	15156	4990	-2153
12572051	16604	5327	-1628
12572379	18346	5193	-1049
12572707	20122	5282	-383
12573035	21487	5770	42
12573363	21551	6096	543
12573691	20170	5136	1259
12574019	17813	3212	1783
12574347	15887	2298	1990
12574675	14014	2302	1943
12575003	11822	2388	1723
12575331	10295	2626	1332
12575659	9440	2885	662
12575987	8628	2779	-49
12576315	8119	2578	-741
12576643	7408	1858	-1286
12576971	6103	423	-1754
12577299	5500	-542	-1980
12577627	3901	407	-2682
12577955	1796	2745	-4313
12578283	-2991	774	-5066
12578611	-6797	184	-5535
12578939	-8874	3791	-6077
12579267	-8929	9582	-6228
12579595	-8180	10224	-2692
12579923	-5769	-1714	-852
12580251	-402	-8096	-3169
12580579	2083	-527	-5111
12580907	1943	983	-4466
12581235	3742	-2216	-2063
12581563	5173	142	-398
12581891	3779	5246	-871
12582219	1847	8225	-1116
12582547	964	7942	-996
12582875	839	5116	-942
12583203	931	2154	-1185
12583531	425	-467	-543
12583859	-735	-1678	20
12584187	-1440	-1866	518
12584515	-2207	-973	842
12584843	-2129	-55	1115
12585171	-2234	127	735
12585499	-1966	36	523
12585827	-1442	-742	377
12586155	-1093	-624	261
12586483	-994	-529	141
12586811	-1245	-727	78
12587139	-1435	-818	172
12587467	-1436	-617	227
12587795	-1532	-381	251
12588123	-1395	-139	176
12588451	-1392	44	4
12588779	-1365	178	-236
12589107	-1068	297	-361
12589435	-791	370	-511
12589763	-567	640	-653
12590091	-156	792	-941
12590419	482	1055	-1054
12590747	601	1239	-1428
12591075	746	1619	-1853
12591403	1083	1833	-2073
12591731	1334	1424	-2065
12592059	1419	1708	-2008
12592387	799	2020	-2128
12592715	731	2259	-2415
12593043	774	2405	-2486
12593371	892	2703	-2627
12593699	1142	2930	-2847
12594027	1402	3083	-2998
12594355	1883	3491	-3319
12594683	2643	3625	-3572
12595011	3131	3627	-3662
12595339	3512	3561	-3700
12595667	3581	3518	-3704
12595995	3305	3450	-3788
12596323	2685	3181	-3871
12596651	2027	3024	-4036
12596979	351	2770	-4130
12597307	-1500	2063	-3924
12597635	-3301	1658	-3713
12597963	-5013	1254	-3313
12598291	-6044	627	-2971
12598619	-6596	446	-2733
12598947	-7191	978	-2992
12599275	-6482	1618	-2877
12599603	-6238	2103	-2363
12599931	-5216	2652	-2146
12600259	-4138	3167	-2231
12600587	-3081	2927	-2070
12600915	-2219	2679	-2031
12601243	-1295	2333	-2134
12601571	-1445	2223	-1721
12601899	-1863	2064	-1083
12602227	-2434	1830	-1017
12602555	-2539	1419	-747
12602883	-2172	1734	-722
12603211	-1356	2340	-752
12603539	-732	2440	-848
12603867	-135	2183	-856
12604195	117	2005	-815
12604523	142	1918	-631
12604851	116	1879	-548
12605179	98	1738	-494
12605507	195	1564	-383
12605835	574	1542	-306
12606163	966	1664	-319
12606491	1401	1923	-455
12606819	1825	2151	-680
12607147	2065	2420	-696
12607475	2559	2113	-1025
12607803	4136	2945	-1768
12608131	3784	4103	-1183
12608459	4605	3279	-1797
12608787	2677	3596	-1014
12609115	2453	1838	-1778
12609443	2817	1408	-1810
12609771	2691	1464	-2063
12610099	2407	921	-2296
12610427	2130	378	-2702
12610755	2160	-194	-3129
12611083	2325	-582	-3527
12611411	2880	-135	-4015
12611739	3494	696	-4336
12612067	3777	1009	-4505
12612395	3924	1296	-4712
12612723	3866	1588	-4694
12613051	3720	1531	-4632
12613379	3479	1531	-4664
12613707	3714	1862	-4980
12614035	3689	2926	-5268
12614363	3454	3439	-5331
12614691	3604	3235	-5500
12615019	3419	3698	-5785
12615347	2213	4102	-6029
12615675	1112	3518	-6092
12616003	-543	3260	-6023
12616331	-2522	2399	-5335
12616659	-4939	-316	-4200
12616987	-7287	-4135	-2918
12617315	-8171	-6487	-2104
12617643	-7242	-5865	-1438
12617971	-5124	-3834	-1015
12618299	-2688	-1666	-678
12618627	-559	-52	-855
12618955	850	1035	-1077
12619283	1534	1484	-683
12619611	1946	788	-343
12619939	2651	-367	-15
12620267	3793	-400	50
12620595	5168	250	-99
12620923	6455	1273	-603
12621251	7669	2195	-903
12621579	7990	2768	-478
12621907	7893	3223	-659
12622235	7207	3033	-918
12622563	5663	1948	-708
12622891	3424	46	-356
12623219	1390	-1860	-149
12623547	70	-2380	-133
12623875	-387	-1561	-123
12624203	-327	-485	-205
12624531	-78	-128	-380
12624859	318	-127	-583
12625187	654	-85	-658
12625515	732	-18	-682
12625843	547	2	-755
12626171	405	-135	-969
12626499	-251	-165	-980
12626827	-1031	-360	-919
12627155	-1509	-771	-824
12627483	-1803	-675	-784
12627811	-2092	-97	-815
12628139	-2176	213	-898
12628467	-2067	250	-982
12628795	-2090	340	-972
12629123	-2168	289	-990
12629451	-2318	56	-936
12629779	-2780	-138	-879
12630107	-3118	-448	-769
12630435	-3385	-429	-656
12630763	-3658	-74	-617
12631091	-3899	-12	-583
12631419	-4094	-429	-466
12631747	-4192	-638	-452
12632075	-4097	-358	-525
12632403	-4211	-431	-623
12632731	-4636	-1076	-520
12633059	-5079	-1723	-350
12633387	-5491	-2121	-112
12633715	-5695	-2389	21
12634043	-5687	-2268	146
12634371	-5819	-2289	336
12634699	-5787	-2686	534
12635027	-5508	-2667	675
12635355	-5276	-2296	893
12635683	-5165	-2526	1102
12636011	-4990	-3047	1411
12636339	-4781	-3826	1971
12636667	-4186	-4273	2478
12636995	-3656	-3762	2952
12637323	-2926	-3046	3184
12637651	-2105	-3091	3396
12637979	-1315	-3718	3742
12638307	-738	-4462	4149
12638635	180	-4973	4683
12638963	784	-4445	5241
12639291	1528	-3873	5725
12639619	2767	-3194	6012
12639947	4452	-1211	6179
12640275	6251	1834	5828
12640603	7866	4272	5303
12640931	8676	5747	4868
12641259	7555	8041	4439
12641587	5742	14721	3024
12641915	4753	17669	3311
12642243	-443	1026	4520
12642571	-4618	-7497	1379
12642899	-8297	-11379	1221
12643227	-8277	-8829	1794
12643555	-6329	-6747	2709
12643883	-3696	-4013	3307
12644211	-1340	-1353	3542
12644539	-141	1015	2863
12644867	119	1962	2522
12645195	-277	564	2638
12645523	-996	-1220	2248
12645851	-2303	-3138	2342
12646179	-3773	-4793	2659
12646507	-4629	-4702	2748
12646835	-4957	-3593	2951
12647163	-4841	-2677	2861
12647491	-4517	-2076	2560
12647819	-4307	-1877	2119
12648147	-3743	-1946	1844
12648475	-3262	-1836	1517
12648803	-3070	-1449	942
12649131	-3258	-1247	612
12649459	-3201	-1245	408
12649787	-3095	-877	61
12650115	-2973	-391	-368
12650443	-2874	-345	-827
12650771	-2687	-505	-1424
12651099	-2772	-932	-2138
12651427	-3315	-1846	-2447
12651755	-4105	-2755	-2280
12652083	-4735	-3135	-2222
12652411	-4973	-3388	-1985
12652739	-5027	-3477	-1804
12653067	-5223	-3533	-1903
12653395	-5348	-3804	-2255
12653723	-5646	-4226	-2757
12654051	-6852	-5659	-2916
12654379	-8173	-7641	-3109
12654707	-8708	-8878	-3433
12655035	-9323	-9236	-3728
12655363	-10765	-9647	-3777
12655691	-12017	-11400	-3958
12656019	-12330	-13661	-3785
12656347	-13091	-13545	-3627
12656675	-13575	-13465	-3549
12657003	-13634	-14180	-3511
12657331	-13395	-14160	-3475
12657659	-12807	-13587	-3486
12657987	-11591	-13186	-3416
12658315	-10028	-12297	-3451
12658643	-8449	-11179	-3526
12658971	-6932	-9991	-3496
12659299	-5357	-8592	-3400
12659627	-3822	-7218	-3352
12659955	-2485	-5643	-3263
12660283	-1341	-3830	-3275
12660611	-298	-2717	-3070
12660939	223	-3361	-2903
12661267	265	-5270	-3140
12661595	-19	-6572	-3523
12661923	92	-6255	-3259
12662251	321	-5283	-2884
12662579	87	-4719	-2643
12662907	-553	-4045	-2561
12663235	-1424	-3460	-2536
12663563	-1935	-3435	-2366
12663891	-2872	-4061	-2367
12664219	-3926	-5315	-2580
12664547	-5143	-7103	-2584
12664875	-6483	-8610	-2699
12665203	-7740	-9675	-2678
12665531	-8969	-10542	-2590
12665859	-10187	-11393	-2372
12666187	-11000	-12288	-2209
12666515	-11324	-13388	-1857
12666843	-11880	-14602	-1473
12667171	-11816	-15937	-1143
12667499	-11564	-15829	-915
12667827	-10496	-13255	-714
12668155	-8547	-10343	-728
12668483	-7268	-8448	-1137
12668811	-5459	-7584	-807
12669139	-3289	-6366	-528
12669467	-851	-5221	-571
12669795	2395	-4682	-564
12670123	5805	-3999	-733
12670451	8146	-3789	-922
12670779	9766	-3778	-922
12671107	9805	-4203	-112
12671435	8306	-5398	1317
12671763	5871	-5033	2123
12672091	3041	-4458	2479
12672419	-324	-4660	2535
12672747	-3962	-5022	2468
12673075	-6752	-5698	3135
12673403	-7957	-6058	4356
12673731	-9256	-5681	5366
12674059	-10122	-5200	5865
12674387	-10583	-4746	5279
12674715	-10270	-4075	3849
12675043	-10774	-2800	2733
12675371	-9479	-2089	1276
12675699	-6553	-2325	1737
12676027	-4620	-3463	3543
12676355	-4602	-4415	5192
12676683	-3905	-2984	6590
12677011	-3826	400	6125
12677339	-3561	2569	5228
12677667	-2339	3306	4910
12677995	-1463	2999	4967
12678323	-1847	2775	5042
12678651	-3171	2675	4412
12678979	-4196	2449	3917
12679307	-6107	3035	3650
12679635	-7843	2797	3284
12679963	-9050	421	3019
12680291	-9581	-2629	2995
12680619	-9344	-3666	3271
12680947	-7993	-2070	3344
12681275	-6719	-334	3452
12681603	-5619	266	3128
12681931	-4035	-104	3046
12682259	-2615	0	3038
12682587	-2427	931	3211
12682915	-3703	6477	2759
12683243	-2017	15380	1975
12683571	-7028	-1332	2198
12683899	-9750	-14457	-478
12684227	-7824	-12881	265
12684555	-5221	-4315	1853
12684883	-2652	224	1583
12685211	190	288	2493
12685539	1630	3456	1927
12685867	2032	7919	852
12686195	2065	7336	266
12686523	670	2943	907
12686851	-507	-922	1294
12687179	-845	-1339	897
12687507	-992	-494	647
12687835	-868	164	668
12688163	-952	287	753
12688491	-617	551	686
12688819	25	809	520
12689147	581	1018	328
12689475	636	1079	174
12689803	428	835	240
12690131	157	446	442
12690459	-246	279	540
12690787	-490	-65	496
12691115	-652	-388	421
12691443	-754	-592	442
12691771	-551	-558	470
12692099	-239	-114	449
12692427	6	59	368
12692755	-27	-288	334
12693083	-91	-501	282
12693411	-218	-613	162
12693739	-403	-652	175
12694067	-279	-575	125
12694395	-172	-230	-59
12694723	-60	-94	-296
12695051	304	-337	-427
12695379	495	-287	-459
12695707	521	-566	-435
12696035	507	-849	-348
12696363	309	-907	-280
12696691	65	-778	-206
12697019	-406	-866	-183
12697347	-698	-1025	-142
12697675	-726	-1092	-281
12698003	-395	-898	-530
12698331	81	-527	-792
12698659	427	-365	-931
12698987	811	-527	-893
12699315	1138	-775	-838
12699643	1450	-822	-862
12699971	1862	-634	-1251
12700299	1694	-851	-1025
12700627	1364	-1051	-1260
12700955	1100	-1569	-1376
12701283	1054	-1955	-1556
12701611	1073	-1853	-1852
12701939	1149	-1600	-2188
12702267	1220	-1422	-2613
12702595	1339	-1093	-3095
12702923	1379	-1245	-3431
12703251	1475	-1466	-3894
12703579	1702	-1187	-4597
12703907	1528	-790	-5364
12704235	1011	-765	-5978
12704563	184	-884	-6755
12704891	-671	-836	-7647
12705219	-1062	-534	-8824
12705547	-1418	-106	-9687
12705875	-2318	-793	-10000
12706203	-3156	-2464	-9518
12706531	-4162	-3763	-9858
12706859	-4237	-4090	-10429
12707187	-4901	-4696	-11103
12707515	-8943	-5360	-10661
12707843	-13882	-6633	-9965
12708171	-17259	-8504	-8184
12708499	-20524	-8981	-5889
12708827	-20475	-8432	-4231
12709155	-20300	-7046	-3765
12709483	-18309	-6294	-1583
12709811	-16492	-4865	1442
12710139	-15095	-3517	4199
12710467	-12462	-2896	5771
12710795	-8960	-4952	6921
12711123	-4640	-6066	8582
12711451	-178	-6203	9692
12711779	2923	-6459	11315
12712107	4809	-6650	12472
12712435	6659	-6836	13777
12712763	8482	-6690	15262
12713091	10157	-6298	16769
12713419	10600	-5939	18171
12713747	9893	-5773	19305
12714075	7778	-6403	20200
12714403	5197	-7548	21455
12714731	2800	-8071	22646
12715059	752	-8190	23348
12715387	-997	-8737	23893
12715715	-1969	-9422	24094
12716043	-2529	-8957	23896
12716371	-2584	-7758	22210
12716699	-2725	-9290	21677
12717027	-2505	-10232	20425
12717355	-1265	-9517	17814
12717683	675	-8151	14052
12718011	2196	-7778	10685
12718339	1015	-6413	7270
12718667	-969	-3583	2574
12718995	-2852	-3216	-314
12719323	-5378	-4359	-1831
12719651	-7740	-4094	-2767
12719979	-10123	-2207	-4511
12720307	-13450	3	-6013
12720635	-16714	2871	-7089
12720963	-17399	16098	-9003
12721291	-16853	14200	-8522
12721619	-8633	-4808	-7007
12721947	-406	-4401	-5009
12722275	1823	1279	-5622
12722603	3467	184	-4753
12722931	1778	146	-3374
12723259	-962	4593	-3750
12723587	-2648	8518	-4172
12723915	-2203	8660	-3988
12724243	-1631	7385	-3439
12724571	-1022	6231	-3297
12724899	-495	4412	-2456
12725227	125	2920	-1994
12725555	1022	3065	-1617
12725883	1354	2750	-1447
12726211	1168	1558	-1330
12726539	803	625	-932
12726867	467	452	-674
12727195	24	1028	-533
12727523	-435	1471	-355
12727851	-749	1550	-343
12728179	-816	833	-322
12728507	-770	70	-427
12728835	-478	-367	-485
12729163	-267	-631	-528
12729491	-115	-1159	-460
12729819	-139	-1769	-337
12730147	-215	-1818	-122
12730475	-357	-1719	119
12730803	-571	-1840	255
12731131	-507	-1997	448
12731459	-367	-1830	553
12731787	-111	-1829	586
12732115	360	-1832	676
12732443	743	-2036	723
12732771	1008	-2213	749
12733099	1144	-2287	937
12733427	1030	-2631	1197
12733755	937	-2889	1596
12734083	932	-2848	2219
12734411	790	-3017	2719
12734739	999	-3313	3174
12735067	1544	-2930	3625
12735395	2270	-2555	3993
12735723	3268	-2386	4376
12736051	4563	-1909	4460
12736379	5528	-1670	4813
12736707	6688	-1377	5148
12737035	7912	-856	5369
12737363	9257	-213	5734
12737691	10528	261	5860
12738019	11973	790	5719
12738347	14098	711	6115
12738675	15667	220	6571
12739003	16869	884	7149
12739331	16746	463	7440
12739659	18364	1021	6989
12739987	18759	1560	5699
12740315	15689	1357	3694
12740643	11688	1750	1077
12740971	8721	1186	-2333
12741299	8195	450	-4132
12741627	7914	912	-4266
12741955	6893	430	-4654
12742283	6009	133	-5444
12742611	5314	-239	-6347
12742939	4549	-1021	-7224
12743267	3582	-1571	-7947
12743595	2857	-2366	-8831
12743923	1759	-3605	-8914
12744251	489	-4682	-8619
12744579	-640	-5029	-8640
12744907	-1772	-5273	-8619
12745235	-2287	-5261	-8789
12745563	-2318	-5139	-8973
12745891	-1798	-5016	-9134
12746219	-789	-4549	-9442
12746547	295	-4202	-9368
12746875	1297	-3874	-9277
12747203	2080	-3634	-9054
12747531	2457	-3549	-8663
12747859	2903	-3555	-8188
12748187	3420	-3478	-7352
12748515	4197	-2917	-6787
12748843	5032	-2397	-6172
12749171	6021	-1817	-5740
12749499	7144	-983	-5321
12749827	8747	-258	-5007
12750155	10164	429	-4758
12750483	11327	949	-4462
12750811	12123	933	-4019
12751139	12747	921	-3812
12751467	13018	1106	-3572
12751795	13075	1053	-3333
12752123	12227	1057	-3262
12752451	10942	577	-3354
12752779	10180	348	-3420
12753107	9659	927	-3303
12753435	7851	789	-3067
12753763	6297	936	-3024
12754091	5177	981	-3110
12754419	3240	1243	-3693
12754747	1263	1717	-4537
12755075	-294	3056	-4947
12755403	-1280	5232	-4623
12755731	-1159	6454	-4407
12756059	1691	6934	-2875
12756387	3598	11315	-1787
12756715	5400	13916	-1013
12757043	6148	11875	-1725
12757371	7756	13851	-526
12757699	3861	8164	-854
12758027	3195	-2968	-1965
12758355	6603	-1275	1441
12758683	8777	5801	4137
12759011	8465	6490	5337
12759339	7822	3127	4886
12759667	6027	3604	3995
12759995	3414	8101	1455
12760323	2855	11104	-776
12760651	3329	12770	-1539
12760979	3681	12756	-1472
12761307	4609	10515	-1189
12761635	5459	6164	-982
12761963	6276	2482	-1239
12762291	7435	1737	-1551
12762619	8621	2955	-1796
12762947	9037	3981	-1880
12763275	9330	3891	-2253
12763603	8343	3668	-2191
12763931	6644	3625	-2143
12764259	4763	4120	-2049
12764587	2652	4863	-1999
12764915	797	4511	-1932
12765243	-819	3143	-1875
12765571	-2095	2588	-1942
12765899	-2957	2527	-2033
12766227	-3548	2505	-2135
12766555	-3728	2572	-2376
12766883	-3521	2432	-2603
12767211	-2924	1396	-2675
12767539	-2430	1353	-2829
12767867	-2541	2094	-3279
12768195	-3065	1950	-3296
12768523	-2987	1893	-3207
12768851	-2684	2243	-3195
12769179	-2669	2428	-3092
12769507	-3204	3131	-3126
12769835	-3613	3326	-3124
12770163	-3622	2956	-3012
12770491	-3451	2970	-2899
12770819	-3014	3636	-2926
12771147	-2470	4392	-2887
12771475	-2053	4482	-2850
12771803	-1576	3932	-2659
12772131	-1136	3397	-2014
12772459	-1038	3419	-1661
12772787	-995	3256	-1489
12773115	-617	2358	-1031
12773443	-91	2059	-985
12773771	437	2267	-744
12774099	814	2333	-489
12774427	1026	2588	-358
12774755	1484	2768	-257
12775083	1930	2808	-127
12775411	2496	2829	-78
12775739	3015	3257	-12
12776067	3380	3674	136
12776395	3672	3697	156
12776723	4100	3831	132
12777051	4515	4022	196
12777379	4703	4248	177
12777707	4827	4208	198
12778035	4652	3729	212
12778363	4694	3160	174
12778691	5223	2183	-28
12779019	5636	1227	-479
12779347	6506	910	-900
12779675	8486	444	-1333
12780003	10338	-94	-1798
12780331	13029	865	-2515
12780659	15298	3636	-3500
12780987	16894	6447	-4544
12781315	18007	7761	-5778
12781643	16754	7853	-5629
12781971	14350	7523	-4706
12782299	11222	6203	-3570
12782627	7882	4844	-2808
12782955	5132	4714	-2816
12783283	3566	4504	-3224
12783611	3039	2906	-3874
12783939	3185	2247	-4102
12784267	3358	2932	-4438
12784595	3090	3112	-4603
12784923	2532	2691	-4735
12785251	1577	2015	-4862
12785579	939	1214	-4901
12785907	-79	701	-5084
12786235	-1025	116	-5232
12786563	-1689	-454	-5428
12786891	-2139	-901	-5505
12787219	-2174	-1338	-5634
12787547	-1698	-1386	-5858
12787875	-1027	-1076	-6042
12788203	-479	-964	-5934
12788531	-376	-1244	-5883
12788859	-419	-1665	-5644
12789187	-235	-1760	-5284
12789515	-160	-1566	-4988
12789843	-11	-1063	-4730
12790171	607	-392	-4454
12790499	1115	-29	-4293
12790827	1573	265	-4233
12791155	2084	280	-4038
12791483	2655	-254	-3968
12791811	3079	-1218	-3710
12792139	3658	-1256	-3792
12792467	3898	-586	-3635
12792795	3410	1094	-2945
12793123	3292	-998	-3604
12793451	3580	-2590	-3663
12793779	3260	-2559	-3286
12794107	2821	-1428	-3346
12794435	2338	-823	-3386
12794763	1660	-727	-3562
12795091	1069	-800	-3896
12795419	590	-1241	-4439
12795747	338	-1531	-4912
12796075	353	-1381	-5268
12796403	21	-1485	-5709
12796731	-1358	-1627	-5815
12797059	-2772	-2704	-5896
12797387	-4909	-5027	-5922
12797715	-6821	-6994	-6337
12798043	-8834	-8226	-6602
12798371	-9542	-8032	-5776
12798699	-11092	-8249	-4460
12799027	-12617	-8532	-2864
12799355	-12771	-5260	-1510
12799683	-14204	-2677	-824
12800011	-13507	-1641	1123
12800339	-10556	174	3901
12800667	-7488	1019	7574
12800995	-5890	-387	10288
12801323	-3308	-1616	11551
12801651	142	-424	13065
12801979	3574	1012	14261
12802307	5182	1249	15120
12802635	6978	1017	15527
12802963	8073	791	15732
12803291	7959	882	16022
12803619	6851	420	16571
12803947	4608	-1724	17515
12804275	1919	-4469	18650
12804603	-660	-6339	19111
12804931	-2371	-7556	19321
12805259	-3455	-7952	19459
12805587	-4054	-7658	19178
12805915	-4126	-7298	18556
12806243	-3446	-7453	17817
12806571	-2101	-8254	17344
12806899	-456	-8890	16732
12807227	1825	-8247	15406
12807555	2870	-6256	14764
12807883	3271	-3895	13515
12808211	3604	-3828	12283
12808539	4169	-3754	11608
12808867	4868	-2313	11255
12809195	5404	-1058	10619
12809523	5428	-73	8825
12809851	5441	785	7021
12810179	5338	1807	5425
12810507	4999	2297	4136
12810835	4942	2919	2842
12811163	5182	4129	1356
12811491	4387	4224	-273
12811819	3620	4275	-2300
12812147	2797	4660	-4490
12812475	1318	4624	-6514
12812803	-114	4427	-8354
12813131	-2239	4148	-9384
12813459	-3753	2416	-10820
12813787	-3670	-1245	-10721
12814115	-3294	-1988	-9058
12814443	-3968	-673	-7317
12814771	-4699	-800	-5704
12815099	-4734	-37	-3877
12815427	-5986	2803	-3634
12815755	-7030	5038	-4855
12816083	-5875	5626	-6504
12816411	-2563	3286	-6456
12816739	-90	972	-5694
12817067	-127	793	-5122
12817395	-774	1388	-4466
12817723	-1509	1513	-4179
12818051	-1826	1081	-3648
12818379	-2191	694	-3258
12818707	-2546	803	-3091
12819035	-2297	629	-2918
12819363	-2278	1211	-2797
12819691	-2018	1888	-2824
12820019	-1353	1894	-2929
12820347	-801	1764	-3021
12820675	-207	1622	-3267
12821003	444	1492	-3197
12821331	699	1912	-3096
12821659	803	2223	-3084
12821987	871	2001	-2952
12822315	688	2270	-2676
12822643	592	2574	-2139
12822971	970	3143	-2226
12823299	1899	3223	-2114
12823627	3054	3240	-2355
12823955	3804	3440	-2684
12824283	5190	3849	-2914
12824611	6469	5563	-2714
12824939	7069	6031	-2912
12825267	7249	6398	-2840
12825595	7702	6949	-3180
12825923	8116	7352	-3053
12826251	8236	6639	-3019
12826579	7985	5994	-2885
12826907	8047	4835	-3347
12827235	7851	4812	-3752
12827563	7912	5049	-4156
12827891	8142	4573	-4593
12828219	8507	3750	-4844
12828547	9393	4255	-4993
12828875	10284	5974	-5050
12829203	10450	6844	-5252
12829531	10308	6224	-5580
12829859	9325	5094	-5903
12830187	8279	3977	-6048
12830515	6799	2271	-6012
12830843	5149	1268	-6158
12831171	4500	405	-6553
12831499	4047	335	-7023
12831827	3968	1178	-7339
12832155	3736	964	-7420
12832483	3005	277	-7679
12832811	2031	-958	-7859
12833139	580	-2796	-7912
12833467	-1364	-4752	-7895
12833795	-3380	-6795	-7637
12834123	-4556	-8024	-6976
12834451	-4648	-8409	-6098
12834779	-4094	-8130	-5153
12835107	-2954	-6874	-4253
12835435	-1326	-4665	-3408
12835763	40	-2768	-2719
12836091	1263	-2575	-2131
12836419	2470	-2678	-1420
12836747	3541	-2017	-750
12837075	4548	-1200	-184
12837403	5704	-213	265
12837731	6604	1541	30
12838059	6747	2266	1090
12838387	6155	1728	1303
12838715	5382	190	1473
12839043	4981	-743	1323
12839371	4744	-1009	1258
12839699	4705	-837	1353
12840027	4900	-134	1409
12840355	5000	959	1291
12840683	5256	2343	1091
12841011	4511	3102	991
12841339	3385	2170	1029
12841667	2469	567	994
12841995	1683	-402	1059
12842323	780	-819	1114
12842651	6	-1231	1255
12842979	-836	-1341	1302
12843307	-1296	-1476	1252
12843635	-1464	-1647	1069
12843963	-1460	-1707	771
12844291	-1251	-1786	573
12844619	-775	-1607	399
12844947	-337	-972	278
12845275	-116	-182	236
12845603	-163	190	224
12845931	-391	-25	247
12846259	-411	-278	256
12846587	-373	-302	308
12846915	-78	-61	286
12847243	-45	252	283
12847571	70	563	228
12847899	322	983	137
12848227	459	1031	15
12848555	686	850	-22
12848883	989	1164	-86
12849211	1024	1749	-101
12849539	1082	1808	-102
12849867	984	1338	-67
12850195	997	813	-81
12850523	1077	891	-98
12850851	953	1517	-83
12851179	812	1983	-60
12851507	730	2034	-36
12851835	607	1798	-74
12852163	695	1340	-106
12852491	1058	1176	-115
12852819	1237	1309	-200
12853147	1690	1646	-180
12853475	1840	2109	-51
12853803	1617	1910	2
12854131	1387	1176	103
12854459	1267	694	391
12854787	1340	686	689
12855115	1468	768	902
12855443	1131	236	1117
12855771	710	-1454	1292
12856099	1065	-2403	1408
12856427	1304	-1899	1771
12856755	987	-1929	2378
12857083	1943	-2147	2740
12857411	3529	-676	3205
12857739	4852	319	3742
12858067	6895	-288	3823
12858395	8845	-820	3676
12858723	11127	-49	3714
12859051	13948	1956	3783
12859379	16765	4165	3964
12859707	20087	6481	3885
12860035	23296	9019	3669
12860363	26163	10648	3836
12860691	29666	10582	4440
12861019	31446	10118	5257
12861347	31172	8633	5458
12861675	29766	7228	4244
12862003	27435	8010	1680
12862331	25781	9873	-1143
12862659	24843	11151	-3053
12862987	23864	11155	-3891
12863315	22680	10519	-5090
12863643	20949	9223	-6296
12863971	18761	7264	-7465
12864299	16290	5924	-8135
12864627	13393	5064	-8598
12864955	11050	4218	-8685
12865283	9885	4266	-8812
12865611	9756	5040	-8589
12865939	9823	5181	-8235
12866267	10148	4761	-7848
12866595	10524	4687	-7644
12866923	11232	4729	-7486
12867251	12300	4139	-7123
12867579	13129	3764	-6696
12867907	13582	3356	-6391
12868235	13467	2301	-5798
12868563	12607	1058	-5086
12868891	12074	429	-4350
12869219	11638	348	-3779
12869547	11184	400	-3290
12869875	10749	385	-2859
12870203	10318	742	-2401
12870531	9913	946	-2348
12870859	9837	483	-1708
12871187	9564	781	-2127
12871515	9348	367	-1999
12871843	9072	151	-2140
12872171	8726	250	-1858
12872499	8213	56	-1586
12872827	7853	120	-1459
12873155	7473	408	-1511
12873483	7248	327	-1654
12873811	7895	2364	-2448
12874139	7085	2840	-3454
12874467	6601	3450	-4183
12874795	5719	4442	-3993
12875123	4230	6009	-4359
12875451	3759	7285	-5363
12875779	4914	8139	-5479
12876107	4393	10768	-4533
12876435	3400	13475	-4275
12876763	5718	11801	-4229
12877091	7973	7418	-2864
12877419	9136	6413	-1646
12877747	8623	5668	-1117
12878075	7833	3585	-678
12878403	6036	1770	-539
12878731	3412	1199	-446
12879059	-147	1324	-492
12879387	-3892	2231	-1082
12879715	-7422	6574	-2277
12880043	-9686	11211	-4704
12880371	-9230	6530	-5949
12880699	-8125	139	-4887
12881027	-7255	-1276	-3111
12881355	-5577	-871	-2571
12881683	-3711	-654	-2187
12882011	-2570	139	-2035
12882339	-2045	832	-1750
12882667	-1727	1535	-1658
12882995	-1560	2048	-1354
12883323	-1356	2457	-1232
12883651	-1329	2213	-717
12883979	-1104	1937	-536
12884307	-144	1487	-481
12884635	1056	1429	-452
12884963	1917	2023	-565
12885291	2653	2134	-951
12885619	3206	1826	-1078
12885947	3845	2276	-1139
12886275	4779	3157	-1353
12886603	5695	3262	-1271
12886931	6399	3473	-1552
12887259	7520	4151	-2138
12887587	9535	4455	-2566
12887915	11032	4623	-3045
12888243	11504	5159	-3700
12888571	11354	5482	-4250
12888899	9990	4953	-4339
12889227	8165	4692	-4417
12889555	6041	4716	-4304
12889883	3243	4115	-3564
12890211	-319	3627	-2547
12890539	-3211	3286	-2330
12890867	-4967	2256	-2196
12891195	-5986	1536	-2354
12891523	-6468	2008	-2794
12891851	-6145	2755	-3204
12892179	-5322	2494	-3330
12892507	-4769	2157	-3306
12892835	-4540	2072	-3200
12893163	-4563	2003	-3208
12893491	-4446	1890	-3282
12893819	-4433	1461	-2979
12894147	-4337	1106	-2628
12894475	-4313	1102	-2110
12894803	-4317	1231	-1750
12895131	-3761	895	-1490
12895459	-3008	914	-1433
12895787	-2236	975	-1459
12896115	-1316	792	-1449
12896443	-610	894	-1411
12896771	-201	1363	-1371
12897099	119	1582	-1353
12897427	175	1544	-1155
12897755	156	1751	-974
12898083	639	1694	-1087
12898411	1573	1990	-925
12898739	2446	3066	-952
12899067	3327	3525	-1109
12899395	4252	3856	-1304
12899723	4874	4404	-1551
12900051	5077	4697	-1738
12900379	5395	4614	-1685
12900707	5832	4789	-1777
12901035	6028	5369	-1788
12901363	5970	5643	-1751
12901691	5885	5476	-1676
12902019	5801	5344	-1692
12902347	5815	5300	-1838
12902675	6063	5258	-2085
12903003	6616	5402	-2508
12903331	7464	5890	-3106
12903659	8046	5993	-3565
12903987	8889	6366	-4136
12904315	10026	7184	-4403
12904643	11623	8105	-4508
12904971	13642	8660	-4697
12905299	15307	9623	-5026
12905627	17220	11639	-4893
12905955	18654	13985	-4420
12906283	18896	14477	-4378
12906611	19066	13297	-4675
12906939	19125	12396	-5513
12907267	19117	11851	-6045
12907595	18590	11059	-5910
12907923	17867	10137	-5510
12908251	16975	8842	-4661
12908579	15973	7157	-3776
12908907	14695	5322	-2911
12909235	12494	3339	-2105
12909563	9252	216	-2035
12909891	7250	-1998	-2183
12910219	6960	-2060	-1897
12910547	7158	-863	-1413
12910875	7041	1017	-1105
12911203	6981	1820	-1127
12911531	7158	1190	-1138
12911859	7746	937	-809
12912187	8309	1266	-437
12912515	8693	1353	-180
12912843	8956	1284	-66
12913171	8850	1173	156
12913499	8700	1382	-253
12913827	7997	808	569
12914155	7117	825	936
12914483	6450	1071	925
12914811	5659	1070	989
12915139	4491	661	1112
12915467	3091	-292	1053
12915795	1769	-1172	1024
12916123	763	-1892	1187
12916451	327	-2030	1088
12916779	232	-1847	955
12917107	192	-1628	884
12917435	237	-1481	843
12917763	455	-1308	801
12918091	778	-1104	749
12918419	958	-681	694
12918747	976	-382	653
12919075	969	-197	684
12919403	920	128	699
12919731	777	503	637
12920059	608	730	569
12920387	377	798	390
12920715	109	834	341
12921043	-214	882	240
12921371	-577	824	125
12921699	-1105	641	45
12922027	-1685	330	3
12922355	-2157	-162	-85
12922683	-2542	-229	-274
12923011	-3023	-118	-406
12923339	-3711	-383	-464
12923667	-4239	-829	-550
12923995	-4921	-1124	-567
12924323	-5756	-1438	-537
12924651	-6568	-1936	-584
12924979	-7452	-2507	-527
12925307	-8299	-3233	-360
12925635	-8881	-3881	-167
12925963	-9336	-3944	-82
12926291	-9670	-3857	-95
12926619	-9902	-3863	-135
12926947	-10259	-3767	18
12927275	-10762	-3996	280
12927603	-11375	-4320	574
12927931	-12012	-4779	983
12928259	-12277	-5313	1333
12928587	-12192	-5449	1765
12928915	-12205	-5097	2308
12929243	-12192	-4927	2815
12929571	-11785	-5452	3402
12929899	-10806	-5345	3989
12930227	-9309	-3674	4489
12930555	-8250	-1770	5086
12930883	-7808	-2600	5506
12931211	-6579	-3484	6055
12931539	-4635	-1947	6733
12931867	-2519	558	7182
12932195	-82	2705	7170
12932523	1792	5312	6633
12932851	2195	9292	5839
12933179	2629	13544	5214
12933507	-387	4111	4552
12933835	-4401	-5450	1956
12934163	-8457	-10838	34
12934491	-8946	-11990	2199
12934819	-8114	-9801	4604
12935147	-6577	-4457	5220
12935475	-4542	336	5162
12935803	-2991	2205	3784
12936131	-1865	892	2580
12936459	-1145	-627	2143
12936787	-1093	-718	1757
12937115	-1525	-762	1771
12937443	-1879	-964	1832
12937771	-2187	-1072	1801
12938099	-2521	-1149	1485
12938427	-2660	-1522	1188
12938755	-2765	-1930	934
12939083	-2790	-1889	669
12939411	-2839	-1895	6
12939739	-2907	-1524	-202
12940067	-2599	-1525	-682
12940395	-2300	-1124	-661
12940723	-1708	-689	-647
12941051	-904	-302	-842
12941379	-399	-392	-1250
12941707	-142	-1106	-1520
12942035	204	-1441	-1602
12942363	166	-938	-1547
12942691	-847	-332	-1254
12943019	-2479	-722	-961
12943347	-3781	-1632	-813
12943675	-5126	-2445	-775
12944003	-6097	-3459	-951
12944331	-6118	-3950	-1129
12944659	-5757	-3443	-1600
12944987	-5391	-2998	-2123
12945315	-5134	-3104	-2354
12945643	-5133	-3268	-2369
12945971	-5128	-3538	-2184
12946299	-4587	-3812	-2269
12946627	-3770	-3447	-2251
12946955	-3329	-3356	-2222
12947283	-2630	-3154	-2292
12947611	-2092	-2741	-2521
12947939	-2020	-2779	-2671
12948267	-2366	-3762	-2867
12948595	-3041	-4937	-3002
12948923	-3854	-5461	-3198
12949251	-4725	-5603	-2970
12949579	-5943	-5272	-2477
12949907	-7055	-4981	-2088
12950235	-7288	-4655	-1715
12950563	-6808	-3936	-1760
12950891	-6262	-3378	-2010
12951219	-5805	-3758	-2552
12951547	-5034	-4572	-3252
12951875	-3235	-4421	-3563
12952203	-1507	-2665	-3805
12952531	-708	-1507	-3816
12952859	-557	-2111	-4120
12953187	-853	-3613	-4357
12953515	-1480	-4057	-4254
12953843	-2548	-4282	-3888
12954171	-3704	-5206	-3783
12954499	-4392	-6215	-3716
12954827	-4433	-6880	-3904
12955155	-4450	-7656	-4054
12955483	-3734	-7888	-4102
12955811	-2605	-7206	-3933
12956139	-1699	-5990	-3544
12956467	-912	-5202	-2890
12956795	-221	-5000	-2260
12957123	228	-5237	-1787
12957451	526	-5182	-1360
12957779	809	-4534	-895
12958107	952	-3914	-393
12958435	1034	-3871	-21
12958763	1265	-4055	135
12959091	1571	-4332	137
12959419	1765	-4601	40
12959747	1705	-5026	-119
12960075	1288	-5720	-469
12960403	647	-6250	-927
12960731	-285	-7184	-1341
12961059	-1912	-8181	-2162
12961387	-3360	-9258	-3156
12961715	-5004	-10790	-3812
12962043	-7069	-13126	-4388
12962371	-8647	-15415	-4780
12962699	-9190	-16182	-5294
12963027	-9997	-16106	-5299
12963355	-9660	-15215	-5325
12963683	-9025	-14271	-4587
12964011	-11552	-12329	-4172
12964339	-7084	-11402	-5344
12964667	-11651	-8712	-4833
12964995	-17110	-10359	-3426
12965323	-19398	-11451	-2383
12965651	-19759	-8690	-1584
12965979	-19336	-6485	-1238
12966307	-17882	-5478	217
12966635	-16421	-3573	2238
12966963	-13825	-2869	4328
12967291	-9102	-4833	5127
12967619	-4611	-5148	6029
12967947	-1465	-4343	7026
12968275	649	-4117	8199
12968603	2393	-4409	9477
12968931	2939	-5261	11069
12969259	2819	-6165	12764
12969587	2546	-6110	14341
12969915	1419	-6488	15968
12970243	-173	-7639	17193
12970571	-1793	-8782	18265
12970899	-3246	-9471	19259
12971227	-4218	-9784	19870
12971555	-4442	-9907	20377
12971883	-4433	-10182	20850
12972211	-4176	-10436	21042
12972539	-3631	-10586	21063
12972867	-2884	-11004	21375
12973195	-1976	-10994	21456
12973523	-1022	-10444	21388
12973851	-596	-10286	21131
12974179	-581	-10398	20374
12974507	-924	-11738	20255
12974835	-1052	-13308	20722
12975163	-2367	-13231	19642
12975491	-1962	-11764	17827
12975819	-2340	-10361	16746
12976147	-2818	-8121	14144
12976475	-3065	-5468	11560
12976803	-3495	-4906	8630
12977131	-3349	-5409	6153
12977459	-3370	-4257	3861
12977787	-4069	-3927	1484
12978115	-5400	-3052	-344
12978443	-6330	-1737	-2159
12978771	-5730	18	-3654
12979099	-4168	6707	-5605
12979427	-7486	12182	-10288
12979755	-10999	9829	-10686
12980083	-8875	9878	-11321
12980411	-6173	8833	-10506
12980739	-3611	8802	-8488
12981067	-2531	14684	-7202
12981395	-1222	14594	-5736
12981723	-5590	-6605	-6641
12982051	-3123	-9471	-2790
12982379	-3750	-1165	-3711
12982707	-4166	2036	-3375
12983035	-5034	2401	-3216
12983363	-6768	5934	-2693
12983691	-7074	8475	-3167
12984019	-6147	8159	-3579
12984347	-4553	6043	-4095
12984675	-3127	4495	-4596
12985003	-1498	3594	-3718
12985331	-422	3455	-3382
12985659	-179	3007	-2852
12985987	-475	2146	-2544
12986315	-1060	1479	-2175
12986643	-1725	1533	-1869
12986971	-2547	1151	-1901
12987299	-2987	192	-1752
12987627	-3039	130	-1621
12987955	-2865	739	-1539
12988283	-2474	801	-1633
12988611	-1985	514	-1592
12988939	-1557	196	-1650
12989267	-1503	36	-1497
12989595	-1524	-131	-1346
12989923	-1578	-362	-1204
12990251	-1434	-266	-1015
12990579	-1194	231	-810
12990907	-773	606	-607
12991235	-413	461	-638
12991563	-15	157	-527
12991891	276	-83	-464
12992219	294	-35	-416
12992547	202	-22	-199
12992875	247	-502	18
12993203	355	-952	184
12993531	365	-818	353
12993859	550	-681	451
12994187	796	-909	609
12994515	899	-1183	755
12994843	970	-1418	803
12995171	930	-1708	995
12995499	974	-2023	1129
12995827	1279	-2273	1270
12996155	1420	-2437	1536
12996483	1395	-2646	1720
12996811	1439	-3169	2075
12997139	1538	-3353	2493
12997467	1600	-3406	2816
12997795	1560	-3623	3206
12998123	1726	-3698	3537
12998451	2096	-3572	3855
12998779	2615	-3185	4263
12999107	3206	-2836	4648
12999435	4098	-2389	4961
12999763	5133	-1573	5274
13000091	6260	-1016	5588
13000419	7377	-869	5804
13000747	8303	-829	6198
13001075	9822	-646	6340
13001403	11270	-310	6245
13001731	12890	246	6125
13002059	14427	714	6173
13002387	15873	1275	6107
13002715	17087	1367	5662
13003043	19368	1232	5473
13003371	22106	1630	5963
13003699	22357	1141	5825
13004027	19111	769	4027
13004355	15656	1185	1663
13004683	13480	1159	-1124
13005011	12392	913	-2250
13005339	12361	1058	-3024
13005667	11841	304	-3212
13005995	10365	-1453	-3665
13006323	9339	-2822	-4106
13006651	8731	-3848	-4899
13006979	7327	-5197	-5496
13007307	4729	-7216	-5566
13007635	1199	-9434	-5212
13007963	-1016	-8843	-5344
13008291	-2197	-7006	-5256
13008619	-2081	-5120	-5187
13008947	-1372	-3782	-5544
13009275	-129	-3671	-5812
13009603	1022	-4123	-6117
13009931	2143	-3890	-6247
13010259	3755	-3158	-6283
13010587	5632	-2398	-6101
13010915	7104	-1437	-5842
13011243	7765	-795	-5376
13011571	8082	-447	-5134
13011899	8485	-369	-5112
13012227	8846	-163	-4954
13012555	9358	465	-4783
13012883	9435	60	-4511
13013211	8946	-65	-4326
13013539	8078	-209	-4237
13013867	7301	-438	-4174
13014195	6153	-986	-4231
13014523	4047	-1018	-4401
13014851	636	-1508	-4404
13015179	-731	-1004	-4081
13015507	755	2131	-3092
13015835	628	5739	-1713
13016163	-1700	6189	-577
13016491	-2019	10257	-485
13016819	-1236	11893	-2077
13017147	2295	7511	-2633
13017475	5002	5098	-2485
13017803	5183	3565	-3186
13018131	4449	241	-3248
13018459	4147	-3928	-2413
13018787	2767	-4513	-2026
13019115	236	-486	-1476
13019443	-4344	2042	-1959
13019771	-9011	14564	-4091
13020099	-10668	28591	-5937
13020427	-8047	9837	-7333
13020755	-6396	-9278	-4673
13021083	-3863	-9194	-3492
13021411	-3115	-2847	-3562
13021739	-3109	1647	-2878
13022067	-1912	2071	-1772
13022395	-272	3597	-1413
13022723	-89	7201	-2278
13023051	-340	6982	-2921
13023379	-691	3766	-3824
13023707	-315	1953	-4396
13024035	785	1723	-4310
13024363	1901	1997	-3968
13024691	3079	3139	-4009
13025019	3361	3801	-3651
13025347	4105	4573	-3688
13025675	5134	5248	-3821
13026003	5827	5785	-4032
13026331	5545	6494	-4360
13026659	4501	6796	-4121
13026987	1743	6737	-3710
13027315	-1100	5461	-3492
13027643	-3310	3077	-3023
13027971	-5296	1673	-2611
13028299	-5966	2255	-2520
13028627	-5968	3153	-2518
13028955	-5188	3244	-2704
13029283	-4394	3132	-2782
13029611	-3568	3181	-3026
13029939	-2898	2770	-3120
13030267	-2572	2521	-3060
13030595	-2212	2355	-2736
13030923	-2187	2070	-2231
13031251	-2378	1617	-1874
13031579	-2533	1125	-1604
13031907	-2776	609	-1403
13032235	-2927	336	-1347
13032563	-2857	405	-1356
13032891	-2673	477	-1363
13033219	-2188	650	-1445
13033547	-1620	1237	-1543
13033875	-1073	1567	-1558
13034203	-375	1772	-1790
13034531	304	2304	-2076
13034859	832	2609	-2098
13035187	1340	2615	-2065
13035515	1997	2939	-1933
13035843	2294	3741	-1766
13036171	2596	4576	-1655
13036499	3660	4161	-1360
13036827	4147	4181	-1274
13037155	4621	5447	-1197
13037483	5283	6494	-1006
13037811	5837	6791	-582
13038139	6838	7264	-71
13038467	8116	7873	-436
13038795	9274	8595	-29
13039123	10160	9523	135
13039451	11103	10294	-524
13039779	11779	10022	-926
13040107	12591	9971	-753
13040435	13179	10879	-207
13040763	13680	11584	275
13041091	14912	11912	550
13041419	16684	12936	347
13041747	18417	14578	-251
13042075	19224	16227	-1211
13042403	19009	16587	-1949
13042731	17710	16115	-2441
13043059	15642	13895	-2669
13043387	13047	10818	-2905
13043715	10861	8168	-3065
13044043	8802	5877	-3213
13044371	7927	4628	-3520
13044699	7377	3777	-3812
13045027	6667	2576	-4094
13045355	5728	392	-4553
13045683	4353	-1933	-4818
13046011	3087	-3245	-5127
13046339	2007	-4351	-5255
13046667	910	-5319	-5300
13046995	70	-6267	-5380
13047323	-108	-7726	-5376
13047651	28	-7954	-5187
13047979	561	-6785	-5045
13048307	1020	-5994	-4917
13048635	1095	-5879	-4972
13048963	305	-6550	-4922
13049291	-1244	-8051	-5017
13049619	-3027	-9424	-5185
13049947	-4432	-10243	-5449
13050275	-5211	-10354	-5944
13050603	-4862	-9052	-6443
13050931	-5090	-9185	-7079
13051259	-5111	-10236	-7781
13051587	-5463	-11942	-7982
13051915	-7223	-11604	-7960
13052243	-7865	-10778	-7936
13052571	-9256	-11415	-7594
13052899	-5803	-7506	-5585
13053227	-10334	-6792	-5288
13053555	-15282	-8912	-5568
13053883	-16968	-5936	-4176
13054211	-19299	-5416	-2307
13054539	-18218	-5596	642
13054867	-15596	-6051	4306
13055195	-13142	-6618	7063
13055523	-9741	-5096	8691
13055851	-5745	-2747	10140
13056179	-542	-1829	12018
13056507	4567	-2479	13741
13056835	7615	-2067	14965
13057163	8686	-1130	16491
13057491	8268	-778	17854
13057819	7175	-1907	19504
13058147	5866	-3825	20863
13058475	4506	-6203	22093
13058803	2829	-6896	22550
13059131	1080	-6532	22709
13059459	-10	-6255	22859
13059787	-595	-6359	22876
13060115	-688	-6966	23175
13060443	-468	-6958	23018
13060771	221	-6274	22004
13061099	1732	-6109	20210
13061427	3913	-7075	19533
13061755	5962	-7342	18996
13062083	5895	-7552	18633
13062411	4432	-8086	18292
13062739	2431	-6675	15771
13063067	-181	-6020	15251
13063395	-2909	-5359	12219
13063723	-3021	-3019	10105
13064051	-2884	-680	7746
13064379	-2598	598	4959
13064707	-2324	1324	2383
13065035	-2216	2601	-147
13065363	-1425	3305	-2383
13065691	146	3250	-3860
13066019	976	3660	-5378
13066347	-79	5590	-6933
13066675	-1674	6239	-9879
13067003	-3090	6224	-13204
13067331	-3096	5596	-13336
13067659	-2112	3951	-11037
13067987	-1234	2241	-8287
13068315	-2128	169	-7069
13068643	-4718	-2273	-7998
13068971	-7759	-2952	-7290
13069299	-10792	-234	-6796
13069627	-11889	554	-7017
13069955	-9810	2026	-6079
13070283	-7849	3000	-4213
13070611	-5292	3256	-3765
13070939	-2785	3887	-4695
13071267	187	5409	-6748
13071595	1933	5900	-6693
13071923	2994	6629	-6916
13072251	3036	6425	-6131
13072579	2177	5624	-4761
13072907	662	4585	-3728
13073235	181	3721	-3256
13073563	-229	2913	-3347
13073891	188	3633	-3274
13074219	1069	4379	-3083
13074547	2041	4959	-3072
13074875	2752	5736	-3167
13075203	3014	5783	-2999
13075531	2916	5472	-2710
13075859	2840	5660	-2542
13076187	2824	5614	-2439
13076515	2771	5572	-2344
13076843	2841	5197	-2013
13077171	3178	4816	-1842
13077499	3922	5434	-1763
13077827	4957	6002	-1490
13078155	5796	6822	-1197
13078483	6830	7306	-956
13078811	7879	7712	-913
13079139	8837	8177	-767
13079467	9933	8642	-657
13079795	10773	9266	-626
13080123	11286	9322	-157
13080451	11683	9213	-19
13080779	12162	9556	379
13081107	12891	10604	702
13081435	13863	11608	1039
13081763	14965	12447	1004
13082091	15978	13025	979
13082419	16927	13020	1033
13082747	18015	12543	1356
13083075	19149	12110	1859
13083403	20446	11808	2277
13083731	22403	11541	2441
13084059	23739	12812	2057
13084387	24729	15520	1679
13084715	25020	18655	1310
13085043	25026	21836	901
13085371	24666	23320	1149
13085699	23509	21061	1551
13086027	22496	18348	2265
13086355	21744	16222	3177
13086683	21083	14104	4082
13087011	20797	12080	5104
13087339	20759	11629	5990
13087667	20816	12312	6025
13087995	20740	13908	4996
13088323	19743	14523	4568
13088651	17866	12827	4599
13088979	15785	9153	5330
13089307	13639	8100	5484
13089635	10954	6321	6071
13089963	8192	4974	6411
13090291	6518	4240	6614
13090619	5406	3693	6699
13090947	4666	3355	6660
13091275	4686	3253	6280
13091603	4935	3550	5673
13091931	5105	3765	4345
13092259	5003	3603	2853
13092587	4507	1378	1852
13092915	2851	-2043	1596
13093243	1134	-3585	1886
13093571	-158	-3639	2174
13093899	-611	-2949	2019
13094227	-472	-1619	1371
13094555	-300	-1078	542
13094883	-480	-2474	2
13095211	-653	-3406	-324
13095539	-653	-3543	-473
13095867	-1183	-3991	-190
13096195	-1720	-4587	32
13096523	-2113	-4741	154
13096851	-2427	-4697	263
13097179	-2395	-4426	296
13097507	-1975	-3977	239
13097835	-937	-2988	37
13098163	-719	-2917	-11
13098491	-655	-3316	79
13098819	-628	-3582	229
13099147	-541	-3394	415
13099475	-484	-2621	445
13099803	-275	-1951	461
13100131	-75	-1586	386
13100459	106	-1402	324
13100787	312	-1417	249
13101115	384	-1447	262
13101443	299	-1268	249
13101771	206	-1075	232
13102099	-114	-897	245
13102427	-344	-725	319
13102755	-531	-422	461
13103083	-237	498	456
13103411	-78	1248	350
13103739	-48	1658	278
13104067	-7	1828	196
13104395	137	1750	147
13104723	575	1988	149
13105051	951	2783	142
13105379	952	3139	234
13105707	682	2099	376
13106035	338	1815	378
13106363	160	2263	565
13106691	117	2772	685
13107019	98	2628	800
13107347	-87	2066	744
13107675	13	1381	695
13108003	55	778	836
13108331	-97	414	950
13108659	-272	234	1070
13108987	-298	-155	1253
13109315	-257	-558	1358
13109643	-414	-803	1375
13109971	-710	-1167	1396
13110299	-855	-1682	1463
13110627	-935	-1899	1602
13110955	-969	-2451	1746
13111283	-929	-3059	1862
13111611	-746	-2857	1876
13111939	-324	-2475	1858
13112267	-102	-2586	1983
13112595	63	-2806	2115
13112923	346	-2935	2281
13113251	643	-2712	2375
13113579	817	-2389	2423
13113907	1159	-2395	2566
13114235	1730	-1997	2615
13114563	2654	-1350	2652
13114891	3444	-883	2325
13115219	4017	-533	2331
13115547	4659	-140	2455
13115875	5013	322	2416
13116203	5273	888	2545
13116531	6068	1224	2613
13116859	6843	1777	2686
13117187	7528	2663	2857
13117515	8370	3250	2920
13117843	9096	2748	2888
13118171	9930	1979	2964
13118499	10577	1706	2898
13118827	10960	1719	2957
13119155	11225	1498	3095
13119483	11754	926	3085
13119811	11881	97	3125
13120139	12072	-605	3264
13120467	12822	-671	3456
13120795	14336	134	3608
13121123	12367	198	3764
13121451	10621	-922	4686
13121779	9507	-1753	4522
13122107	8802	-536	3700
13122435	7880	727	2368
13122763	7168	685	821
13123091	6321	173	-140
13123419	5803	-655	-629
13123747	6006	-1564	-815
13124075	6649	-2170	-702
13124403	7063	-2701	-856
13124731	6688	-3252	-1056
13125059	5766	-3893	-1113
13125387	4567	-4522	-1400
13125715	3445	-4852	-1513
13126043	2488	-5203	-1406
13126371	1300	-5462	-1253
13126699	168	-5425	-1120
13127027	-877	-5190	-1365
13127355	-1582	-5126	-1526
13127683	-2008	-4881	-1743
13128011	-2159	-4635	-1977
13128339	-2037	-4370	-2207
13128667	-1751	-4163	-2428
13128995	-1324	-4197	-2472
13129323	-936	-4291	-2343
13129651	-444	-4123	-2103
13129979	119	-3507	-1827
13130307	522	-3330	-1580
13130635	811	-3386	-1319
13130963	1050	-2998	-1109
13131291	1504	-2624	-1054
13131619	1869	-2676	-1019
13131947	2020	-2110	-992
13132275	2501	-1441	-912
13132603	3241	-1046	-991
13132931	3606	-560	-1127
13133259	3487	-14	-1246
13133587	3691	401	-1417
13133915	3834	601	-1458
13134243	3769	774	-1549
13134571	3254	646	-1572
13134899	2766	265	-1654
13135227	2409	388	-1770
13135555	2000	805	-1974
13135883	1892	1512	-2352
13136211	2104	2303	-2743
13136539	2229	3589	-3509
13136867	2133	5036	-4997
13137195	1571	6150	-6475
13137523	2633	7874	-7818
13137851	5082	9060	-8316
13138179	6773	10424	-7678
13138507	11204	10901	-5894
13138835	8793	11778	-3880
13139163	8231	10376	-3071
13139491	8713	9062	-2394
13139819	8431	8663	-1980
13140147	5466	7851	-2064
13140475	2026	11113	-3968
13140803	-2980	-3152	-5871
13141131	-1248	-11592	-1500
13141459	-1727	-123	292
13141787	-4641	4179	1755
13142115	-4931	2146	875
13142443	-5026	2218	521
13142771	-5363	5793	-1394
13143099	-4471	8372	-2791
13143427	-1327	7114	-2933
13143755	1155	3655	-2407
13144083	2227	2454	-1934
13144411	1621	2451	-1656
13144739	609	2061	-1304
13145067	-73	1699	-723
13145395	-620	1763	-425
13145723	-1321	1612	-372
13146051	-1727	1742	-354
13146379	-1569	2186	-557
13146707	-1427	1818	-740
13147035	-1114	798	-819
13147363	-710	-23	-892
13147691	-253	-437	-894
13148019	-44	-815	-783
13148347	85	-1024	-549
13148675	-32	-752	-365
13149003	-445	-380	-202
13149331	-784	73	35
13149659	-403	524	240
13149987	186	1120	232
13150315	809	1614	182
13150643	1721	1880	-31
13150971	2813	2339	275
13151299	4199	2739	469
13151627	5048	3444	967
13151955	5805	4170	1467
13152283	6432	4616	1689
13152611	6471	5190	1576
13152939	6213	5287	1277
13153267	5586	4675	879
13153595	4267	3401	695
13153923	2681	2210	474
13154251	892	1218	205
13154579	-1149	311	-204
13154907	-2683	-398	-818
13155235	-3520	-345	-1242
13155563	-3994	1151	-1595
13155891	-3847	2781	-1911
13156219	-3552	3136	-2081
13156547	-2576	2279	-1846
13156875	-1494	1529	-1639
13157203	-712	1074	-1726
13157531	-311	1260	-1909
13157859	-375	1889	-2132
13158187	-541	2317	-2372
13158515	-919	2380	-2536
13158843	-1518	2556	-2519
13159171	-2186	3093	-2600
13159499	-2785	2735	-2537
13159827	-3183	2705	-2548
13160155	-3309	2915	-2655
13160483	-3316	2906	-2702
13160811	-3197	3071	-2909
13161139	-2804	3170	-3111
13161467	-2430	3417	-3258
13161795	-2136	3909	-3418
13162123	-2058	3715	-3375
13162451	-2223	3117	-3347
13162779	-2471	2562	-3093
13163107	-2727	2315	-2762
13163435	-2820	1712	-2442
13163763	-2736	959	-2120
13164091	-2346	484	-1859
13164419	-1976	609	-1770
13164747	-1333	1064	-1705
13165075	-752	1767	-1639
13165403	-477	2090	-1572
13165731	-262	1800	-1486
13166059	-101	1739	-1227
13166387	192	2079	-1063
13166715	590	2515	-1018
13167043	938	2804	-965
13167371	1269	2855	-751
13167699	1592	2550	-571
13168027	1870	2772	-645
13168355	1884	2946	-475
13168683	2284	2648	-428
13169011	3067	3223	-566
13169339	3772	4140	-317
13169667	4231	3822	7
13169995	4786	3855	201
13170323	5609	4434	367
13170651	6245	5026	583
13170979	6850	5528	845
13171307	7645	5742	1082
13171635	8509	6193	1150
13171963	9527	6892	1250
13172291	10689	7650	1073
13172619	11369	7831	674
13172947	12142	7683	307
13173275	13237	7340	76
13173603	13669	6722	94
13173931	14676	7572	904
13174259	16035	8915	1744
13174587	18411	11207	2719
13174915	21272	14075	3781
13175243	24248	16106	4373
13175571	26728	16571	4622
13175899	27750	16739	3948
13176227	27066	16044	2806
13176555	24981	14098	1029
13176883	21529	11643	-532
13177211	17186	9296	-1473
13177539	12701	6566	-1596
13177867	8906	4955	-1315
13178195	6052	3751	-1038
13178523	4550	3149	-1059
13178851	4203	3188	-923
13179179	4909	3749	-886
13179507	6439	4336	-619
13179835	8159	5150	-625
13180163	10068	5956	-820
13180491	10902	6336	-832
13180819	10886	6317	-663
13181147	10444	6021	-583
13181475	9795	5243	-389
13181803	8893	4925	-323
13182131	7769	4327	-484
13182459	6683	3240	-694
13182787	5870	2423	-994
13183115	5130	1521	-1364
13183443	4215	160	-1531
13183771	3143	-747	-1569
13184099	2984	-1676	-1441
13184427	2857	-2325	-1432
13184755	3080	-2183	-1477
13185083	3909	-1963	-1574
13185411	4918	-1735	-1740
13185739	5401	-1155	-1781
13186067	5760	-1176	-1656
13186395	6179	-1143	-1573
13186723	6667	-795	-1322
13187051	6841	-341	-1104
13187379	6617	-336	-783
13187707	6211	-723	-468
13188035	5901	-877	-6
13188363	5784	-683	293
13188691	6115	-461	552
13189019	6345	-416	777
13189347	6164	-781	1090
13189675	6391	-711	1396
13190003	6605	-473	1557
13190331	7014	477	1609
13190659	7316	2005	1574
13190987	7196	2836	1440
13191315	6496	1412	1195
13191643	5706	-225	970
13191971	4955	-1358	1021
13192299	4087	-2557	1028
13192627	3203	-3324	1127
13192955	2364	-3777	1260
13193283	2096	-3443	1229
13193611	2410	-2114	1140
13193939	2781	-559	1022
13194267	2903	-142	904
13194595	2875	-391	741
13194923	2905	-248	682
13195251	3005	-307	747
13195579	2777	-608	681
13195907	2402	-947	552
13196235	2004	-1270	502
13196563	1663	-1391	492
13196891	1565	-957	489
13197219	1499	-578	449
13197547	1157	-664	505
13197875	895	-635	546
13198203	800	-374	522
13198531	774	-417	507
13198859	615	-812	482
13199187	329	-1051	487
13199515	97	-892	489
13199843	-62	-679	584
13200171	-504	-693	700
13200499	-938	-728	792
13200827	-1474	-682	821
13201155	-1899	-694	853
13201483	-2378	-825	954
13201811	-2821	-946	960
13202139	-2980	-1151	952
13202467	-3083	-1248	967
13202795	-3200	-1272	904
13203123	-3328	-1450	792
13203451	-3029	-1305	762
13203779	-2431	-777	580
13204107	-2158	-690	398
13204435	-2137	-859	247
13204763	-2318	-969	130
13205091	-2555	-1036	140
13205419	-2356	-677	342
13205747	-2112	-181	551
13206075	-2244	-73	598
13206403	-2414	-341	596
13206731	-2308	-258	676
13207059	-2302	461	769
13207387	-2714	991	1045
13207715	-3164	1278	1219
13208043	-3954	1474	1584
13208371	-5247	1181	1855
13208699	-6259	666	1864
13209027	-6772	-3	1976
13209355	-7239	-845	2053
13209683	-6887	-382	1963
13210011	-6673	1242	1799
13210339	-7048	1550	1580
13210667	-7148	290	1304
13210995	-6889	-99	1064
13211323	-7480	-219	1298
13211651	-7961	-828	1218
13211979	-7603	-344	1024
13212307	-7908	-90	1434
13212635	-8823	-1572	1282
13212963	-8796	-2098	927
13213291	-8252	-1326	908
13213619	-7807	-409	1020
13213947	-6721	271	1463
13214275	-4713	308	1794
13214603	-2971	881	2000
13214931	-844	1676	1614
13215259	1250	2129	1052
13215587	2930	2889	913
13215915	3806	3994	1449
13216243	3702	4386	1870
13216571	2956	3708	2162
13216899	1851	3413	2230
13217227	544	2435	2021
13217555	-412	909	1903
13217883	-848	963	1885
13218211	-852	1786	1815
13218539	-947	1592	1855
13218867	-451	1498	1476
13219195	-122	1029	1174
13219523	-12	301	899
13219851	-92	108	768
13220179	-611	116	803
13220507	-1413	-434	823
13220835	-1988	-1294	795
13221163	-2543	-1505	743
13221491	-3073	-1700	693
13221819	-3553	-2117	609
13222147	-3843	-2575	661
13222475	-4086	-2601	739
13222803	-4266	-2440	796
13223131	-4315	-2408	778
13223459	-4309	-2719	656
13223787	-4380	-2953	578
13224115	-4518	-2788	579
13224443	-4910	-2697	574
13224771	-5642	-2910	576
13225099	-6734	-3209	670
13225427	-7868	-3546	850
13225755	-8745	-4084	970
13226083	-9326	-4436	962
13226411	-9800	-4414	935
13226739	-9940	-4317	877
13227067	-9688	-4206	731
13227395	-9147	-4105	443
13227723	-8258	-4176	145
13228051	-8175	-4317	-264
13228379	-8133	-4289	-739
13228707	-8207	-4246	-862
13229035	-8334	-4517	-720
13229363	-8825	-4857	-643
13229691	-9244	-5258	-657
13230019	-9236	-5528	-700
13230347	-8643	-5668	-779
13230675	-7840	-5433	-1015
13231003	-7280	-5038	-1233
13231331	-7012	-4744	-1374
13231659	-6443	-4401	-1347
13231987	-5806	-4315	-1246
13232315	-5312	-4430	-1411
13232643	-5120	-4437	-1738
13232971	-4894	-4280	-1977
13233299	-4129	-4490	-1942
13233627	-3307	-4413	-1930
13233955	-2346	-3553	-1990
13234283	-1209	-2756	-2153
13234611	-394	-2520	-2285
13234939	360	-2029	-2473
13235267	759	-1741	-2082
13235595	1046	-1292	-1693
13235923	1440	-645	-1607
13236251	1916	-292	-1649
13236579	2007	-441	-1854
13236907	1643	-994	-1863
13237235	1280	-1468	-1815
13237563	959	-1658	-1676
13237891	602	-1907	-1564
13238219	438	-2411	-1504
13238547	467	-2781	-1566
13238875	523	-2910	-1689
13239203	666	-2715	-1809
13239531	1493	-2281	-1956
13239859	2437	-1955	-1960
13240187	3125	-1499	-1990
13240515	3217	-1682	-1902
13240843	3119	-1815	-1929
13241171	3097	-1802	-2021
13241499	2989	-2128	-1948
13241827	2650	-2188	-1943
13242155	2751	-1866	-2043
13242483	3210	-2324	-2187
13242811	3412	-3193	-2348
13243139	3356	-3698	-2278
13243467	3177	-3879	-2009
13243795	2804	-3955	-1779
13244123	2386	-4305	-1612
13244451	2116	-4584	-1375
13244779	2006	-4554	-1073
13245107	1968	-4863	-877
13245435	1999	-6038	-792
13245763	2029	-6518	-783
13246091	2017	-6659	-620
13246419	1651	-7319	-644
13246747	922	-7117	-819
13247075	-78	-4996	-995
13247403	-560	-3018	-1665
13247731	-1086	-3181	-2172
13248059	-2242	-6367	-2244
13248387	-2771	-9307	-2268
13248715	-2616	-10006	-2512
13249043	-2816	-8635	-2394
13249371	-2860	-7961	-1839
13249699	-2756	-9212	-1211
13250027	3737	-8919	-364
13250355	-572	-8047	234
13250683	-2127	-7314	644
13251011	-2753	-7911	1115
13251339	-3992	-8268	1641
13251667	-7141	-7890	2085
13251995	-11296	-6924	1422
13252323	-14801	-5093	-186
13252651	-15710	-2434	-556
13252979	-16252	140	-31
13253307	-16301	1446	1697
13253635	-15899	2497	3019
13253963	-14721	2964	3251
13254291	-13208	3274	3907
13254619	-11615	3411	4904
13254947	-10389	3400	5958
13255275	-8792	3752	6539
13255603	-7091	4262	7252
13255931	-7383	4375	8251
13256259	-8434	4771	9221
13256587	-9856	4373	10278
13256915	-11350	2913	11175
13257243	-12882	352	12012
13257571	-14469	-2316	13163
13257899	-15897	-4203	13952
13258227	-16874	-6301	14719
13258555	-17493	-8788	15528
13258883	-16889	-10688	15587
13259211	-15769	-11674	15038
13259539	-14311	-12642	14376
13259867	-12376	-14089	14032
13260195	-10902	-15085	13587
13260523	-9236	-15270	12991
13260851	-8770	-15354	12519
13261179	-8058	-15019	11888
13261507	-8367	-15250	12068
13261835	-8403	-14644	12679
13262163	-10699	-12655	11047
13262491	-11155	-16381	12770
13262819	-12083	-15939	12785
13263147	-12850	-14702	12901
13263475	-13934	-13387	13088
13263803	-14783	-13167	12443
13264131	-14780	-13658	12109
13264459	-13858	-13472	11778
13264787	-13259	-12322	11316
13265115	-12148	-11466	10492
13265443	-10955	-10352	9517
13265771	-9620	-9555	8636
13266099	-7963	-8270	7988
13266427	-5897	-6932	6879
13266755	-4045	-5594	5600
13267083	-2374	-4443	4594
13267411	-1427	-3064	3912
13267739	-1206	-1957	2866
13268067	-1675	-798	1470
13268395	-2368	1308	-179
13268723	-3652	3449	-1832
13269051	-4176	4697	-3546
13269379	-2779	5087	-4686
13269707	-2516	6936	-5312
13270035	-2638	9819	-5989
13270363	-2206	9769	-6358
13270691	-1815	9650	-7434
13271019	-2002	9916	-8093
13271347	-2200	10053	-8668
13271675	-3072	12205	-6958
13272003	-2527	15942	-5638
13272331	-6089	2345	-5029
13272659	-7265	-6775	-5578
13272987	-6296	-8136	-3221
13273315	-6006	-4136	-2031
13273643	-5825	194	-1959
13273971	-6257	1840	-1339
13274299	-5915	3918	-2415
13274627	-6343	7810	-2812
13274955	-6083	10973	-3793
13275283	-4392	10897	-4489
13275611	-2869	8175	-4145
13275939	-2229	5721	-3918
13276267	-2225	3805	-3370
13276595	-2125	2101	-3340
13276923	-1839	1535	-3381
13277251	-1988	2050	-2887
13277579	-2341	2182	-2713
13277907	-2415	2357	-2693
13278235	-2467	2791	-2743
13278563	-2592	2450	-2719
13278891	-2709	1620	-2611
13279219	-2426	1570	-2462
13279547	-2101	1317	-2370
13279875	-2038	882	-2248
13280203	-1924	730	-2027
13280531	-1895	853	-1884
13280859	-1942	819	-1704
13281187	-2033	550	-1504
13281515	-2005	291	-1361
13281843	-1766	596	-1236
13282171	-1449	800	-1034
13282499	-1520	401	-886
13282827	-1607	501	-781
13283155	-1468	1023	-648
13283483	-1189	1218	-540
13283811	-991	1077	-476
13284139	-704	1309	-470
13284467	-471	1184	-247
13284795	-362	1080	-144
13285123	-208	1241	-52
13285451	-349	915	3
13285779	-262	878	99
13286107	-77	959	149
13286435	-42	842	123
13286763	175	788	104
13287091	454	991	84
13287419	486	915	35
13287747	289	496	134
13288075	-27	5	325
13288403	-369	-446	504
13288731	-523	-103	656
13289059	-635	349	783
13289387	-748	54	695
13289715	-767	-242	588
13290043	-540	-182	561
13290371	-455	-37	617
13290699	-282	-162	681
13291027	-40	-216	697
13291355	158	-358	703
13291683	394	-777	717
13292011	657	-1218	738
13292339	1123	-679	806
13292667	1733	530	988
13292995	1730	286	1075
13293323	1709	-785	979
13293651	1883	-900	902
13293979	2127	-349	985
13294307	2259	-621	1139
13294635	2234	-956	1298
13294963	2254	-806	1449
13295291	2404	-765	1628
13295619	2550	-815	1754
13295947	2716	-1075	1766
13296275	2799	-1765	1802
13296603	2737	-1899	1897
13296931	2823	-1589	2084
13297259	2841	-1890	2252
13297587	2955	-2263	2350
13297915	3297	-2279	2438
13298243	3787	-2537	2488
13298571	4439	-2958	2486
13298899	5369	-3699	2389
13299227	6017	-4431	2371
13299555	6333	-4384	2512
13299883	6610	-4625	2810
13300211	6414	-5166	3231
13300539	6044	-5541	3692
13300867	5417	-5640	4137
13301195	4953	-5363	4452
13301523	4741	-5221	4686
13301851	4513	-5260	4872
13302179	4097	-5222	4986
13302507	4033	-5588	5027
13302835	4222	-6092	4798
13303163	4479	-6467	4570
13303491	5392	-6991	4451
13303819	5990	-7285	4581
13304147	6073	-7148	5174
13304475	6519	-6805	5692
13304803	6689	-5950	6489
13305131	5917	-4758	6742
13305459	5785	-3592	6994
13305787	5560	-1907	7084
13306115	10519	885	6428
13306443	11192	2154	7607
13306771	10837	3027	7790
13307099	8939	4275	6893
13307427	15652	4461	4541
13307755	12142	6748	-360
13308083	9105	5767	-4141
13308411	8069	5573	-7610
13308739	6780	6755	-10735
13309067	5587	6389	-11600
13309395	5355	5858	-12525
13309723	5056	4966	-13669
13310051	6290	5882	-15417
13310379	6394	6204	-16214
13310707	6185	5518	-16905
13311035	5593	4758	-17292
13311363	4729	4114	-17540
13311691	3546	3597	-17518
13312019	2009	2797	-17386
13312347	307	2000	-16735
13312675	-703	1810	-16151
13313003	-1097	2198	-15265
13313331	-1123	3098	-14811
13313659	-1082	3588	-13890
13313987	-286	4598	-13045
13314315	361	5368	-12623
13314643	1317	5811	-12111
13314971	2603	6203	-11629
13315299	3712	6557	-11140
13315627	4410	7118	-10543
13315955	4989	7597	-9991
13316283	5737	7824	-9358
13316611	6172	7968	-8545
13316939	6378	8166	-7681
13317267	6462	8492	-6847
13317595	6820	8680	-6156
13317923	7082	8744	-5531
13318251	7162	8948	-5049
13318579	7091	8837	-4525
13318907	7086	8685	-3997
13319235	7081	8604	-3467
13319563	6829	8439	-2889
13319891	6166	8313	-2312
13320219	5368	8186	-1749
13320547	4104	8089	-1174
13320875	2847	7566	-577
13321203	1745	6718	-52
13321531	939	6397	393
13321859	227	5812	816
13322187	-255	4928	1271
13322515	108	4200	1517
13322843	817	4061	1925
13323171	1618	3887	2141
13323499	2475	4239	2493
13323827	3049	4670	3180
13324155	3514	4396	3942
13324483	3547	3870	4516
13324811	3887	3977	4709
13325139	4582	4825	4255
13325467	4800	6615	3268
13325795	4980	5992	2595
13326123	3992	2506	2215
13326451	2561	-153	2716
13326779	923	-1477	3304
13327107	-196	-1273	3671
13327435	-853	802	3780
13327763	-1082	2012	3954
13328091	-1101	878	3788
13328419	-818	-1121	3237
13328747	-333	-2257	2501
13329075	265	-2351	2138
13329403	792	-1926	2114
13329731	1057	-930	2311
13330059	1017	117	2650
13330387	502	920	2982
13330715	-477	1264	3085
13331043	-1282	464	2893
13331371	-1885	-728	3024
13331699	-2111	-1395	3066
13332027	-2063	-1274	2928
13332355	-1749	-689	2776
13332683	-1531	-228	2595
13333011	-1380	182	2457
13333339	-1217	231	2221
13333667	-1030	-212	1836
13333995	-664	-338	1592
13334323	-399	2	1461
13334651	-163	240	1464
13334979	-157	319	1527
13335307	-136	440	1572
13335635	-157	577	1554
13335963	-122	673	1497
13336291	114	731	1388
13336619	187	719	1225
13336947	48	520	1142
13337275	139	329	1049
13337603	92	163	1074
13337931	-160	49	1134
13338259	-400	-135	1209
13338587	-867	-264	1306
13338915	-758	-254	1253
13339243	-497	-305	1293
13339571	-439	-307	1355
13339899	-511	-324	1311
13340227	-407	-431	1294
13340555	-241	-402	1257
13340883	-307	-438	1453
13341211	-526	-396	1526
13341539	-701	-419	1550
13341867	-1158	-489	1419
13342195	-415	-669	1579
13342523	-697	-848	1608
13342851	-1054	-624	1513
13343179	-1135	-615	1207
13343507	-1678	-820	1194
13343835	-2478	-993	1044
13344163	-3329	-1428	863
13344491	-4154	-1854	829
13344819	-5295	-2234	925
13345147	-6284	-2626	1042
13345475	-7099	-2747	1355
13345803	-7885	-2732	1513
13346131	-8930	-2943	1731
13346459	-9723	-3003	1918
13346787	-10731	-3084	2260
13347115	-11716	-3288	2438
13347443	-12300	-3325	2457
13347771	-12328	-3176	2367
13348099	-11671	-2704	2134
13348427	-10721	-2168	1874
13348755	-9192	-1363	1583
13349083	-6798	-449	1249
13349411	-5441	494	978
13349739	-4438	798	508
13350067	-3000	1193	-11
13350395	-2263	1229	-120
13350723	-1140	902	-106
13351051	1057	1785	-73
13351379	2253	2904	-49
13351707	2065	2532	-460
13352035	2494	2010	-937
13352363	3537	1593	-1172
13352691	4151	860	-906
13353019	4181	125	-515
13353347	3737	73	-191
13353675	3155	-163	5
13354003	2649	-182	8
13354331	2154	-83	-25
13354659	1647	58	-39
13354987	1579	29	-4
13355315	1698	-54	47
13355643	1878	161	-16
13355971	1918	375	-176
13356299	1905	462	-191
13356627	1691	495	-140
13356955	1268	463	-79
13357283	864	416	13
13357611	527	365	35
13357939	240	276	81
13358267	159	314	97
13358595	310	408	123
13358923	490	399	156
13359251	628	425	161
13359579	776	385	190
13359907	1058	388	236
13360235	1041	396	293
13360563	879	385	329
13360891	750	310	371
13361219	582	257	377
13361547	503	263	373
13361875	459	269	342
13362203	513	312	335
13362531	564	365	336
13362859	638	382	323
13363187	659	347	326
13363515	531	299	350
13363843	426	269	420
13364171	299	185	488
13364499	145	171	587
13364827	9	153	640
13365155	22	151	656
13365483	117	141	699
13365811	121	64	783
13366139	209	-58	850
13366467	217	-78	913
13366795	169	-48	939
13367123	164	-72	948
13367451	329	-90	962
13367779	555	-3	928
13368107	767	92	891
13368435	937	111	845
13368763	1162	93	816
13369091	1302	129	831
13369419	1450	236	847
13369747	1488	297	802
13370075	1564	301	721
13370403	1545	278	688
13370731	1388	101	752
13371059	1022	-8	803
13371387	625	-90	829
13371715	289	-28	822
13372043	20	-24	766
13372371	28	3	730
13372699	29	-18	686
13373027	89	-12	666
13373355	114	-28	646
13373683	78	21	623
13374011	77	122	589
13374339	144	226	519
13374667	131	223	468
13374995	209	261	419
13375323	103	274	323
13375651	126	183	300
13375979	118	200	337
13376307	-82	233	279
13376635	-375	84	304
13376963	-449	121	373
13377291	-288	320	443
13377619	-119	424	385
13377947	61	292	311
13378275	385	137	343
13378603	550	24	413
13378931	517	-56	465
13379259	440	-163	636
13379587	302	-187	793
13379915	128	-238	876
13380243	124	-364	993
13380571	300	-208	978
13380899	460	-215	985
13381227	484	-238	934
13381555	502	-362	894
13381883	461	-489	901
13382211	301	-493	925
13382539	-17	-447	977
13382867	-262	-347	952
13383195	-354	-204	844
13383523	-323	-99	665
13383851	-129	-64	521
13384179	-43	-66	383
13384507	23	-71	269
13384835	159	-87	217
13385163	96	-16	119
13385491	-112	-24	2
13385819	-280	-32	-64
13386147	-333	-38	-139
13386475	-422	36	-233
13386803	-449	92	-328
13387131	-423	86	-400
13387459	-366	110	-460
13387787	-424	113	-521
13388115	-535	132	-565
13388443	-629	64	-571
13388771	-710	59	-586
13389099	-862	51	-579
13389427	-974	-19	-591
13389755	-950	44	-617
13390083	-852	30	-627
13390411	-826	70	-647
13390739	-779	87	-679
13391067	-763	77	-692
13391395	-735	147	-668
13391723	-794	162	-647
13392051	-832	133	-631
13392379	-815	155	-635
13392707	-778	202	-638
13393035	-562	326	-680
13393363	-365	502	-775
13393691	-236	442	-862
13394019	-47	440	-907
13394347	110	418	-929
13394675	125	334	-895
13395003	42	328	-911
13395331	-45	345	-932
13395659	-142	381	-986
13395987	-286	323	-1063
13396315	-307	353	-1111
13396643	-352	345	-1198
13396971	-351	355	-1271
13397299	-348	461	-1326
13397627	-378	511	-1391
13397955	-467	571	-1413
13398283	-516	505	-1371
13398611	-578	397	-1326
13398939	-593	432	-1328
13399267	-594	518	-1317
13399595	-570	468	-1267
13399923	-512	466	-1241
13400251	-447	365	-1230
13400579	-373	400	-1256
13400907	-210	367	-1289
13401235	-112	356	-1256
13401563	24	350	-1229
13401891	13	331	-1163
13402219	-72	248	-1105
13402547	-208	174	-1073
13402875	-342	69	-1043
13403203	-403	64	-999
13403531	-422	89	-968
13403859	-452	101	-935
13404187	-446	72	-929
13404515	-413	85	-918
13404843	-379	66	-862
13405171	-396	75	-780
13405499	-464	35	-771
13405827	-530	42	-741
13406155	-565	4	-731
13406483	-659	-12	-730
13406811	-700	-79	-687
13407139	-757	-65	-742
13407467	-882	-77	-726
13407795	-960	-56	-698
13408123	-880	-9	-683
13408451	-759	93	-733
13408779	-647	181	-838
13409107	-452	198	-883
13409435	-372	241	-922
13409763	-295	292	-954
13410091	-363	380	-1003
13410419	-441	416	-1012
13410747	-502	482	-1024
13411075	-599	503	-1062
13411403	-670	582	-1064
13411731	-711	613	-1136
13412059	-704	676	-1153
13412387	-679	749	-1159
13412715	-734	807	-1181
13413043	-858	810	-1178
13413371	-806	785	-1169
13413699	-763	813	-1200
13414027	-622	819	-1227
13414355	-468	846	-1295
13414683	-290	738	-1308
13415011	-66	704	-1293
13415339	62	766	-1246
13415667	282	946	-1322
13415995	652	1077	-1391
13416323	1014	1158	-1331
13416651	1029	1137	-1331
13416979	908	954	-1274
13417307	676	759	-1159
13417635	324	614	-957
13417963	-115	462	-866
13418291	-448	341	-823
13418619	-635	227	-780
13418947	-715	162	-752
13419275	-571	174	-725
13419603	-423	232	-696
13419931	-360	272	-700
13420259	-275	399	-747
13420587	-149	412	-740
13420915	-21	387	-676
13421243	121	261	-635
13421571	316	223	-644
13421899	460	247	-648
13422227	472	322	-668
13422555	489	378	-698
13422883	440	361	-700
13423211	368	320	-692
13423539	334	354	-693
13423867	288	370	-716
13424195	233	386	-702
13424523	245	374	-699
13424851	274	474	-695
13425179	251	538	-737
13425507	182	606	-779
13425835	-390	670	-790
13426163	334	175	-483
13426491	-34	406	-579
13426819	-75	564	-551
13427147	-730	489	-754
13427475	-1705	382	-1023
13427803	-2636	362	-1207
13428131	-3428	483	-1154
13428459	-3995	735	-1188
13428787	-4215	958	-1353
13429115	-3780	1377	-1756
13429443	-3259	1740	-2037
13429771	-2730	2202	-2097
13430099	-2472	2429	-2504
13430427	-1979	2512	-2701
13430755	-1474	2515	-2912
13431083	-1375	2215	-3047
13431411	-1764	1483	-2950
13431739	-2494	828	-2787
13432067	-3178	1013	-2663
13432395	-3645	2028	-2406
13432723	-4193	3137	-2164
13433051	-4469	2864	-1977
13433379	-4229	1152	-2278
13433707	-3256	727	-2558
13434035	-1965	1876	-2480
13434363	-1151	2565	-2641
13434691	-1015	2502	-3081
13435019	-755	3183	-3263
13435347	-726	5051	-3172
13435675	-738	5997	-3150
13436003	-1540	3629	-3326
13436331	-2506	330	-3649
13436659	-2626	-1710	-3807
13436987	-2213	-1145	-3427
13437315	-1908	293	-3090
13437643	-1720	816	-2755
13437971	-1053	1831	-2344
13438299	26	3739	-841
13438627	728	3542	1982
13438955	1049	1481	4555
13439283	1246	-1052	4132
13439611	1866	-2681	2606
13439939	2892	-3496	2695
13440267	4059	-4178	3996
13440595	4860	-5182	5681
13440923	5381	-5259	7309
13441251	7316	-6243	7539
13441579	9572	-5925	7548
13441907	11129	-5297	8527
13442235	12321	-5033	9636
13442563	13183	-5341	10164
13442891	12332	-7963	11327
13443219	10372	-14087	11771
13443547	6427	-21332	13555
13443875	6323	-19688	13904
13444203	8897	-6801	9749
13444531	6976	9010	2951
13444859	4702	13379	-959
13445187	4740	7925	-3482
13445515	3729	3932	-2414
13445843	4092	1198	-888
13446171	3211	-1640	1093
13446499	1613	-2520	1636
13446827	-608	-1513	1109
13447155	-3442	-71	-42
13447483	-5433	598	-1008
13447811	-5389	1022	-1323
13448139	-4468	1471	-1400
13448467	-2944	1006	-1368
13448795	-1100	566	-1525
13449123	-478	274	-2147
13449451	0	240	-2254
13449779	-148	805	-2624
13450107	-202	1230	-2911
13450435	-426	1454	-3286
13450763	-1092	1664	-3298
13451091	-1571	1499	-3075
13451419	-1975	1650	-2771
13451747	-2332	1428	-2705
13452075	-2153	1560	-2937
13452403	-1672	2389	-3231
13452731	-1128	2594	-3406
13453059	-1209	3130	-3651
13453387	-1475	1723	-3850
13453715	-917	606	-4189
13454043	-2492	56	-4454
13454371	-879	4073	-6673
13454699	-1649	6224	-9093
13455027	-3194	10090	-12645
13455355	635	21781	-12111
13455683	3589	18078	-5042
13456011	1523	4241	2917
13456339	-2662	6914	5766
13456667	6247	11004	9711
13456995	-3712	16688	16985
13457323	-16790	-27105	-18974
13457651	-21403	-12308	-31134
13457979	-10366	-18689	-11360
13458307	-1577	-9703	-1653
13458635	1262	-1746	4073
13458963	2343	3398	3628
13459291	1973	7695	-953
13459619	5585	19908	268
13459947	176	4570	-261
13460275	1910	1731	2104
13460603	3155	5667	3604
13460931	4022	5462	6098
13461259	4337	2801	6939
13461587	4207	1337	6827
13461915	3970	268	5058
13462243	3474	-1215	3201
13462571	2864	-1878	1982
13462899	2064	-3168	2232
13463227	1373	-4496	2826
13463555	922	-6188	3287
13463883	906	-7597	3365
13464211	1286	-7179	2902
13464539	1402	-5535	2718
13464867	1284	-3699	2861
13465195	971	-2769	2923
13465523	663	-3022	2847
13465851	393	-3583	3395
13466179	291	-3341	3357
13466507	177	-2134	3542
13466835	-162	-810	3656
13467163	-600	386	3523
13467491	-1200	3427	3033
13467819	-1085	10150	1883
13468147	-1840	7701	1567
13468475	-5704	-3644	1816
13468803	-6505	-7042	1425
13469131	-5971	-6002	957
13469459	-5852	-4973	279
13469787	-5499	-5217	57
13470115	-4385	-4237	79
13470443	-2753	-1215	113
13470771	-1641	1624	241
13471099	-715	1864	340
13471427	233	309	413
13471755	1389	-106	446
13472083	2652	764	626
13472411	3539	1464	654
13472739	3779	1381	715
13473067	3585	963	705
13473395	3189	349	919
13473723	2602	-348	987
13474051	2152	-1013	1280
13474379	2007	-1042	1064
13474707	1168	-1450	1208
13475035	711	-1348	1061
13475363	748	-1035	847
13475691	619	-615	877
13476019	215	-547	745
13476347	-175	-594	769
13476675	-621	-315	778
13477003	-955	-405	669
13477331	-1310	-490	494
13477659	-1586	-511	261
13477987	-1709	-592	36
13478315	-1837	-776	-106
13478643	-1807	-739	-204
13478971	-1634	-278	-327
13479299	-1434	0	-588
13479627	-1210	-12	-898
13479955	-860	88	-1091
13480283	-345	238	-1093
13480611	103	634	-1162
13480939	413	837	-1118
13481267	484	862	-1100
13481595	645	970	-1177
13481923	468	965	-1232
13482251	248	1047	-1204
13482579	-430	1012	-1155
13482907	-988	699	-1191
13483235	-1611	430	-1136
13483563	-2519	285	-1051
13483891	-3579	-212	-1048
13484219	-4565	-867	-1050
13484547	-5484	-1525	-1074
13484875	-6017	-2165	-867
13485203	-6418	-2787	-598
13485531	-6897	-3417	-303
13485859	-7146	-3955	-158
13486187	-6776	-4442	-7
13486515	-6237	-4586	-11
13486843	-5350	-4751	28
13487171	-4601	-4775	18
13487499	-4209	-4839	108
13487827	-4024	-4940	367
13488155	-4386	-5047	741
13488483	-4493	-5286	1110
13488811	-4560	-5354	1399
13489139	-4657	-4865	1718
13489467	-4664	-5151	2028
13489795	-3124	-4915	2317
13490123	-4513	-2326	2022
13490451	-4565	-2530	1064
13490779	-3529	-760	299
13491107	-3563	-1460	110
13491435	-2654	-2035	900
13491763	-1045	-689	1780
13492091	1120	1071	2549
13492419	3126	3630	2886
13492747	4148	6318	2137
13493075	4176	7578	1705
13493403	2903	3669	1539
13493731	1475	-1370	1226
13494059	483	-3035	654
13494387	-586	-4248	1629
13494715	-2700	-3656	1567
13495043	-3891	-2009	1672
13495371	-3942	268	1695
13495699	-3547	1667	1652
13496027	-3039	1517	1609
13496355	-2286	918	1430
13496683	-1313	981	1114
13497011	-350	1543	850
13497339	-37	1689	707
13497667	-149	1737	595
13497995	-680	1563	588
13498323	-1343	1126	674
13498651	-1956	862	572
13498979	-2472	368	515
13499307	-2769	-114	643
13499635	-2773	-260	687
13499963	-2599	166	583
13500291	-2475	643	495
13500619	-2272	840	336
13500947	-2036	787	212
13501275	-1808	615	181
13501603	-1715	580	118
13501931	-1677	551	2
13502259	-1640	432	15
13502587	-1623	393	-22
13502915	-1685	395	-37
13503243	-1729	349	-46
13503571	-1702	295	-57
13503899	-1692	319	-51
13504227	-1623	344	-109
13504555	-1539	375	-161
13504883	-1429	370	-206
13505211	-1332	345	-219
13505539	-1395	316	-229
13505867	-1594	240	-166
13506195	-1826	71	-127
13506523	-2075	-20	-56
13506851	-2146	-116	-32
13507179	-1996	-113	-31
13507507	-1909	-103	-36
13507835	-1654	-82	-114
13508163	-1383	-139	-29
13508491	-1205	-145	7
13508819	-1074	-122	62
13509147	-1026	-176	142
13509475	-1052	-191	193
13509803	-1108	-221	260
13510131	-1165	-228	282
13510459	-1231	-250	318
13510787	-1216	-257	352
13511115	-1154	-218	365
13511443	-1034	-146	377
13511771	-1026	-149	340
13512099	-1119	-218	436
13512427	-1140	-263	416
13512755	-1174	-223	414
13513083	-1236	-231	365
13513411	-1327	-267	288
13513739	-1443	-340	276
13514067	-1416	-353	217
13514395	-1464	-363	185
13514723	-1607	-443	165
13515051	-1673	-476	121
13515379	-1560	-444	67
13515707	-1438	-388	10
13516035	-1253	-319	-83
13516363	-1020	-309	-134
13516691	-719	-264	-177
13517019	-479	-197	-169
13517347	-246	-159	-183
13517675	-13	-124	-181
13518003	146	-101	-178
13518331	326	-114	-179
13518659	429	-190	-183
13518987	498	-165	-198
13519315	572	-109	-208
13519643	583	-123	-223
13519971	576	-111	-241
13520299	584	-108	-262
13520627	652	-102	-272
13520955	781	-90	-299
13521283	907	-70	-330
13521611	990	-112	-304
13521939	950	-141	-254
13522267	859	-175	-199
13522595	743	-242	-177
13522923	744	-282	-179
13523251	796	-276	-168
13523579	715	-347	-130
13523907	723	-395	-114
13524235	752	-437	-80
13524563	792	-403	4
13524891	805	-396	34
13525219	802	-428	119
13525547	781	-440	192
13525875	841	-424	261
13526203	864	-425	325
13526531	920	-443	326
13526859	1006	-435	430
13527187	1023	-465	405
13527515	1036	-525	422
13527843	1039	-595	412
13528171	1036	-749	333
13528499	972	-814	267
13528827	851	-882	248
13529155	591	-1101	242
13529483	290	-1324	232
13529811	-188	-1476	399
13530139	-597	-1656	277
13530467	-891	-1794	282
13530795	-892	-1779	278
13531123	-750	-1563	281
13531451	-701	-1404	331
13531779	-572	-1289	284
13532107	-407	-1074	192
13532435	-183	-769	61
13532763	60	-527	-61
13533091	300	-335	-112
13533419	429	-242	-198
13533747	378	-85	-234
13534075	271	-6	-349
13534403	182	49	-324
13534731	126	149	-322
13535059	71	250	-339
13535387	9	339	-374
13535715	0	394	-416
13536043	24	443	-475
13536371	151	490	-520
13536699	297	571	-576
13537027	507	735	-613
13537355	720	815	-586
13537683	833	902	-566
13538011	778	767	-586
13538339	627	681	-537
13538667	617	656	-522
13538995	467	531	-500
13539323	300	391	-382
13539651	99	267	-173
13539979	-220	201	-202
13540307	-426	47	-129
13540635	-623	-66	-79
13540963	-722	-118	-34
13541291	-766	-144	-23
13541619	-767	-130	-58
13541947	-577	-107	-84
13542275	-320	-87	-117
13542603	-33	57	-143
13542931	147	164	-174
13543259	195	172	-149
13543587	133	134	-116
13543915	43	71	-62
13544243	-69	10	-54
13544571	-105	7	-17
13544899	-79	1	7
13545227	-17	23	-26
13545555	57	39	-36
13545883	154	31	-22
13546211	263	81	18
13546539	417	101	45
13546867	527	87	31
13547195	590	144	37
13547523	725	141	42
13547851	850	144	50
13548179	932	142	66
13548507	885	115	88
13548835	870	91	110
13549163	796	81	148
13549491	708	85	181
13549819	585	62	159
13550147	594	24	158
13550475	628	47	138
13550803	689	111	94
13551131	713	139	79
13551459	651	117	77
13551787	539	107	85
13552115	334	67	67
13552443	129	31	54
13552771	-65	-9	51
13553099	-252	-63	52
13553427	-414	-71	27
13553755	-505	-53	12
13554083	-531	24	-39
13554411	-573	14	-50
13554739	-662	9	-83
13555067	-741	2	-77
13555395	-851	-14	-97
13555723	-964	-15	-120
13556051	-1019	2	-142
13556379	-1040	2	-146
13556707	-1034	10	-177
13557035	-1050	43	-191
13557363	-1036	57	-226
13557691	-942	92	-257
13558019	-845	176	-280
13558347	-776	199	-272
13558675	-739	167	-249
13559003	-751	165	-251
13559331	-731	172	-255
13559659	-659	225	-276
13559987	-557	214	-283
13560315	-407	248	-308
13560643	-302	278	-332
13560971	-230	282	-331
13561299	-181	268	-309
13561627	-196	291	-282
13561955	-183	324	-293
13562283	-109	376	-306
13562611	46	445	-318
13562939	194	558	-349
13563267	226	521	-329
13563595	168	542	-297
13563923	86	564	-277
13564251	3	549	-284
13564579	8	615	-288
13564907	108	718	-304
