Time Stamp	Gyroscope X	Gyroscope Y	Gyroscope Z
RAW	RAW	RAW	RAW
no units	no units	no units	no units
12849126	-72	142	-33
12849454	-61	123	-41
12849782	-43	131	-37
12850110	-37	124	-33
12850438	-23	127	-37
12850766	-15	132	-23
12851094	-24	139	-30
12851422	-24	134	-23
12851750	-51	146	-17
12852078	-51	136	-20
12852406	-64	144	-26
12852734	-38	157	-25
12853062	-41	157	-31
12853390	-31	157	-21
12853718	-30	138	-26
12854046	-34	147	-17
12854374	-45	149	-9
12854702	-54	156	-13
12855030	-66	158	-18
12855358	-76	148	-22
12855686	-73	167	-23
12856014	-73	157	-28
12856342	-62	141	-22
12856670	-72	159	-18
12856998	-76	145	-16
12857326	-94	148	-25
12857654	-81	136	-21
12857982	-97	148	-31
12858310	-88	149	-28
12858638	-82	150	-27
12858966	-72	147	-25
12859294	-60	144	-21
12859622	-61	157	-22
12859950	-52	137	-18
12860278	-46	137	-26
12860606	-51	142	-17
12860934	-53	148	-11
12861262	-56	146	-13
12861590	-56	141	-14
12861918	-59	162	-19
12862246	-58	152	-17
12862574	-61	140	-22
12862902	-54	149	-17
12863230	-54	144	-24
12863558	-51	134	-21
12863886	-41	141	-32
12864214	-32	137	-24
12864542	-41	126	-27
12864870	-37	131	-25
12865198	-38	139	-14
12865526	-50	140	-28
12865854	-41	142	-24
12866182	-39	133	-26
12866510	-34	144	-11
12866838	-37	132	-21
12867166	-39	145	-26
12867494	-36	130	-17
12867822	-38	142	-17
12868150	-30	142	-34
12868478	-29	130	-22
12868806	-26	134	-28
12869134	-24	140	-23
12869462	-29	133	-23
12869790	-17	142	-18
12870118	-26	140	-20
12870446	-26	140	-20
12870774	-30	154	-15
12871102	-18	155	-22
12871430	-9	143	-21
12871758	-14	148	-18
12872086	-36	145	-14
12872414	-48	168	-18
12872742	-76	162	-20
12873070	-86	159	-26
12873398	-78	152	-38
12873726	-82	170	-51
12874054	-113	161	-54
12874382	-124	169	-58
12874710	-143	176	-78
12875038	-152	135	-74
12875366	-166	127	-84
12875694	-162	123	-78
12876022	-143	119	-73
12876350	-96	123	-74
12876678	-67	122	-68
12877006	-57	128	-46
12877334	-51	130	-32
12877662	-44	119	-34
12877990	-18	115	-33
12878318	4	113	-17
12878646	30	117	2
12878974	74	105	17
12879302	92	111	19
12879630	121	107	21
12879958	117	128	34
12880286	124	121	31
12880614	129	120	41
12880942	129	122	44
12881270	132	103	50
12881598	138	112	33
12881926	157	100	36
12882254	161	124	25
12882582	142	134	29
12882910	129	109	35
12883238	81	118	18
12883566	54	109	14
12883894	47	105	18
12884222	25	121	9
12884550	17	111	13
12884878	10	117	10
12885206	4	107	17
12885534	-23	115	8
12885862	-33	113	15
12886190	-59	102	11
12886518	-71	90	29
12886846	-39	111	29
12887174	-33	96	17
12887502	-41	115	16
12887830	-17	123	33
12888158	-22	102	21
12888486	-26	104	30
12888814	-33	99	25
12889142	-41	109	44
12889470	-39	107	29
12889798	-50	102	29
12890126	-47	102	24
12890454	-63	95	35
12890782	-54	92	34
12891110	-85	99	31
12891438	-92	92	28
12891766	-99	100	30
12892094	-113	100	27
12892422	-115	102	20
12892750	-107	112	14
12893078	-124	101	9
12893406	-141	115	7
12893734	-133	99	18
12894062	-139	113	15
12894390	-134	100	-10
12894718	-136	109	-2
12895046	-123	107	7
12895374	-100	95	0
12895702	-85	94	-5
12896030	-91	100	-11
12896358	-89	93	-2
12896686	-83	97	-2
12897014	-111	91	-2
12897342	-125	85	0
12897670	-147	85	-20
12897998	-177	41	-43
12898326	-202	34	-59
12898654	-248	36	-65
12898982	-297	49	-62
12899310	-399	8	-75
12899638	-440	-35	-78
12899966	-450	-28	-83
12900294	-394	-31	-65
12900622	-322	-170	-31
12900950	-440	-57	-4
12901278	-502	1	-20
12901606	-556	-51	-47
12901934	-608	-53	-52
12902262	-592	-25	-71
12902590	-578	-33	-107
12902918	-591	-28	-81
12903246	-545	-62	-76
12903574	-555	-39	-108
12903902	-595	-26	-87
12904230	-588	41	-69
12904558	-656	-65	-84
12904886	-666	-59	-70
12905214	-640	-50	-90
12905542	-591	-87	-85
12905870	-544	-89	-91
12906198	-523	-105	-93
12906526	-490	-116	-78
12906854	-526	-112	-70
12907182	-565	-113	-65
12907510	-600	-140	-77
12907838	-603	-146	-75
12908166	-573	-153	-72
12908494	-541	-161	-81
12908822	-512	-180	-98
12909150	-494	-185	-110
12909478	-507	-177	-93
12909806	-522	-205	-94
12910134	-554	-211	-92
12910462	-583	-217	-95
12910790	-582	-232	-87
12911118	-536	-156	-45
12911446	-554	-286	-72
12911774	-529	-292	-67
12912102	-518	-252	-61
12912430	-560	-298	-72
12912758	-532	-273	-58
12913086	-562	-283	-59
12913414	-575	-296	-50
12913742	-562	-284	-37
12914070	-597	-322	-27
12914398	-602	-318	-17
12914726	-588	-328	-4
12915054	-572	-342	8
12915382	-540	-330	23
12915710	-520	-378	32
12916038	-501	-334	50
12916366	-520	-361	73
12916694	-593	-384	97
12917022	-560	-356	130
12917350	-569	-353	141
12917678	-572	-346	156
12918006	-502	-309	175
12918334	-430	-374	216
12918662	-399	-329	232
12918990	-421	-364	247
12919318	-439	-360	258
12919646	-421	-369	269
12919974	-362	-366	272
12920302	-362	-344	278
12920630	-396	-338	293
12920958	-428	-277	326
12921286	-480	-300	362
12921614	-484	-278	365
12921942	-452	-252	383
12922270	-443	-244	399
12922598	-423	-220	411
12922926	-384	-215	406
12923254	-351	-202	414
12923582	-324	-208	410
12923910	-264	-197	395
12924238	-181	-96	440
12924566	-248	-41	522
12924894	-154	-135	477
12925222	-141	-173	448
12925550	-182	-99	462
12925878	-201	-65	472
12926206	-200	-100	475
12926534	-188	-77	477
12926862	-237	-15	483
12927190	-231	-10	470
12927518	-223	-25	463
12927846	-222	-40	452
12928174	-198	-5	439
12928502	-176	-21	437
12928830	-145	-3	414
12929158	-118	0	389
12929486	-128	11	349
12929814	-142	7	336
12930142	-125	-2	285
12930470	-139	-13	273
12930798	-124	7	262
12931126	-122	-16	229
12931454	-112	-13	210
12931782	-88	-7	185
12932110	-99	-22	153
12932438	-101	-34	126
12932766	-119	-34	104
12933094	-126	-20	76
12933422	-130	-13	63
12933750	-148	-25	51
12934078	-173	16	46
12934406	-190	18	38
12934734	-196	-13	51
12935062	-179	-100	54
12935390	-130	-40	33
12935718	-165	63	-5
12936046	-105	126	-11
12936374	-73	251	77
12936702	-357	273	124
12937030	-569	417	216
12937358	-919	661	260
12937686	-1164	867	371
12938014	-1395	1296	575
12938342	-1338	1454	929
12938670	-1369	1526	1227
12938998	-1187	1652	1525
12939326	-1068	1612	1816
12939654	-1105	1644	1897
12939982	-1248	1749	1862
12940310	-1415	1798	1881
12940638	-1697	1847	1876
12940966	-1973	1944	1876
12941294	-2276	2073	1848
12941622	-2680	2120	1953
12941950	-2820	1985	2040
12942278	-3020	1841	2041
12942606	-3001	1954	1901
12942934	-2680	1762	1607
12943262	-1999	1251	1193
12943590	-1008	763	701
12943918	48	288	51
12944246	1095	115	-633
12944574	1853	-1	-1265
12944902	2452	-192	-1954
12945230	2953	-499	-2627
12945558	3323	-827	-3315
12945886	3300	-993	-3786
12946214	3112	-797	-4015
12946542	2894	-623	-3807
12946870	2810	-330	-3023
12947198	3395	-251	-1627
12947526	3786	-106	-659
12947854	3048	757	-559
12948182	1500	1482	-1370
12948510	-206	1437	-2121
12948838	-1080	287	-2123
12949166	-710	-16	-1382
12949494	-400	331	-919
12949822	-556	721	-723
12950150	-558	912	-890
12950478	37	904	-884
12950806	812	630	-1102
12951134	1255	517	-1128
12951462	1338	700	-1086
12951790	1254	885	-1135
12952118	1116	745	-1209
12952446	1393	544	-1071
12952774	1463	429	-1085
12953102	1512	391	-1075
12953430	1591	380	-1046
12953758	1597	483	-997
12954086	1582	588	-967
12954414	1439	683	-877
12954742	1179	888	-802
12955070	910	1053	-749
12955398	703	1023	-669
12955726	533	1094	-658
12956054	457	1077	-662
12956382	478	1039	-639
12956710	523	1035	-646
12957038	584	1068	-676
12957366	626	1028	-718
12957694	510	973	-771
12958022	215	1167	-858
12958350	-244	1307	-849
12958678	145	1228	-881
12959006	295	1236	-922
12959334	-26	1152	-944
12959662	92	1169	-888
12959990	220	1120	-865
12960318	295	1055	-868
12960646	396	1017	-868
12960974	398	1004	-874
12961302	340	935	-832
12961630	210	947	-802
12961958	-16	998	-746
12962286	-294	937	-689
12962614	-537	942	-623
12962942	-627	893	-507
12963270	-627	863	-408
12963598	-519	822	-370
12963926	-551	748	-348
12964254	-609	783	-250
12964582	-773	907	-99
12964910	-1087	822	-98
12965238	-1312	690	-144
12965566	-1304	561	-187
12965894	-1217	252	-122
12966222	-645	374	-103
12966550	-665	581	-194
12966878	-272	283	-114
12967206	-92	390	-38
12967534	-134	389	-67
12967862	-299	325	-101
12968190	-558	462	-143
12968518	-689	427	-216
12968846	-651	338	-195
12969174	-588	280	-183
12969502	-502	226	-185
12969830	-385	183	-175
12970158	78	255	-164
12970486	-144	84	-165
12970814	-202	28	-153
12971142	-137	25	-157
12971470	-125	50	-133
12971798	-136	54	-123
12972126	-100	13	-87
12972454	-83	-19	-64
12972782	-117	-8	-66
12973110	-78	0	-74
12973438	-22	-81	-12
12973766	28	-99	-44
12974094	100	-156	-49
12974422	197	-187	-83
12974750	374	-218	-96
12975078	510	-220	-97
12975406	461	-221	-73
12975734	308	-126	-92
12976062	130	-126	-108
12976390	80	-195	-103
12976718	21	-165	-112
12977046	122	-182	-93
12977374	218	-264	-83
12977702	270	-273	-71
12978030	225	-229	-65
12978358	285	-198	-11
12978686	214	-217	50
12979014	69	-192	97
12979342	-89	-209	114
12979670	-165	-183	122
12979998	-177	-166	140
12980326	-225	-100	126
12980654	-245	-40	133
12980982	-222	-61	157
12981310	-248	-36	171
12981638	-340	5	218
12981966	-441	31	244
12982294	-538	42	260
12982622	-656	36	281
12982950	-659	100	295
12983278	-585	43	255
12983606	-449	72	267
12983934	-252	47	279
12984262	-15	23	327
12984590	152	-4	409
12984918	247	-5	538
12985246	220	-52	559
12985574	187	11	642
12985902	34	31	685
12986230	-186	68	693
12986558	-392	63	691
12986886	-543	71	633
12987214	-550	84	537
12987542	-600	89	490
12987870	-654	92	432
12988198	-670	109	395
12988526	-712	4	428
12988854	-548	11	241
12989182	-375	8	181
12989510	-326	-6	180
12989838	-98	-18	207
12990166	-21	-50	188
12990494	72	-38	178
12990822	196	-35	170
12991150	305	-4	179
12991478	417	20	189
12991806	507	22	189
12992134	596	-14	188
12992462	644	-19	182
12992790	737	-11	189
12993118	824	-18	173
12993446	869	5	162
12993774	879	23	158
12994102	798	69	153
12994430	644	106	155
12994758	396	113	162
12995086	187	98	172
12995414	341	187	154
12995742	139	69	120
12996070	12	95	77
12996398	-40	45	46
12996726	-67	53	22
12997054	-138	82	-2
12997382	-261	127	-35
12997710	-424	170	-73
12998038	-607	184	-83
12998366	-752	178	-101
12998694	-811	209	-123
12999022	-779	188	-120
12999350	-668	165	-100
12999678	-500	167	-89
13000006	-395	146	-71
13000334	-344	179	-14
13000662	-419	139	-12
13000990	-529	152	19
13001318	-616	185	9
13001646	-643	156	25
13001974	-609	173	27
13002302	-551	179	18
13002630	-480	163	20
13002958	-390	159	12
13003286	-319	161	8
13003614	-276	158	-6
13003942	-281	154	11
13004270	-318	174	26
13004598	-337	179	40
13004926	-189	201	23
13005254	-318	151	76
13005582	-353	157	67
13005910	-340	156	63
13006238	-309	163	54
13006566	-290	166	46
13006894	-257	172	31
13007222	-240	172	32
13007550	-257	210	52
13007878	-285	242	59
13008206	-373	251	52
13008534	-412	242	31
13008862	-378	258	28
13009190	-330	211	1
13009518	-237	235	12
13009846	-126	244	43
13010174	-51	224	35
13010502	10	220	25
13010830	22	216	12
13011158	21	235	18
13011486	-32	256	21
13011814	-88	225	-15
13012142	-135	188	-57
13012470	-91	192	-85
13012798	-118	-9	-109
13013126	-98	39	-100
13013454	-63	45	-86
13013782	-30	14	-89
13014110	-64	65	-60
13014438	-162	101	-34
13014766	-328	118	51
13015094	-516	162	117
13015422	-685	146	134
13015750	-703	-12	115
13016078	-491	-126	150
13016406	-100	-159	149
13016734	-13	-5	96
13017062	100	-23	145
13017390	57	-30	212
13017718	-79	-6	194
13018046	-260	22	184
13018374	-354	-34	195
13018702	-400	-43	213
13019030	-317	41	189
13019358	-122	-4	164
13019686	37	-48	162
13020014	82	-16	213
13020342	117	-66	252
13020670	113	-43	287
13020998	69	1	356
13021326	31	-13	386
13021654	-82	-50	469
13021982	-195	-106	470
13022310	-225	-73	493
13022638	-462	130	512
13022966	-584	484	574
13023294	-580	259	632
13023622	-496	188	712
13023950	-414	285	766
13024278	-335	352	885
13024606	-214	360	1015
13024934	-200	414	940
13025262	-60	177	745
13025590	185	359	717
13025918	410	272	586
13026246	507	255	422
13026574	720	377	255
13026902	1005	164	191
13027230	1102	-10	70
13027558	1113	-20	-69
13027886	919	-80	-206
13028214	588	-6	-323
13028542	838	96	-312
13028870	587	-68	-390
13029198	702	-26	-486
13029526	743	-115	-523
13029854	724	-96	-586
13030182	689	-98	-556
13030510	616	-96	-516
13030838	524	-120	-459
13031166	321	-88	-396
13031494	41	11	-313
13031822	-365	200	-268
13032150	-703	290	-235
13032478	-914	321	-178
13032806	-982	403	-101
13033134	-944	563	-50
13033462	-998	595	-57
13033790	-1104	601	-163
13034118	-985	494	-305
13034446	-531	347	-417
13034774	79	79	-459
13035102	710	-38	-468
13035430	1130	-16	-455
13035758	1159	-26	-406
13036086	878	-85	-396
13036414	415	-106	-396
13036742	-2	-148	-375
13037070	-229	-87	-357
13037398	-384	115	-408
13037726	-222	38	-451
13038054	-74	-4	-438
13038382	30	61	-481
13038710	26	121	-433
13039038	-41	158	-348
13039366	-175	240	-275
13039694	-295	212	-191
13040022	-364	299	-143
13040350	-400	273	-125
13040678	-370	263	-141
13041006	-215	220	-101
13041334	-195	228	-78
13041662	-200	226	-80
13041990	-156	260	-74
13042318	-185	198	-62
13042646	-263	78	-44
13042974	-319	95	-47
13043302	-407	114	-37
13043630	-442	193	-31
13043958	-414	192	-65
13044286	-394	203	-41
13044614	-425	239	-54
13044942	-362	244	-46
13045270	-351	243	-50
13045598	-307	285	-33
13045926	-282	295	-2
13046254	-278	281	-2
13046582	-263	320	11
13046910	-240	363	22
13047238	-133	307	40
13047566	-48	302	37
13047894	50	280	33
13048222	157	261	40
13048550	239	290	45
13048878	216	297	55
13049206	192	291	44
13049534	156	276	49
13049862	102	280	41
13050190	86	274	46
13050518	18	280	54
13050846	-21	288	69
13051174	-85	271	55
13051502	-103	273	51
13051830	-138	272	49
13052158	-128	286	31
13052486	-101	250	25
13052814	-90	227	34
13053142	-41	231	28
13053470	-28	241	23
13053798	24	211	18
13054126	73	205	24
13054454	93	203	32
13054782	74	203	22
13055110	38	209	27
13055438	1	197	26
13055766	-49	181	16
13056094	-46	219	0
13056422	-54	213	6
13056750	-63	189	-2
13057078	-93	201	-12
13057406	-81	221	-17
13057734	-74	187	-14
13058062	-51	198	-20
13058390	-30	190	-33
13058718	-16	168	-29
13059046	-24	170	-34
13059374	-13	165	-38
13059702	-19	166	-34
13060030	-13	150	-43
13060358	-2	156	-26
13060686	17	165	-35
13061014	-4	180	-34
13061342	5	161	-27
13061670	-22	163	-39
13061998	-41	173	-38
13062326	-59	157	-44
13062654	-77	157	-49
13062982	-78	168	-55
13063310	-54	185	-51
13063638	-59	131	-52
13063966	-33	156	-56
13064294	-24	129	-51
13064622	-8	145	-47
13064950	-19	145	-39
13065278	-36	144	-46
13065606	-36	136	-46
13065934	-13	135	-43
13066262	-7	139	-46
13066590	21	135	-33
13066918	15	120	-30
13067246	13	121	-33
13067574	-5	128	-27
13067902	-18	130	-27
13068230	-33	132	-24
13068558	-41	129	-27
13068886	-37	121	-26
13069214	-52	129	-25
13069542	-34	139	-38
13069870	-15	117	-53
13070198	-14	135	-39
13070526	-3	127	-46
13070854	-8	115	-51
13071182	3	114	-46
13071510	2	122	-36
13071838	5	118	-44
13072166	4	115	-37
13072494	-5	113	-34
13072822	-1	113	-26
13073150	-4	126	-18
13073478	-7	124	-25
13073806	18	102	-17
13074134	8	108	-6
13074462	2	116	-9
13074790	-3	121	-5
13075118	15	101	8
13075446	14	98	1
13075774	21	92	6
13076102	12	110	12
13076430	21	93	21
13076758	22	83	12
13077086	24	106	28
13077414	32	84	27
13077742	45	91	33
13078070	32	113	22
13078398	48	103	26
13078726	60	99	29
13079054	29	117	29
13079382	30	145	27
13079710	14	135	25
13080038	31	126	29
13080366	9	147	15
13080694	-20	138	3
13081022	-37	138	3
13081350	-44	139	1
13081678	-48	138	-5
13082006	-42	139	-33
13082334	-64	126	-41
13082662	-63	135	-34
13082990	-65	132	-47
13083318	-84	148	-55
13083646	-110	118	-61
13083974	-118	115	-50
13084302	-122	116	-45
13084630	-110	122	-35
13084958	-100	131	-37
13085286	-92	128	-27
13085614	-92	124	-32
13085942	-104	145	-29
13086270	-123	139	-30
13086598	-137	135	-14
13086926	-158	151	-25
13087254	-154	150	-24
13087582	-163	147	-16
13087910	-153	142	-25
13088238	-155	153	-35
13088566	-147	147	-37
13088894	-134	141	-28
13089222	-119	124	-29
13089550	-127	122	-32
13089878	-105	126	-35
13090206	-68	132	-29
13090534	-65	135	-35
13090862	-70	119	-38
13091190	-96	135	-32
13091518	-100	132	-43
13091846	-124	132	-36
13092174	-129	124	-32
13092502	-118	125	-43
13092830	-105	122	-38
13093158	-77	128	-46
13093486	-67	116	-43
13093814	-40	128	-33
13094142	-41	130	-28
13094470	-32	130	-32
13094798	-35	137	-27
13095126	-19	139	-26
13095454	12	156	-18
13095782	-4	124	6
13096110	19	139	13
13096438	41	139	11
13096766	74	140	33
13097094	60	148	41
13097422	25	171	58
13097750	-53	187	69
13098078	-100	167	40
13098406	-110	158	17
13098734	-125	136	-9
13099062	-141	133	-20
13099390	-186	93	-41
13099718	-200	123	-76
13100046	-236	117	-101
13100374	-231	123	-103
13100702	-191	129	-116
13101030	-134	124	-124
13101358	-82	112	-112
13101686	-7	119	-104
13102014	40	114	-89
13102342	45	138	-75
13102670	8	127	-56
13102998	-55	140	-47
13103326	-142	145	-43
13103654	-215	178	-29
13103982	-255	180	-21
13104310	-286	190	-28
13104638	-275	190	-30
13104966	-218	183	-37
13105294	-165	175	-47
13105622	-110	168	-49
13105950	-41	162	-50
13106278	12	128	-52
13106606	52	187	-50
13106934	8	144	-50
13107262	-37	166	-37
13107590	-67	164	-42
13107918	-103	162	-51
13108246	-99	168	-50
13108574	-93	169	-58
13108902	-40	172	-56
13109230	-27	160	-66
13109558	-21	162	-59
13109886	-42	195	-59
13110214	-58	203	-47
13110542	-63	181	-49
13110870	-72	210	-41
13111198	-63	218	-25
13111526	-67	214	-31
13111854	-49	212	-47
13112182	-44	205	-56
13112510	-4	197	-52
13112838	27	200	-45
13113166	20	217	-49
13113494	-27	215	-46
13113822	-62	210	-27
13114150	-114	209	-18
13114478	-130	174	-33
13114806	-85	132	-32
13115134	39	90	-36
13115462	111	52	-8
13115790	132	83	-8
13116118	87	115	11
13116446	-34	156	55
13116774	-180	139	56
13117102	-305	158	55
13117430	-358	168	25
13117758	-302	129	10
13118086	-217	22	-32
13118414	-23	-75	-39
13118742	106	28	-59
13119070	127	107	-79
13119398	47	115	-39
13119726	-56	178	37
13120054	-329	216	120
13120382	-406	198	186
13120710	-485	220	239
13121038	-452	199	242
13121366	-207	186	243
13121694	53	216	260
13122022	-61	144	234
13122350	-216	217	214
13122678	-315	322	260
13123006	-450	297	355
13123334	-636	225	424
13123662	-769	264	455
13123990	-1220	478	505
13124318	-1034	474	1002
13124646	-958	481	905
13124974	-1034	653	1034
13125302	-1038	908	1208
13125630	-1319	1261	1331
13125958	-1467	1618	1633
13126286	-1451	1955	2137
13126614	-1299	1897	2513
13126942	-1089	1890	2915
13127270	-587	2094	3366
13127598	-168	1940	3463
13127926	423	1707	4017
13128254	507	1788	4366
13128582	887	2219	4785
13128910	891	2332	5187
13129238	446	1890	5235
13129566	312	1229	4878
13129894	530	1068	3715
13130222	927	1248	3391
13130550	1395	2125	3549
13130878	1779	2305	3451
13131206	1021	1615	4146
13131534	526	864	4985
13131862	1171	-440	5022
13132190	2144	236	5557
13132518	2656	988	5400
13132846	2783	1128	5451
13133174	2463	1904	5570
13133502	1768	1444	5526
13133830	835	1088	5248
13134158	576	2063	4892
13134486	54	1995	4703
13134814	-91	1239	4622
13135142	147	1125	4035
13135470	439	1617	3461
13135798	549	1706	2681
13136126	354	1721	1538
13136454	1915	3241	2
13136782	-55	2983	-1282
13137110	-394	1236	-2475
13137438	-316	1327	-4286
13137766	208	1565	-5379
13138094	-67	1373	-6534
13138422	-1366	769	-7845
13138750	-3490	1450	-8406
13139078	-6338	807	-8547
13139406	-8450	-1707	-8327
13139734	-8772	-3003	-7621
13140062	-8421	-5165	-7941
13140390	-8605	-7188	-8511
13140718	-8140	-8885	-9068
13141046	-6732	-11374	-9122
13141374	-4134	-10088	-8630
13141702	-8499	-8659	-10682
13142030	-5646	-5462	-8432
13142358	-1547	-3138	-3095
13142686	4007	-78	1932
13143014	3058	193	5305
13143342	264	500	5453
13143670	-264	832	3575
13143998	-732	-696	1795
13144326	-308	-1120	629
13144654	451	-1669	-342
13144982	888	-2373	-1075
13145310	1641	-2926	-1789
13145638	2210	-2710	-2081
13145966	3005	-2765	-1885
13146294	2846	-2421	-1373
13146622	2692	-2411	-994
13146950	2512	-2375	-885
13147278	2047	-1824	-452
13147606	1897	-1460	-12
13147934	2561	-1734	314
13148262	3755	-2039	867
13148590	4230	-1160	1317
13148918	5053	-832	1982
13149246	5853	-1284	4225
13149574	8012	-3414	5655
13149902	1387	6393	6322
13150230	10607	2052	20556
13150558	219	28832	21853
13150886	-6913	16771	9055
13151214	-6709	-6887	4407
13151542	-2162	-5495	888
13151870	-1071	4378	-694
13152198	2476	10722	1328
13152526	4099	10867	6455
13152854	-1932	7437	6220
13153182	-4357	3048	440
13153510	-4543	-1378	-2298
13153838	-1812	-1899	-1686
13154166	2479	8643	1670
13154494	5952	-21700	3338
13154822	7139	-8535	1857
13155150	12730	-4772	417
13155478	11715	-2111	-3176
13155806	6866	1453	-1891
13156134	-3592	4667	-1870
13156462	-10926	4844	-5805
13156790	-11539	2957	-6905
13157118	-8820	296	-7021
13157446	-5463	-1361	-6739
13157774	-2843	-3095	-5066
13158102	-1155	-3096	-4682
13158430	-258	-3100	-5006
13158758	1006	-2870	-5280
13159086	602	-2741	-5146
13159414	407	-2889	-4968
13159742	373	-2812	-4890
13160070	605	-2450	-4718
13160398	880	-2189	-4362
13160726	714	-2077	-3867
13161054	997	-1485	-3522
13161382	1172	-918	-3340
13161710	1143	-883	-3138
13162038	916	-791	-3006
13162366	579	-432	-2844
13162694	293	-330	-2550
13163022	-164	-432	-2161
13163350	-682	-27	-1700
13163678	-1221	191	-1213
13164006	-1549	219	-749
13164334	-1746	320	-396
13164662	-1610	174	-134
13164990	-1185	115	97
13165318	-620	7	256
13165646	25	140	346
13165974	422	287	324
13166302	727	256	430
13166630	780	216	275
13166958	621	126	332
13167286	175	131	199
13167614	174	-32	91
13167942	246	-52	151
13168270	16	56	109
13168598	-263	166	-13
13168926	-226	59	-90
13169254	-88	-37	-69
13169582	-229	21	-93
13169910	-290	-33	-92
13170238	-318	-50	-92
13170566	-373	-84	-109
13170894	-388	-15	-69
13171222	-495	-30	-36
13171550	-680	-31	23
13171878	9	-10	218
13172206	-575	-47	27
13172534	-616	-191	-34
13172862	-1010	-259	15
13173190	-980	-360	60
13173518	-720	-405	102
13173846	-25	-345	157
13174174	0	-195	80
13174502	-107	-270	16
13174830	-420	-322	-39
13175158	-802	-173	-156
13175486	-1029	-57	-104
13175814	-894	124	94
13176142	-459	-26	237
13176470	111	-138	244
13176798	341	42	60
13177126	502	301	-107
13177454	752	374	22
13177782	971	241	171
13178110	1049	213	147
13178438	984	165	130
13178766	919	98	154
13179094	802	-15	213
13179422	529	42	188
13179750	311	137	196
13180078	-115	270	149
13180406	-236	316	249
13180734	-139	132	183
13181062	-235	136	26
13181390	-99	114	72
13181718	75	119	115
13182046	165	53	84
13182374	262	68	79
13182702	320	114	61
13183030	294	102	48
13183358	251	41	60
13183686	171	-18	30
13184014	-51	-207	-47
13184342	-86	-160	-144
13184670	-175	-17	-152
13184998	-126	129	-112
13185326	-369	123	-91
13185654	-685	185	-106
13185982	-874	195	-71
13186310	-973	198	-28
13186638	-950	195	26
13186966	-946	203	41
13187294	-909	190	32
13187622	-832	175	-3
13187950	-735	147	25
13188278	-633	159	31
13188606	-532	159	63
13188934	-473	124	61
13189262	-425	157	72
13189590	-543	190	91
13189918	-669	250	89
13190246	-722	262	83
13190574	-737	292	82
13190902	-682	298	89
13191230	-572	292	83
13191558	-489	300	43
13191886	-435	294	21
13192214	-346	271	-14
13192542	-345	316	-57
13192870	-294	265	-80
13193198	-260	259	-88
13193526	-224	292	-102
13193854	-178	295	-122
13194182	-90	296	-117
13194510	25	293	-105
13194838	104	280	-74
13195166	159	286	-57
13195494	226	294	-50
13195822	238	282	-29
13196150	201	264	-9
13196478	225	231	21
13196806	236	234	42
13197134	260	215	62
13197462	200	250	59
13197790	133	258	34
13198118	118	238	0
13198446	103	222	14
13198774	85	195	10
13199102	9	198	-1
13199430	-80	171	-13
13199758	-126	144	-10
13200086	-173	160	-38
13200414	-193	148	-20
13200742	-166	145	-30
13201070	-152	135	-33
13201398	-135	146	-32
13201726	-131	146	-46
13202054	-111	154	-52
13202382	-107	127	-37
13202710	-102	123	-26
13203038	-126	125	-32
13203366	-136	116	-21
13203694	-138	114	-9
13204022	-173	124	-5
13204350	-198	143	1
13204678	-223	141	-9
13205006	-218	154	-1
13205334	-177	128	-3
13205662	-172	132	2
13205990	-174	137	2
13206318	-168	116	-13
13206646	-130	132	-14
13206974	-106	135	0
13207302	-70	136	-11
13207630	-58	111	5
13207958	-17	132	15
13208286	-6	135	33
13208614	-11	130	37
13208942	-21	137	62
13209270	-29	143	67
13209598	-16	142	55
13209926	8	153	56
13210254	12	175	43
13210582	-18	180	41
13210910	-65	195	29
13211238	-69	184	37
13211566	-110	170	33
13211894	-106	187	24
13212222	-96	173	12
13212550	-51	181	7
13212878	-45	190	5
13213206	-20	174	1
13213534	-26	185	8
13213862	-19	191	4
13214190	14	208	-11
13214518	27	192	-24
13214846	22	194	-25
13215174	32	194	-36
13215502	21	183	-27
13215830	8	200	-24
13216158	-24	188	-18
13216486	-35	193	-15
13216814	-34	172	1
13217142	-28	190	-1
13217470	-9	184	5
13217798	-23	199	16
13218126	-26	190	18
13218454	-42	201	32
13218782	-70	191	39
13219110	-127	175	31
13219438	-140	193	31
13219766	-129	203	31
13220094	-97	185	31
13220422	-86	208	29
13220750	-73	182	33
13221078	-69	191	34
13221406	-66	174	36
13221734	-69	151	43
13222062	-97	152	18
13222390	-98	135	15
13222718	-98	134	3
13223046	-90	130	14
13223374	-92	147	39
13223702	-95	149	32
13224030	-100	138	21
13224358	-101	125	25
13224686	-89	133	21
13225014	-89	148	3
13225342	-83	137	6
13225670	-68	146	-2
13225998	-54	135	-10
13226326	-58	135	-14
13226654	-57	127	-15
13226982	-62	134	-3
13227310	-25	136	-8
13227638	7	141	-2
13227966	31	133	-8
13228294	38	144	-6
13228622	65	146	0
13228950	40	135	-9
13229278	15	133	-12
13229606	4	127	-14
13229934	-19	125	-26
13230262	-37	148	-18
13230590	-43	134	-3
13230918	-49	153	-13
13231246	-73	153	-24
13231574	-77	147	-25
13231902	-75	155	-39
13232230	-56	155	-42
13232558	-53	152	-43
13232886	-65	139	-60
13233214	-57	144	-54
13233542	-59	144	-56
13233870	-73	155	-39
13234198	-60	134	-46
13234526	-70	173	-41
13234854	-77	165	-37
13235182	-83	162	-46
13235510	-70	162	-37
13235838	-76	184	-47
13236166	-58	158	-47
13236494	-61	149	-48
13236822	-59	157	-41
13237150	-34	158	-46
13237478	-3	161	-49
13237806	22	152	-46
13238134	44	159	-36
13238462	61	148	-38
13238790	76	164	-23
13239118	62	160	-19
13239446	66	170	-18
13239774	60	165	-19
13240102	46	172	-23
13240430	36	168	-10
13240758	21	169	-1
13241086	-16	174	-14
13241414	-13	176	-5
13241742	-25	167	-9
13242070	-15	160	-6
13242398	-27	170	-24
13242726	-29	160	-25
13243054	-40	178	-14
13243382	-26	169	-16
13243710	-8	162	-19
13244038	-12	160	-17
13244366	-10	169	-8
13244694	-17	151	-14
13245022	-28	153	-12
13245350	-29	159	-11
13245678	-32	160	-7
13246006	-20	164	-12
13246334	-12	154	-6
13246662	-23	168	4
13246990	-23	156	10
13247318	-41	162	10
13247646	-53	168	1
13247974	-67	164	11
13248302	-68	161	2
13248630	-79	153	20
13248958	-74	163	7
13249286	-73	145	1
13249614	-79	156	12
13249942	-93	151	7
13250270	-85	147	1
13250598	-78	156	-10
13250926	-81	161	-6
13251254	-73	144	-15
13251582	-68	139	-6
13251910	-51	139	-9
13252238	-49	144	-25
13252566	-52	131	-12
13252894	-74	133	-14
13253222	-74	133	-18
13253550	-77	123	-6
13253878	-80	137	-16
13254206	-80	142	-13
13254534	-76	141	-27
13254862	-38	136	-30
13255190	-41	134	-30
13255518	-28	123	-28
13255846	-14	126	-15
13256174	-15	122	-14
13256502	-22	130	-22
13256830	-32	131	-13
13257158	-30	121	-1
13257486	-36	148	-12
13257814	-30	140	12
13258142	-24	131	4
13258470	-15	146	-10
13258798	-20	153	3
13259126	-38	144	7
13259454	-66	148	12
13259782	-70	138	7
13260110	-98	148	19
13260438	-99	142	25
13260766	-99	145	26
13261094	-83	148	42
13261422	-67	154	45
13261750	-8	131	42
13262078	51	117	42
13262406	69	138	54
13262734	28	156	58
13263062	32	167	69
13263390	21	142	67
13263718	-19	141	54
13264046	0	151	55
13264374	14	154	64
13264702	20	149	50
13265030	41	148	44
13265358	40	151	47
13265686	-1	161	36
13266014	-26	149	25
13266342	-47	152	30
13266670	-60	154	14
13266998	-73	163	6
13267326	-68	142	-3
13267654	-65	141	-8
13267982	-58	135	-9
13268310	-61	137	3
13268638	-71	142	0
13268966	-88	143	1
13269294	-76	131	-1
13269622	-52	130	-6
13269950	-59	134	-9
13270278	-63	137	5
13270606	-65	150	-5
13270934	-68	146	-6
13271262	-55	134	-2
13271590	-71	149	5
13271918	-96	144	5
13272246	-113	163	5
13272574	-120	155	-2
13272902	-113	160	-6
13273230	-93	147	0
13273558	-77	168	-8
13273886	-77	159	-1
13274214	-67	162	2
13274542	-89	159	3
13274870	-63	149	3
13275198	-39	154	-3
13275526	-50	179	0
13275854	-50	171	4
13276182	-33	171	-4
13276510	-54	181	-4
13276838	-75	200	9
13277166	-95	180	8
13277494	-94	184	-3
13277822	-112	179	-5
13278150	-119	180	-1
13278478	-104	167	1
13278806	-105	179	-5
13279134	-93	187	-6
13279462	-101	205	-5
13279790	-102	190	-6
13280118	-120	212	-4
13280446	-132	215	-11
13280774	-128	213	-16
13281102	-121	215	-16
13281430	-95	218	-34
13281758	-72	226	-45
13282086	-84	236	-32
13282414	-92	232	-48
13282742	-83	236	-40
13283070	-122	240	-49
13283398	-130	239	-63
13283726	-147	246	-67
13284054	-175	228	-82
13284382	-182	239	-71
13284710	-200	243	-79
13285038	-172	228	-103
13285366	-106	217	-129
13285694	-32	204	-148
13286022	-5	227	-142
13286350	-3	249	-121
13286678	-41	237	-123
13287006	-65	232	-112
13287334	-80	231	-124
13287662	-24	208	-124
13287990	6	190	-135
13288318	47	230	-122
13288646	109	190	-113
13288974	141	168	-106
13289302	207	220	-105
13289630	173	181	-71
13289958	199	191	-74
13290286	199	182	-50
13290614	168	194	-27
13290942	144	187	-17
13291270	134	186	-19
13291598	106	175	-21
13291926	122	160	-16
13292254	115	167	-17
13292582	105	162	-13
13292910	100	154	-12
13293238	79	157	-8
13293566	82	140	12
13293894	110	125	22
13294222	149	130	16
13294550	172	126	26
13294878	181	122	25
13295206	174	118	34
13295534	144	125	48
13295862	120	123	58
13296190	91	123	57
13296518	74	132	48
13296846	67	132	51
13297174	50	146	55
13297502	64	134	66
13297830	60	147	58
13298158	88	137	56
13298486	102	121	73
13298814	120	120	89
13299142	122	148	90
13299470	125	166	89
13299798	124	149	100
13300126	122	176	92
13300454	120	175	87
13300782	136	149	85
13301110	160	140	56
13301438	163	117	39
13301766	269	-29	23
13302094	183	38	-37
13302422	299	22	-65
13302750	458	-2	-105
13303078	697	24	-153
13303406	861	67	-198
13303734	1018	133	-234
13304062	1023	197	-260
13304390	931	250	-293
13304718	755	375	-345
13305046	558	401	-410
13305374	378	508	-467
13305702	196	576	-583
13306030	78	542	-704
13306358	87	574	-792
13306686	119	659	-868
13307014	70	575	-950
13307342	25	692	-1034
13307670	-26	755	-1095
13307998	-86	816	-1163
13308326	-134	757	-1228
13308654	50	864	-1245
13308982	71	890	-1247
13309310	30	906	-1265
13309638	-143	896	-1259
13309966	-117	875	-1295
13310294	116	829	-1305
13310622	491	688	-1332
13310950	898	667	-1322
13311278	1290	643	-1358
13311606	1550	617	-1307
13311934	1577	557	-1263
13312262	1445	583	-1213
13312590	1264	502	-1151
13312918	1152	527	-1079
13313246	1204	470	-1021
13313574	1341	366	-986
13313902	1503	283	-883
13314230	1832	57	-783
13314558	2098	27	-701
13314886	2335	-74	-604
13315214	2424	-24	-489
13315542	2282	-20	-377
13315870	1982	132	-211
13316198	1376	280	-2
13316526	449	164	133
13316854	-354	159	177
13317182	-890	-37	199
13317510	-909	-250	157
13317838	-744	-307	136
13318166	-533	-344	155
13318494	-362	-366	194
13318822	-432	-318	232
13319150	-118	-213	409
13319478	-1073	-143	354
13319806	-1716	-201	379
13320134	-1903	-253	350
13320462	-1821	-338	349
13320790	-1717	-305	320
13321118	-1405	-299	341
13321446	-1165	-257	315
13321774	-992	-211	345
13322102	-932	-102	452
13322430	-893	-217	512
13322758	-1080	-265	618
13323086	-1334	-338	756
13323414	-1650	-266	913
13323742	-1913	-69	1223
13324070	-1975	-368	1435
13324398	-2203	-37	1788
13324726	-2528	282	2076
13325054	-3309	795	2319
13325382	-3674	1173	2840
13325710	-3270	1055	3451
13326038	-1562	1230	3748
13326366	-572	1203	3705
13326694	334	1124	3549
13327022	1033	1415	3435
13327350	1282	1456	3183
13327678	1262	1673	2867
13328006	947	2239	2083
13328334	-187	3370	1690
13328662	-282	4281	1819
13328990	-218	3970	1678
13329318	-760	3356	1046
13329646	-137	2709	190
13329974	1052	2081	-396
13330302	2368	1910	-977
13330630	3411	1898	-1536
13330958	3924	1468	-2211
13331286	4071	830	-2831
13331614	4347	117	-3540
13331942	4724	-481	-4233
13332270	5300	-1398	-4827
13332598	5747	-2112	-5278
13332926	5871	-2487	-5788
13333254	5768	-2426	-5757
13333582	5531	-2594	-5207
13333910	5710	-2042	-3848
13334238	5749	-2382	-1805
13334566	4390	-2877	-726
13334894	2831	-473	-474
13335222	-38	935	-805
13335550	-2260	254	-1522
13335878	-2468	-945	-1842
13336206	-1337	-2092	-1415
13336534	-478	-1912	-1388
13336862	1034	-1855	-1158
13337190	2276	-871	-1255
13337518	2168	-184	-1401
13337846	1152	-107	-941
13338174	-175	204	-471
13338502	-1851	275	-375
13338830	-2563	500	-205
13339158	-2064	159	-29
13339486	-773	60	28
13339814	634	-74	-65
13340142	1729	-35	-144
13340470	2093	-205	-277
13340798	1871	26	-260
13341126	1115	-4	-326
13341454	216	102	-522
13341782	-584	152	-655
13342110	-1062	121	-751
13342438	-1033	-13	-925
13342766	-689	-121	-1015
13343094	-410	-201	-1101
13343422	-229	-129	-1098
13343750	-201	-196	-1088
13344078	-358	-215	-1095
13344406	-557	-159	-1084
13344734	-1104	-184	-991
13345062	-685	-262	-1127
13345390	-368	-136	-1215
13345718	-806	-207	-1279
13346046	-604	-197	-1296
13346374	-461	-240	-1321
13346702	-400	-298	-1333
13347030	-421	-324	-1391
13347358	-552	-308	-1439
13347686	-618	-316	-1464
13348014	-468	-412	-1468
13348342	-272	-475	-1456
13348670	-217	-415	-1460
13348998	-93	-360	-1426
13349326	28	-380	-1387
13349654	12	-365	-1312
13349982	-197	-286	-1251
13350310	-317	-156	-1206
13350638	-459	-208	-1149
13350966	-583	-278	-1184
13351294	-498	-197	-1161
13351622	-507	-81	-1044
13351950	-255	-179	-1009
13352278	-54	-249	-1017
13352606	181	-221	-1030
13352934	313	-271	-1009
13353262	329	-273	-942
13353590	141	-243	-893
13353918	-1	-168	-873
13354246	-183	-98	-821
13354574	-417	-99	-852
13354902	-379	-103	-771
13355230	-468	-28	-707
13355558	-343	-73	-642
13355886	-190	-95	-593
13356214	-28	-12	-565
13356542	-30	-28	-536
13356870	-147	-14	-461
13357198	-408	158	-444
13357526	-415	139	-368
13357854	-415	63	-310
13358182	-516	91	-284
13358510	-448	107	-231
13358838	-247	56	-38
13359166	-256	132	-9
13359494	-198	137	64
13359822	-279	207	163
13360150	-374	293	254
13360478	-406	319	301
13360806	-492	335	401
13361134	-477	372	485
13361462	-395	390	570
13361790	-252	443	635
13362118	-154	469	613
13362446	-42	480	795
13362774	13	544	904
13363102	39	575	1016
13363430	46	631	1100
13363758	110	686	1178
13364086	157	708	1265
13364414	156	749	1299
13364742	143	772	1352
13365070	143	769	1446
13365398	59	749	1451
13365726	139	877	1558
13366054	75	826	1614
13366382	37	813	1632
13366710	-11	857	1702
13367038	-23	783	1766
13367366	6	788	1808
13367694	-18	788	1827
13368022	3	762	1796
13368350	-224	826	1712
13368678	62	858	1817
13369006	-40	738	1822
13369334	92	886	1805
13369662	245	921	1747
13369990	230	922	1649
13370318	269	907	1605
13370646	246	852	1553
13370974	320	853	1541
13371302	390	814	1484
13371630	336	703	1449
13371958	379	710	1367
13372286	469	685	1285
13372614	465	650	1249
13372942	1499	964	1059
13373270	591	714	1164
13373598	374	673	1121
13373926	95	652	1015
13374254	-36	729	976
13374582	-106	673	947
13374910	-142	658	944
13375238	-3	661	846
13375566	-62	593	785
13375894	-22	483	743
13376222	24	460	710
13376550	146	454	668
13376878	116	473	644
13377206	-49	511	585
13377534	-226	469	483
13377862	-304	435	494
13378190	-381	454	546
13378518	-678	516	513
13378846	-826	493	497
13379174	-614	743	567
13379502	-694	595	334
13379830	-631	338	294
13380158	-761	514	291
13380486	-904	540	257
13380814	-1112	492	241
13381142	-1252	517	186
13381470	-1402	450	141
13381798	-1413	380	105
13382126	-1336	401	85
13382454	-1226	390	8
13382782	-1160	281	35
13383110	-944	258	15
13383438	-685	191	-21
13383766	-217	83	-99
13384094	-199	143	-158
13384422	-3	-61	-314
13384750	-69	-27	-313
13385078	-97	-38	-318
13385406	-219	-44	-377
13385734	-177	-78	-439
13386062	-7	-86	-504
13386390	263	-108	-560
13386718	541	-118	-566
13387046	746	-62	-543
13387374	697	-28	-532
13387702	582	10	-560
13388030	412	26	-599
13388358	354	109	-600
13388686	568	8	-543
13389014	870	-123	-492
13389342	1089	-117	-438
13389670	1218	-81	-430
13389998	1191	-96	-387
13390326	1095	-145	-359
13390654	896	-181	-328
13390982	577	-165	-288
13391310	251	-164	-268
13391638	26	-177	-244
13391966	-279	-234	-173
13392294	-281	-265	-110
13392622	-278	-248	-31
13392950	-221	-278	21
13393278	-108	-358	58
13393606	30	-400	80
13393934	196	-403	123
13394262	275	-397	184
13394590	214	-400	252
13394918	-20	-422	306
13395246	-264	-444	356
13395574	-499	-437	416
13395902	-609	-457	473
13396230	-541	-494	514
13396558	-397	-502	559
13396886	-214	-542	587
13397214	-86	-581	639
13397542	58	-600	675
13397870	176	-641	696
13398198	225	-657	766
13398526	204	-711	822
13398854	197	-726	868
13399182	137	-781	921
13399510	108	-875	983
13399838	167	-945	1046
13400166	305	-990	1096
13400494	438	-1027	1164
13400822	518	-1072	1235
13401150	484	-1164	1313
13401478	358	-1139	1424
13401806	157	-1171	1500
13402134	-82	-1142	1569
13402462	-381	-1213	1687
13402790	-582	-1252	1779
13403118	-873	-1283	1869
13403446	-1156	-1325	1946
13403774	-1447	-1455	2003
13404102	-1522	-1478	2032
13404430	-1848	-1232	2006
13404758	-2072	-1116	2032
13405086	-2043	-1222	2162
13405414	-2091	-1111	2325
13405742	-2414	-907	2428
13406070	-2837	-666	2511
13406398	-3261	-118	2992
13406726	-4183	109	3544
13407054	-4863	303	4076
13407382	-5649	784	4464
13407710	-6432	1695	4714
13408038	-6912	2372	5098
13408366	-7447	3015	5419
13408694	-7877	3703	5478
13409022	-8349	3974	5653
13409350	-8580	3458	5401
13409678	-7673	2618	5077
13410006	-6161	2238	5014
13410334	-4062	1328	4616
13410662	-1619	-29	3855
13410990	498	-841	3172
13411318	2006	-945	2709
13411646	2447	-1359	2316
13411974	1562	-2316	1550
13412302	961	-2525	1242
13412630	-513	-3344	798
13412958	-2168	-3616	283
13413286	-3642	-3764	-148
13413614	-4624	-3682	-395
13413942	-5322	-3961	-506
13414270	-5557	-4425	-741
13414598	-5127	-4357	-1144
13414926	-4271	-3882	-1510
13415254	-3077	-4129	-1824
13415582	-1736	-4951	-2213
13415910	777	-5705	-2356
13416238	2148	-5846	-2617
13416566	3924	-5488	-2239
13416894	5387	-5616	-1149
13417222	6344	-3691	-117
13417550	7511	-3309	1679
13417878	8395	-1386	2476
13418206	8658	301	1574
13418534	7862	-421	637
13418862	4710	-1497	-326
13419190	653	-5	-39
13419518	-1348	2429	1124
13419846	-1777	3077	1259
13420174	-1784	2753	663
13420502	-2251	2953	405
13420830	-2642	4590	309
13421158	-3698	4801	182
13421486	-4022	3623	-36
13421814	-3653	2380	-300
13422142	-2680	1025	-186
13422470	-1432	-248	-75
13422798	850	-1568	127
13423126	4695	-1326	-124
13423454	6594	110	222
13423782	7175	1500	-55
13424110	4750	2157	190
13424438	715	1668	141
13424766	-2508	1498	-142
13425094	-2784	112	-1058
13425422	-1239	391	-1042
13425750	239	-14	-934
13426078	986	-316	-900
13426406	1398	-177	-957
13426734	1288	-317	-926
13427062	889	-250	-946
13427390	508	-38	-957
13427718	-5	-417	-905
13428046	-188	-468	-911
13428374	-239	-415	-892
13428702	-249	-366	-918
13429030	-305	-313	-885
13429358	-341	-482	-837
13429686	-497	-342	-902
13430014	-473	-321	-918
13430342	-415	-371	-896
13430670	-339	-320	-893
13430998	-257	-351	-902
13431326	-202	-364	-870
13431654	-183	-300	-844
13431982	-210	-299	-777
13432310	-189	-373	-697
13432638	-101	-429	-625
13432966	63	-601	-507
13433294	263	-729	-389
13433622	480	-845	-331
13433950	641	-870	-272
13434278	920	-1044	-289
13434606	1324	-1092	-63
13434934	1423	-688	180
13435262	1845	-405	415
13435590	1853	246	500
13435918	1943	384	948
13436246	1499	923	1322
13436574	1260	1620	1837
13436902	1421	1109	2371
13437230	1885	831	2874
13437558	2512	445	3355
13437886	3190	-421	3559
13438214	4030	-1195	3671
13438542	4896	-1529	3659
13438870	5984	-1935	3839
13439198	6493	-3114	3855
13439526	7643	-3324	3933
13439854	8741	-4092	3713
13440182	9842	-4819	3486
13440510	11013	-5539	3267
13440838	12600	-6366	2805
13441166	13721	-7261	2221
13441494	14806	-7898	1710
13441822	15920	-8310	1334
13442150	16729	-8369	1153
13442478	17382	-7821	1133
13442806	17673	-7032	1266
13443134	17451	-6223	859
13443462	16367	-5206	171
13443790	14541	-4180	-805
13444118	12166	-3108	-1914
13444446	9865	-1715	-2695
13444774	8284	151	-3370
13445102	4345	-162	-4150
13445430	2615	2441	-3377
13445758	5056	5487	-2125
13446086	4729	-4532	308
13446414	8385	-7903	41
13446742	12324	-2100	-844
13447070	13642	2191	-578
13447398	11302	2021	-186
13447726	5265	919	-980
13448054	1040	787	-838
13448382	-377	-961	-1475
13448710	1559	-979	-1061
13449038	4321	-905	-409
13449366	5874	-370	35
13449694	5911	694	166
13450022	5156	1174	57
13450350	4244	1393	87
13450678	2356	916	-164
13451006	1448	417	-254
13451334	1899	9	38
13451662	3074	135	451
13451990	3386	602	692
13452318	2743	1117	679
13452646	1679	1569	516
13452974	667	1325	317
13453302	341	1035	148
13453630	697	592	265
13453958	1444	134	398
13454286	2180	245	498
13454614	2256	773	793
13454942	1363	480	970
13455270	776	788	1087
13455598	64	789	929
13455926	-381	736	867
13456254	-504	641	736
13456582	-536	950	696
13456910	-573	1098	655
13457238	568	643	1101
13457566	-821	2291	792
13457894	-1189	1348	378
13458222	-861	607	853
13458550	-404	240	1070
13458878	-204	182	1267
13459206	-227	72	1340
13459534	-319	49	1330
13459862	-351	205	1340
13460190	-442	350	1339
13460518	-653	605	1283
13460846	-947	567	1273
13461174	-1108	289	1258
13461502	-1242	326	1199
13461830	-1519	267	1191
13462158	-1651	226	1224
13462486	-1692	567	1158
13462814	-1787	480	1205
13463142	-2055	411	1174
13463470	-2153	312	1119
13463798	-2142	489	1029
13464126	-2099	550	987
13464454	-2390	-32	965
13464782	-3431	-1051	825
13465110	-3787	-336	541
13465438	-3771	-245	409
13465766	-3696	-573	715
13466094	-3087	-425	1268
13466422	-2778	-842	2070
13466750	-2499	-1571	2835
13467078	-1993	-2025	3588
13467406	-1522	-2536	4301
13467734	-636	-2823	5054
13468062	-24	-3226	5901
13468390	626	-3514	6820
13468718	638	-2960	7676
13469046	1017	-3109	9044
13469374	791	-3081	8710
13469702	2443	-1068	10998
13470030	1885	-2403	9636
13470358	-1721	146	11919
13470686	213	-3228	10338
13471014	2795	-3865	10977
13471342	7444	1376	8397
13471670	7826	3546	4910
13471998	7043	-1180	68
13472326	9009	-5186	-3904
13472654	11707	-1470	-7343
13472982	11946	1842	-10220
13473310	8055	171	-13289
13473638	3553	-2706	-16775
13473966	-777	-3826	-18599
13474294	-3051	-3995	-19161
13474622	-4104	-3424	-20202
13474950	-4370	-3062	-20934
13475278	-4406	-6201	-21790
13475606	-1247	-3511	-21851
13475934	1948	-5503	-21735
13476262	5935	-7892	-21519
13476590	7342	-11962	-21226
13476918	11218	-13012	-21845
13477246	12695	-14621	-22326
13477574	13857	-14931	-22316
13477902	14365	-17686	-22077
13478230	13667	-20577	-21230
13478558	11790	-19721	-19601
13478886	12692	-14932	-16172
13479214	10923	-13226	-13291
13479542	11654	-12681	-9806
13479870	12833	-11760	-6223
13480198	13502	-10077	-3700
13480526	14559	-8479	-616
13480854	17325	-6649	2494
13481182	18205	-1493	4737
13481510	16762	4500	7451
13481838	15125	7140	10542
13482166	12046	5834	7883
13482494	5992	9009	5692
13482822	3249	5585	4431
13483150	1202	4442	4457
13483478	585	5280	5751
13483806	374	6120	5391
13484134	1854	1572	3293
13484462	1869	2486	1924
13484790	2388	3244	2461
13485118	1367	3030	2669
13485446	-218	3402	2185
13485774	-2085	3522	1304
13486102	-1891	2666	1930
13486430	-1403	2336	2243
13486758	-905	2127	2457
13487086	-1008	1237	2830
13487414	-469	1481	2573
13487742	-53	1988	2865
13488070	662	2012	2744
13488398	1473	1050	2736
13488726	1469	817	2487
13489054	1544	1492	2606
13489382	1413	1539	2463
13489710	2614	1550	2556
13490038	-81	618	2202
13490366	1113	725	2120
13490694	1224	941	1819
13491022	1423	641	1730
13491350	1326	1429	1364
13491678	329	-49	1060
13492006	555	-1190	1119
13492334	820	-1492	1113
13492662	1245	-1095	1105
13492990	1446	-1487	364
13493318	1978	119	457
13493646	1631	-533	351
13493974	827	-1058	93
13494302	95	-1785	-21
13494630	-277	-1587	126
13494958	-544	-1672	128
13495286	-716	-1649	-216
13495614	-1123	-1434	-319
13495942	-1054	-1188	-430
13496270	-1079	-1242	-513
13496598	-1130	-1774	-599
13496926	-1266	-1814	-666
13497254	-1471	-1663	-1033
13497582	-1493	-1525	-1240
13497910	-1329	-1727	-1470
13498238	-1284	-2321	-1720
13498566	-1631	-2867	-2187
13498894	-2316	-2989	-3011
13499222	-2152	-3157	-3711
13499550	-2047	-3397	-4252
13499878	-2281	-3696	-4876
13500206	-2624	-4231	-5768
13500534	-3341	-4840	-6873
13500862	-4760	-6036	-7908
13501190	-6025	-7519	-8705
13501518	-7197	-8453	-10198
13501846	-7547	-8620	-11742
13502174	-9463	-8203	-11791
13502502	-10696	-7023	-12167
13502830	-14344	-4823	-12107
13503158	-18322	-3080	-11175
13503486	-21344	-2532	-7412
13503814	-21466	-684	-1774
13504142	-17638	-1031	4986
13504470	-12592	1257	10952
13504798	-9855	4234	15228
13505126	-10471	6481	17482
13505454	-10439	8838	18542
13505782	-10482	9625	18976
13506110	-9605	9242	19422
13506438	-8148	9325	20150
13506766	-7410	9657	19794
13507094	-7645	9723	19224
13507422	-8913	9858	18048
13507750	-10082	10183	16763
13508078	-9675	11446	16506
13508406	-13564	13982	14939
13508734	-16653	15982	13515
13509062	-20396	17598	11445
13509390	-21629	15859	10978
13509718	-21995	14967	9760
13510046	-24402	15946	9580
13510374	-24777	18181	7589
13510702	-24669	16663	5823
13511030	-24406	14859	5308
13511358	-25346	14736	4548
13511686	-26087	14311	4107
13512014	-26642	13200	3760
13512342	-26682	13768	3357
13512670	-26774	12029	3053
13512998	-25602	10830	2996
13513326	-24703	11192	3435
13513654	-24175	11763	3583
13513982	-23959	11955	3023
13514310	-24135	12323	2919
13514638	-24225	12514	2285
13514966	-24004	12219	1692
13515294	-23145	11747	1235
13515622	-21258	10986	559
13515950	-19188	9890	-8
13516278	-17911	8608	-339
13516606	-16620	7124	-288
13516934	-15560	6461	-457
13517262	-15354	7104	-616
13517590	-14902	8313	-1494
13517918	-14453	8712	-2843
13518246	-13694	8521	-4882
13518574	-11130	9138	-6979
13518902	-9697	8069	-8225
13519230	-9600	6234	-5722
13519558	-9099	7326	-1861
13519886	-7865	5079	-835
13520214	-6503	115	-687
13520542	-2546	-479	49
13520870	1381	138	-235
13521198	5249	918	518
13521526	5739	4724	1154
13521854	5222	6226	1753
13522182	2245	1862	2801
13522510	-503	2429	2617
13522838	-2312	4909	2488
13523166	-2203	4117	2353
13523494	-1655	3044	1496
13523822	-732	3050	1363
13524150	-598	2840	1360
13524478	-894	2176	1644
13524806	-605	2014	1156
13525134	-971	1655	922
13525462	-1051	2343	1168
13525790	-1215	2737	969
13526118	-1256	2813	959
13526446	-946	2638	713
13526774	-917	2371	750
13527102	-414	1533	825
13527430	301	14	854
13527758	1108	-173	1155
13528086	1264	-688	1021
13528414	1145	-1544	943
13528742	628	-1532	837
13529070	322	-1231	829
13529398	156	-1763	736
13529726	-108	-2054	574
13530054	-58	-1920	448
13530382	50	-1631	363
13530710	360	-1308	373
13531038	661	-1697	360
13531366	768	-1894	306
13531694	99	-1858	276
13532022	-216	-2359	231
13532350	143	-2040	287
13532678	-267	-2093	389
13533006	12	-1691	515
13533334	-236	-1687	532
13533662	-797	-1655	382
13533990	-335	-1673	537
13534318	134	-1892	465
13534646	552	-1683	396
13534974	805	-1646	400
13535302	914	-1843	379
13535630	826	-1834	281
13535958	584	-1849	-25
13536286	239	-2022	-337
13536614	-42	-2149	-588
13536942	-200	-2353	-882
13537270	-738	-2593	-1291
13537598	-1224	-2920	-1554
13537926	-1455	-3193	-1680
13538254	-1755	-3985	-2110
13538582	-1521	-4953	-2668
13538910	-1247	-5287	-3049
13539238	-899	-5577	-3165
13539566	-1464	-6049	-3778
13539894	-2924	-6724	-4371
13540222	-4055	-6560	-4735
13540550	-4287	-5541	-5434
13540878	-5266	-4458	-5702
13541206	-5772	-2881	-5322
13541534	-6568	737	-4889
13541862	-6423	3373	-3294
13542190	-10144	7834	-3818
13542518	-14910	10489	-2875
13542846	-17937	10749	-745
13543174	-18009	11731	1349
13543502	-16549	12444	3413
13543830	-13944	11461	4650
13544158	-13323	11937	3981
13544486	-14205	11834	2340
13544814	-13532	11105	1350
13545142	-12458	9415	-662
13545470	-10244	8245	-1674
13545798	-8517	7257	-1989
13546126	-7975	7125	-1946
13546454	-8171	6803	-1979
13546782	-7296	6802	-1355
13547110	-7338	6483	-765
13547438	-7232	6862	-298
13547766	-6822	7132	227
13548094	-6226	7185	682
13548422	-5397	7061	937
13548750	-5113	6414	1347
13549078	-4656	5862	1751
13549406	-3895	5484	2164
13549734	-3164	5287	2441
13550062	-2741	5163	2526
13550390	-2507	4837	2458
13550718	-2356	4560	2285
13551046	-2355	4450	2175
13551374	-2493	4142	2008
13551702	-2783	3750	1660
13552030	-2750	3651	1687
13552358	-2253	2877	1577
13552686	-1815	2373	1520
13553014	-1514	1983	1437
13553342	-1181	1629	1278
13553670	-784	1299	1180
13553998	-674	1054	945
13554326	-605	718	838
13554654	-333	504	662
13554982	-115	223	466
13555310	85	-117	336
13555638	271	-272	198
13555966	582	-441	170
13556294	736	-342	398
13556622	708	-31	570
13556950	409	324	815
13557278	263	-6	738
13557606	233	556	1266
13557934	146	617	1577
13558262	-45	452	1685
13558590	22	604	1944
13558918	177	209	1952
13559246	766	-43	1962
13559574	813	-133	2034
13559902	664	5	2082
13560230	1141	-215	2257
13560558	1631	-1093	2441
13560886	1583	-1812	2562
13561214	1258	-1914	2661
13561542	969	-1973	2726
13561870	824	-2598	3099
13562198	1410	-3012	3713
13562526	2158	-2153	4410
13562854	3062	-1064	5150
13563182	3842	-179	5757
13563510	3957	402	5934
13563838	3485	902	5963
13564166	2478	658	5726
13564494	2020	-498	5355
13564822	1586	-2189	5021
13565150	1125	-2498	4543
13565478	207	-164	5062
13565806	3109	5875	5816
13566134	2975	-4349	5643
13566462	4257	-6443	4710
13566790	7296	-2884	4185
13567118	7813	-181	4210
13567446	6060	4226	3511
13567774	3704	3562	3181
13568102	956	686	2912
13568430	852	716	3360
13568758	143	2800	2601
13569086	-714	2918	2736
13569414	-1987	3002	2705
13569742	-2913	2857	2700
13570070	-3119	2059	2474
13570398	-2533	1208	2512
13570726	-1815	1325	2716
13571054	-1669	1961	2940
13571382	-2032	2267	2910
13571710	-2105	2096	2838
13572038	-1862	1710	2855
13572366	-1810	1935	3083
13572694	-1634	1894	2669
13573022	-1980	1825	2812
13573350	-2433	1617	2700
13573678	-2964	1773	2538
13574006	-6936	668	3579
13574334	-2349	2078	1357
13574662	-4307	5425	1787
13574990	-4741	3261	1451
13575318	-5551	2099	1017
13575646	-5317	1712	1347
13575974	-5478	1420	1569
13576302	-6473	1393	1608
13576630	-7057	2154	1561
13576958	-8464	2279	1397
13577286	-9713	1240	1669
13577614	-10942	1085	1886
13577942	-12114	1046	2618
13578270	-13067	1219	3298
13578598	-12458	2440	3609
13578926	-13334	2097	4653
13579254	-13317	-1125	5101
13579582	-11069	-3084	6219
13579910	-8403	-3449	7878
13580238	-5285	-3853	5931
13580566	-810	855	9552
13580894	1980	-2952	7454
13581222	3653	-6236	5538
13581550	5047	-6700	3923
13581878	5278	-5834	2137
13582206	6026	-3479	70
13582534	4347	-3096	-3630
13582862	5943	-6947	-7880
13583190	9306	-8284	-10168
13583518	10882	-5257	-9223
13583846	9061	-664	-7629
13584174	4284	-970	-6195
13584502	-2363	-2976	-5189
13584830	-6741	-40	-5551
13585158	-7622	1551	-7238
13585486	-5542	349	-8753
13585814	-4210	1044	-10809
13586142	-3145	655	-8689
13586470	-1882	2575	-7397
13586798	-2129	3598	-6548
13587126	-3548	3027	-5549
13587454	-6058	1262	-4082
13587782	-5062	2425	-2017
13588110	-5705	2717	-957
13588438	-6271	1967	-103
13588766	-6688	1001	-180
13589094	-6760	-187	-902
13589422	-5769	-922	-930
13589750	-2818	-2897	-3154
13590078	-1467	-2180	-1738
13590406	1185	478	-239
13590734	3164	-1188	219
13591062	4142	-2202	222
13591390	4649	-430	951
13591718	5193	343	1574
13592046	4697	-155	2265
13592374	4139	241	3093
13592702	4061	150	3375
13593030	4033	-289	3816
13593358	4442	-327	4106
13593686	5243	-613	4523
13594014	6420	-1004	4828
13594342	7365	-1294	4975
13594670	7985	-1954	4787
13594998	8538	-2716	4346
13595326	8868	-3904	3878
13595654	9041	-4633	3270
13595982	9321	-4836	2802
13596310	9581	-5650	2392
13596638	10163	-6294	1964
13596966	11038	-7013	1441
13597294	11428	-7594	931
13597622	12087	-7948	806
13597950	12413	-7702	846
13598278	12530	-6779	734
13598606	12107	-5785	298
13598934	12254	-4082	136
13599262	10533	-2545	-734
13599590	8457	-1550	-1318
13599918	6297	-889	-2143
13600246	3984	-1158	-2769
13600574	1580	524	-3560
13600902	-747	350	-3112
13601230	-1319	-532	-3189
13601558	-773	-1410	-2965
13601886	466	-2055	-2494
13602214	1789	-1997	-2292
13602542	3893	-3219	-1442
13602870	4059	-2082	-1754
13603198	4926	-1767	-1822
13603526	4611	-1947	-1528
13603854	3916	-1572	-1565
13604182	3066	-1495	-1694
13604510	2199	-1297	-1559
13604838	1606	-978	-1544
13605166	1600	-1030	-1038
13605494	1773	-1208	-254
13605822	1791	-1441	-265
13606150	1469	-550	3
13606478	753	-584	-14
13606806	-467	-644	-312
13607134	-1285	-529	-475
13607462	-1638	-642	-722
13607790	-1228	-1408	-600
13608118	-553	-788	-432
13608446	37	-591	-125
13608774	926	-1081	67
13609102	892	-1365	214
13609430	817	-1350	227
13609758	453	-1648	375
13610086	-23	-1867	435
13610414	-392	-1871	392
13610742	-1070	-1664	440
13611070	-1079	-1573	322
13611398	-1117	-1859	402
13611726	-1344	-2022	452
13612054	-1273	-2362	662
13612382	-1795	-3025	807
13612710	-2387	-3200	845
13613038	-1845	-3439	932
13613366	-1119	-5357	1239
13613694	126	-7236	1818
13614022	1976	-8546	1857
13614350	4627	-9415	2039
13614678	7694	-9483	2322
13615006	9724	-8718	2440
13615334	9784	-8526	2401
13615662	9180	-8687	2168
13615990	9061	-8440	1799
13616318	9026	-7846	1307
13616646	8166	-7048	893
13616974	6527	-6613	415
13617302	5722	-5776	114
13617630	5066	-5400	-294
13617958	4065	-5202	-689
13618286	2929	-4291	-977
13618614	1659	-3027	-1011
13618942	368	-2188	-973
13619270	-1026	-1651	-874
13619598	-1818	-1459	-902
13619926	-2107	-1454	-869
13620254	-1610	-1336	-876
13620582	-1079	-707	-1043
13620910	-832	-470	-1099
13621238	-1060	-629	-1022
13621566	-1403	-1175	-1012
13621894	-1761	-719	-1414
13622222	-221	-560	-1465
13622550	-309	-1456	-1572
13622878	1064	-1919	-1354
13623206	2108	-2167	-1086
13623534	3170	-1919	-684
13623862	2958	-1746	-398
13624190	2531	-1874	-37
13624518	1959	-1666	297
13624846	1136	-1619	597
13625174	442	-1319	833
13625502	198	-1306	1056
13625830	-101	-1673	1388
13626158	-197	-1762	1866
13626486	-524	-1750	2377
13626814	-1012	-1884	2940
13627142	-1251	-2062	3599
13627470	-1350	-2157	4396
13627798	-1515	-2270	5333
13628126	-1707	-2243	6157
13628454	-1858	-2305	7002
13628782	-1079	-2214	8138
13629110	4	-2306	9207
13629438	883	-1515	10284
13629766	2396	-1365	10830
13630094	1664	-3617	9157
13630422	1799	-8264	12216
13630750	4222	-11132	10669
13631078	8607	-7452	8839
13631406	11954	-4026	8657
13631734	14726	-1873	9224
13632062	18278	-1743	8453
13632390	15694	-1611	7279
13632718	12083	114	3861
13633046	10895	-1035	247
13633374	11941	-3594	-2396
13633702	12670	-2473	-4446
13634030	12094	1625	-6730
13634358	10279	2387	-9084
13634686	7250	-261	-11400
13635014	3210	-3255	-12814
13635342	2394	-2069	-14272
13635670	-2008	-7897	-15035
13635998	1394	-3089	-17286
13636326	-2547	-5363	-18946
13636654	-2138	-7936	-19742
13636982	288	-9445	-20697
13637310	2775	-9470	-20629
13637638	5561	-9944	-20735
13637966	8185	-11292	-20888
13638294	10677	-12902	-20976
13638622	11621	-14507	-22380
13638950	13308	-15055	-21315
13639278	13960	-15659	-21711
13639606	12521	-17744	-21354
13639934	11923	-18784	-20863
13640262	9923	-18227	-19061
13640590	9050	-16700	-16616
13640918	10605	-13098	-13500
13641246	11139	-12390	-11138
13641574	10824	-12019	-8927
13641902	10845	-10564	-6237
13642230	10467	-9034	-4112
13642558	10758	-7039	-2444
13642886	10385	-2361	38
13643214	7200	3693	2263
13643542	7249	3241	4318
13643870	1664	4886	4667
13644198	-1612	7713	5710
13644526	-2219	9130	6622
13644854	-2950	10305	6755
13645182	-489	9173	6705
13645510	1103	-421	5741
13645838	3240	2121	5946
13646166	4366	4879	6119
13646494	4966	6812	4091
13646822	1874	6367	2754
13647150	424	3966	2105
13647478	-1203	3135	1617
13647806	-1092	2715	1737
13648134	-883	1211	1511
13648462	34	956	1665
13648790	924	401	1322
13649118	951	-371	1376
13649446	475	-1427	966
13649774	123	255	1256
13650102	-479	734	1218
13650430	-638	1152	1392
13650758	-928	1027	1510
13651086	-1061	1825	1836
13651414	-1429	2761	2170
13651742	-1849	2677	2338
13652070	-2880	2596	2034
13652398	-3114	2739	1891
13652726	-3296	2968	1565
13653054	-3226	3251	1363
13653382	-3660	4061	1874
13653710	-3737	4346	1784
13654038	-3899	4124	1801
13654366	-4237	4524	1777
13654694	-4606	4575	1588
13655022	-5176	4994	1238
13655350	-5890	6361	605
13655678	-6411	7143	-524
13656006	-6627	7192	-622
13656334	-7093	7522	-439
13656662	-7447	7603	-241
13656990	-6542	7151	440
13657318	-5336	6733	1231
13657646	-3317	6064	1961
13657974	-1546	4605	2576
13658302	241	3031	2925
13658630	1581	1789	2973
13658958	2156	366	2590
13659286	1774	-813	2289
13659614	1412	-999	2490
13659942	2000	2232	2551
13660270	2873	6074	1687
13660598	3030	-915	2052
13660926	2421	-525	2387
13661254	1298	2383	2712
13661582	-781	1067	2459
13661910	-1786	184	1676
13662238	-1176	851	1566
13662566	-188	1205	2012
13662894	212	1795	2205
13663222	252	2190	2251
13663550	163	2202	1988
13663878	-187	2678	2193
13664206	-476	2966	2355
13664534	-1428	2871	2282
13664862	-2002	3016	2290
13665190	-2141	2507	2355
13665518	-2214	2394	2347
13665846	-2157	2391	2432
13666174	-2353	2299	2458
13666502	-2540	2294	2379
13666830	-2684	2148	2363
13667158	-2649	1820	2376
13667486	-2735	1679	2258
13667814	-2573	1615	2210
13668142	-2561	1406	2105
13668470	-2642	1276	2022
13668798	-2787	1247	1986
13669126	-3172	1097	1952
13669454	-3382	972	1925
13669782	-3752	819	1779
13670110	-3559	745	1992
13670438	-3090	540	2108
13670766	-3498	255	2334
13671094	-4057	297	2836
13671422	-4926	553	3215
13671750	-5658	680	3370
13672078	-5946	635	3682
13672406	-5544	492	3945
13672734	-4442	115	4326
13673062	-3252	587	4437
13673390	-2057	-260	4375
13673718	-848	-963	4014
13674046	215	-1246	3458
13674374	914	-941	2732
13674702	1115	-893	2457
13675030	1671	-602	2172
13675358	594	-967	1614
13675686	-418	-856	1219
13676014	-1284	-334	964
13676342	-2549	82	476
13676670	-3889	-103	246
13676998	-4898	-255	77
13677326	-6053	-1324	8
13677654	-5798	-2349	347
13677982	-4436	-2646	570
13678310	-2787	-2133	539
13678638	-1381	-2125	429
13678966	24	-2377	274
13679294	1529	-2623	-20
13679622	2849	-2476	-141
13679950	3700	-2275	81
13680278	3693	-2050	546
13680606	2982	-1682	840
13680934	1932	-1254	1330
13681262	765	-735	1961
13681590	-442	-362	2748
13681918	-1340	657	3418
13682246	-1500	862	4366
13682574	-1260	925	5673
13682902	-1406	1676	7143
13683230	-1632	2275	8353
13683558	-1797	2442	9662
13683886	-1187	1846	11073
13684214	-1853	573	11552
13684542	-999	1878	14085
13684870	-505	2216	13457
13685198	158	916	12200
13685526	3876	-355	12336
13685854	7033	1915	12070
13686182	6777	4766	10977
13686510	7173	4172	9231
13686838	7499	1261	6227
13687166	6015	691	2526
13687494	3777	4421	-1752
13687822	3467	4425	-4991
13688150	3247	1882	-7916
13688478	3800	2098	-11958
13688806	5567	1696	-13268
13689134	3671	871	-14672
13689462	3378	75	-15578
13689790	1690	-1276	-16671
13690118	482	-2487	-17613
13690446	-515	-2395	-18442
13690774	-1133	-2409	-18734
13691102	-276	-4372	-18622
13691430	83	-5376	-19193
13691758	2079	-6884	-19159
13692086	2992	-9123	-19097
13692414	4105	-10597	-18961
13692742	5429	-11220	-19340
13693070	6613	-12388	-20343
13693398	7533	-13754	-21158
13693726	7481	-14971	-22178
13694054	7285	-16222	-23110
13694382	6847	-17736	-23718
13694710	6569	-18563	-22878
13695038	8573	-15875	-20259
13695366	8507	-14628	-17821
13695694	10355	-13405	-15307
13696022	12874	-12913	-12167
13696350	15145	-11967	-8019
13696678	17005	-9081	-3903
13697006	16495	-3918	294
13697334	14732	1619	4180
13697662	12705	4132	6332
13697990	11288	3910	7874
13698318	8626	9725	11356
13698646	7381	12498	13363
13698974	6457	8882	8907
13699302	2009	3985	5914
13699630	2418	8141	4930
13699958	4090	9557	5300
13700286	4040	10079	4123
13700614	894	6520	4231
13700942	844	3381	3314
13701270	-1001	3898	4243
13701598	-313	5084	4771
13701926	-1261	1955	5441
13702254	237	981	4300
13702582	1162	1347	3256
13702910	1584	1041	1874
13703238	1283	869	2548
13703566	489	431	2584
13703894	-56	382	2062
13704222	-231	724	2007
13704550	1201	1378	1844
13704878	231	2215	1661
13705206	46	1176	1430
13705534	-116	1923	1116
13705862	-194	1525	991
13706190	-279	346	1326
13706518	77	146	1161
13706846	218	80	860
13707174	595	-23	973
13707502	-72	-1284	637
13707830	805	386	750
13708158	407	45	186
13708486	452	-176	-45
13708814	-124	-125	-285
13709142	-728	-744	-519
13709470	-214	-298	-744
13709798	-615	-1027	-772
13710126	-754	-1789	-922
13710454	-895	-1398	-979
13710782	-746	-1394	-1107
13711110	-524	-1533	-1118
13711438	-324	-1611	-1177
13711766	-321	-1642	-1187
13712094	-647	-1560	-1385
13712422	-1078	-1237	-1637
13712750	-959	-1271	-1466
13713078	-851	-1467	-1347
13713406	-337	-1195	-1070
13713734	-241	-1478	-735
13714062	-68	-1746	-342
13714390	-9	-1993	-29
13714718	553	-2444	200
13715046	801	-3273	519
13715374	1870	-3902	693
13715702	3300	-3808	891
13716030	4456	-4381	1425
13716358	5992	-5135	2171
13716686	7625	-6856	2628
13717014	9198	-8911	3134
13717342	10849	-10619	3871
13717670	12998	-11438	3779
13717998	15918	-12021	3294
13718326	19638	-11925	3308
13718654	22770	-11880	3693
13718982	23994	-13263	3995
13719310	24257	-14635	4217
13719638	24302	-15669	4067
13719966	24178	-16261	3927
13720294	24026	-16284	3746
13720622	24909	-16718	2703
13720950	25737	-16340	2247
13721278	26544	-15871	993
13721606	25853	-15208	91
13721934	24086	-14942	-633
13722262	21824	-14640	-1193
13722590	21087	-13017	-1287
13722918	20974	-10077	-783
13723246	21144	-7534	-615
13723574	21624	-6582	-1143
13723902	20544	-5951	-1764
13724230	17904	-5209	-2746
13724558	14345	-3233	-2871
13724886	9878	-1746	-2999
13725214	7115	-1245	-3240
13725542	5681	-1614	-3530
13725870	5539	-924	-3474
13726198	5148	108	-3277
13726526	4430	743	-3173
13726854	3553	1193	-3253
13727182	3287	-199	-2735
13727510	3244	-973	-2403
13727838	4235	-1335	-1190
13728166	5293	-2314	-106
13728494	7652	-2456	65
13728822	9759	-577	595
13729150	9449	258	1519
13729478	5473	1999	2219
13729806	1854	1152	370
13730134	-204	1755	-520
13730462	-1822	1636	-612
13730790	-1831	28	-96
13731118	400	-1584	416
13731446	3846	-3109	1286
13731774	7365	-3695	2168
13732102	8707	-3436	2607
13732430	8835	-3483	2479
13732758	8360	-3841	2339
13733086	7306	-3851	2454
13733414	7459	-2891	1748
13733742	5421	-1885	1757
13734070	5637	-3301	1792
13734398	5096	-4298	1991
13734726	5489	-4543	2361
13735054	5513	-4465	2517
13735382	5189	-4136	2589
13735710	4516	-3887	2442
13736038	3834	-3538	2255
13736366	3332	-2817	2018
13736694	2694	-2116	1898
13737022	1812	-1326	1537
13737350	503	-508	1277
13737678	-681	-111	1062
13738006	-2012	-101	912
13738334	-2936	-388	646
13738662	-3858	-134	465
13738990	-4442	4	335
13739318	-4762	-4	302
13739646	-4535	191	267
13739974	-3687	-381	299
13740302	-1848	-2169	779
13740630	343	-3455	1108
13740958	1873	-3005	1388
13741286	2048	-2424	1502
13741614	1751	-2546	1434
13741942	949	-2828	1360
13742270	276	-3041	890
13742598	-297	-2575	395
13742926	-129	-3030	75
13743254	92	-3269	46
13743582	354	-3786	-9
13743910	753	-4302	114
13744238	891	-4713	341
13744566	-959	-6521	832
13744894	2918	-2741	1457
13745222	-356	-3675	807
13745550	-1793	-5285	1571
13745878	-1277	-5052	1761
13746206	-732	-5926	2783
13746534	330	-7932	3843
13746862	2363	-8778	4801
13747190	4293	-8609	5566
13747518	5187	-7764	6134
13747846	5561	-6967	6475
13748174	5643	-6185	6944
13748502	5171	-5759	6668
13748830	4789	-5341	6582
13749158	68	-4892	6669
13749486	1890	-6779	7181
13749814	4555	-8053	7169
13750142	6801	-4493	6997
13750470	12125	-1515	6695
13750798	12282	-138	6355
13751126	12234	-143	3810
13751454	13731	-3349	1103
13751782	14905	-3614	-1430
13752110	15314	-882	-3213
13752438	14322	-398	-5622
13752766	11694	-284	-7017
13753094	8419	2	-8752
13753422	6931	-1231	-9422
13753750	3740	-2836	-10856
13754078	2200	-7408	-13482
13754406	465	-13544	-13436
13754734	8776	-9835	-15891
13755062	9054	-9798	-17609
13755390	10828	-12198	-17787
13755718	11605	-13564	-18521
13756046	12024	-14314	-18823
13756374	13247	-14897	-19185
13756702	13476	-16011	-20017
13757030	14168	-17437	-21078
13757358	15838	-18854	-21723
13757686	15075	-20056	-22519
13758014	14992	-20003	-23257
13758342	14917	-19628	-22367
13758670	16571	-18973	-19666
13758998	16032	-18699	-15781
13759326	15186	-17325	-12290
13759654	15780	-12990	-8615
13759982	15436	-10083	-5184
13760310	15213	-9133	-2572
13760638	15612	-8806	-375
13760966	17300	-6531	2105
13761294	15090	-1619	3801
13761622	15418	6289	6674
13761950	14384	1959	9526
13762278	11642	6019	8147
13762606	6956	10027	4115
13762934	3529	9291	3473
13763262	2595	8532	4698
13763590	3070	6495	5438
13763918	2625	5376	5931
13764246	2545	4853	5008
13764574	2260	3612	3406
13764902	2018	3946	3047
13765230	882	4355	3145
13765558	-1170	3928	3885
13765886	-2363	3295	3494
13766214	-1584	3119	2973
13766542	-378	2191	2900
13766870	501	1916	3474
13767198	1913	1657	3025
13767526	2554	1594	3608
13767854	2291	1089	3002
13768182	1824	1575	2468
13768510	1810	1290	2422
13768838	1718	326	2185
13769166	2145	397	2191
13769494	1534	-358	1590
13769822	1517	1453	2048
13770150	1070	1727	1796
13770478	966	1275	1675
13770806	953	1022	1584
13771134	771	949	1489
13771462	800	754	1424
13771790	611	391	1275
13772118	327	122	1190
13772446	219	160	1098
13772774	103	116	961
13773102	187	-428	714
13773430	-250	-494	631
13773758	93	-1102	-52
13774086	639	207	-217
13774414	433	-47	-197
13774742	583	-299	-43
13775070	266	-157	-16
13775398	-192	-562	-91
13775726	-384	-926	-173
13776054	-594	-683	-252
13776382	-815	-630	-225
13776710	-753	-540	-258
13777038	-1129	-366	-382
13777366	-1430	-48	-479
13777694	-1566	-317	-574
13778022	-1548	-560	-566
13778350	-1283	-462	-554
13778678	-1086	-542	-475
13779006	-1072	-540	-393
13779334	-1335	-530	-445
13779662	-1697	-594	-581
13779990	-1791	-977	-702
13780318	-1743	-1346	-764
13780646	-1413	-1468	-799
13780974	-1128	-1426	-1025
13781302	-1099	-1363	-1431
13781630	-1340	-1684	-2035
13781958	-1322	-2040	-2614
13782286	-1097	-2594	-3307
13782614	-844	-2802	-3904
13782942	-1031	-2990	-4591
13783270	-1852	-3577	-5310
13783598	-2972	-4201	-6225
13783926	-4320	-5107	-7358
13784254	-5414	-6228	-8180
13784582	-6451	-7029	-9240
13784910	-6794	-7130	-10269
13785238	-8585	-7483	-10806
13785566	-9989	-7065	-11079
13785894	-14294	-4892	-11480
13786222	-17386	-2253	-11703
13786550	-21387	-1141	-10116
13786878	-22880	1443	-597
13787206	-21484	3781	4966
13787534	-21138	6126	8418
13787862	-21207	7347	10202
13788190	-21130	7521	11503
13788518	-20005	6536	12716
13788846	-18113	5578	13833
13789174	-15299	4909	14492
13789502	-12185	3725	14693
13789830	-8795	2664	15317
13790158	-6796	3411	14970
13790486	-6925	3539	14611
13790814	-7814	3533	13876
13791142	-8643	4954	12089
13791470	-10816	3772	10229
13791798	-11637	3622	9316
13792126	-13113	3236	7882
13792454	-14250	2025	6335
13792782	-14179	1801	5837
13793110	-13584	1435	4963
13793438	-13559	939	4111
13793766	-13392	-317	3660
13794094	-12766	-564	2973
13794422	-12240	-320	2323
13794750	-11957	-652	1675
13795078	-11911	-907	1313
13795406	-11817	-910	1065
13795734	-11491	-736	929
13796062	-11060	-471	944
13796390	-10762	-274	1080
13796718	-10540	296	1295
13797046	-10911	972	1447
13797374	-11100	1157	1549
13797702	-10842	989	1226
13798030	-11919	1855	1473
13798358	-13167	3089	1390
13798686	-14138	4689	1409
13799014	-15287	5751	1331
13799342	-14507	5252	2250
13799670	-13999	5197	2909
13799998	-13778	6212	3229
13800326	-12879	7099	3888
13800654	-12319	7823	4341
13800982	-12337	9262	4527
13801310	-12860	10678	4488
13801638	-12173	10771	4840
13801966	-11442	11882	4776
13802294	-10960	13063	4428
13802622	-9893	13446	3580
13802950	-12571	13963	2120
13803278	-13915	10412	1805
13803606	-6897	3773	5667
13803934	-5453	1672	6339
13804262	-1832	7216	6358
13804590	-974	5848	6565
13804918	-1267	5620	6279
13805246	-690	7916	6050
13805574	76	7764	5359
13805902	80	6593	5173
13806230	2908	5764	5721
13806558	1677	5152	6076
13806886	-881	4352	5836
13807214	-708	3908	5103
13807542	1567	4148	4514
13807870	3492	2524	4486
13808198	5103	1862	3969
13808526	4582	2440	4070
13808854	4877	2438	3348
13809182	3513	3188	3204
13809510	2034	3136	3032
13809838	1182	2680	2799
13810166	467	2431	2762
13810494	-42	2815	2471
13810822	-122	2801	2459
13811150	-234	3097	2167
13811478	-525	3341	2021
13811806	-847	3179	2018
13812134	-1125	3224	2071
13812462	-1591	3127	2389
13812790	-1969	2552	2582
13813118	-2452	2253	2535
13813446	-2568	2148	2555
13813774	-2840	1957	2420
13814102	-2666	2780	2352
13814430	-3119	3111	2226
13814758	-2625	2519	1986
13815086	-2697	2437	2040
13815414	-2911	2652	1794
13815742	-2805	2703	1616
13816070	-3172	3132	1634
13816398	-3660	3484	1559
13816726	-4664	3832	1385
13817054	-5015	3590	1255
13817382	-5562	3410	1102
13817710	-5757	3270	1016
13818038	-5827	3215	966
13818366	-6112	3004	917
13818694	-6419	2509	913
13819022	-6680	2062	920
13819350	-6632	1475	1278
13819678	-6694	774	1048
13820006	-5298	466	1592
13820334	-4969	21	1819
13820662	-5052	-609	2310
13820990	-5072	-1200	2310
13821318	-4871	-1836	2513
13821646	-4152	-2228	2559
13821974	-3396	-2429	2882
13822302	-1377	-1504	2871
13822630	-951	-2640	2941
13822958	-232	-2182	2946
13823286	-146	-477	2732
13823614	-466	795	2285
13823942	-689	-377	2012
13824270	124	-1272	1941
13824598	555	-2283	1570
13824926	1249	-2621	1217
13825254	1921	-2172	48
13825582	3344	-2943	-1315
13825910	4331	-3626	-2249
13826238	4510	-2320	-1677
13826566	2958	-1001	-1098
13826894	1132	-367	-921
13827222	-1607	-877	-1155
13827550	-2768	-227	-1247
13827878	-3180	232	-1328
13828206	-3586	-26	-1439
13828534	-4432	-478	-1522
13828862	-5775	-699	-1453
13829190	-6508	-421	-1175
13829518	-6660	-475	-870
13829846	-6236	-866	-722
13830174	-5125	-713	-420
13830502	-3391	-96	-246
13830830	-1555	-380	-75
13831158	346	-1583	394
13831486	1892	-1351	831
13831814	2732	-569	1196
13832142	2763	-620	1554
13832470	3044	-5	1964
13832798	2557	358	2213
13833126	2350	354	2451
13833454	2092	509	2710
13833782	1851	738	2927
13834110	2079	700	3016
13834438	2325	503	3083
13834766	2904	282	3146
13835094	2989	-134	3114
13835422	3315	-185	3055
13835750	3595	-522	2996
13836078	3962	-1023	2751
13836406	4215	-1604	2313
13836734	4611	-2463	1876
13837062	5062	-3197	1293
13837390	5805	-3584	871
13837718	6834	-4124	696
13838046	8127	-4687	569
13838374	9432	-5265	464
13838702	10337	-5569	352
13839030	10769	-5363	112
13839358	10658	-5365	-286
13839686	10229	-5207	-720
13840014	10288	-4808	-620
13840342	8796	-4713	-1295
13840670	7473	-4752	-1669
13840998	6504	-5150	-1878
13841326	5663	-5143	-1885
13841654	4872	-4757	-1910
13841982	4457	-4245	-2033
13842310	4132	-3893	-2207
13842638	4028	-3414	-2302
13842966	4293	-2614	-2366
13843294	4601	-1682	-2423
13843622	4038	-1170	-2263
13843950	2877	-1248	-1847
13844278	1727	-1440	-1611
13844606	1012	-1540	-1428
13844934	458	-2275	-1101
13845262	332	-2580	-1030
13845590	1221	-2141	-1027
13845918	2969	-1685	-1063
13846246	3812	-1017	-867
13846574	3203	-537	-901
13846902	2142	160	-1051
13847230	182	-132	-1242
13847558	-1206	-631	-1244
13847886	-1730	-1084	-1179
13848214	-1365	-1405	-1012
13848542	-662	-1632	-977
13848870	82	-1643	-1081
13849198	623	-1623	-1078
13849526	633	-1565	-1103
13849854	706	-1639	-1136
13850182	949	-1804	-1121
13850510	1608	-1954	-789
13850838	1688	-2637	-839
13851166	2076	-2804	-682
13851494	2261	-2714	-547
13851822	2040	-2606	-512
13852150	1105	-2489	-327
13852478	391	-2652	-153
13852806	-271	-2831	101
13853134	-677	-2614	486
13853462	-588	-2745	582
13853790	-300	-3123	641
13854118	67	-4030	636
13854446	497	-4728	749
13854774	927	-4514	853
13855102	1335	-4245	953
13855430	1674	-4243	775
13855758	2026	-4239	352
13856086	2323	-3957	21
13856414	2558	-3607	-375
13856742	2615	-3822	-1122
13857070	2453	-2513	-1533
13857398	1798	-2049	-1642
13857726	787	-2143	-1682
13858054	-459	-1788	-2051
13858382	-1009	-1764	-2158
13858710	-99	-2270	-2015
13859038	1629	-3610	-1676
13859366	3706	-3288	-1239
13859694	4953	-1770	-1008
13860022	4199	-1757	-954
13860350	3122	-1635	-1131
13860678	2458	-1281	-1113
13861006	1746	-863	-1094
13861334	874	-911	-906
13861662	260	-537	-826
13861990	77	-327	-615
13862318	80	200	-509
13862646	-94	1179	-603
13862974	-698	1374	-828
13863302	-1455	887	-942
13863630	-1843	-123	-772
13863958	-1464	-1003	-395
13864286	-359	-743	25
13864614	134	-766	442
13864942	-38	-356	742
13865270	-589	-759	880
13865598	-1233	-606	950
13865926	-1615	-1042	1092
13866254	-1868	-1360	1541
13866582	-2201	-1584	1873
13866910	-2319	-1542	2086
13867238	-2488	-2055	2524
13867566	-2122	-2496	3292
13867894	-1207	-1350	3405
13868222	-727	-557	3918
13868550	-1032	-606	4681
13868878	-1545	-970	5020
13869206	-1849	-916	5585
13869534	-1948	-550	6468
13869862	-1784	106	7403
13870190	-1492	477	8446
13870518	-1445	629	9398
13870846	-1166	435	10410
13871174	-1139	645	11206
13871502	-451	2252	11652
13871830	-1656	1775	11655
13872158	-2715	-2934	11404
13872486	-791	-4504	12234
13872814	1474	-2217	9497
13873142	4685	749	7976
13873470	7217	1743	7587
13873798	9334	2832	6305
13874126	8779	2099	5127
13874454	7692	3111	2271
13874782	6438	3088	-679
13875110	7904	1111	-4079
13875438	8447	2267	-6653
13875766	7831	5265	-8838
13876094	5864	6908	-10855
13876422	2127	4026	-12184
13876750	2097	4105	-15109
13877078	-987	3474	-16425
13877406	-2000	2198	-17803
13877734	-2987	-741	-19174
13878062	-3105	-2259	-20595
13878390	-869	-3112	-21288
13878718	2104	-3865	-22176
13879046	4981	-4766	-22828
13879374	6653	-6067	-22830
13879702	8181	-7381	-23846
13880030	9417	-9803	-24910
13880358	10584	-12291	-25353
13880686	11573	-14192	-26279
13881014	11674	-14326	-26855
13881342	11831	-13933	-26795
13881670	11462	-13216	-25167
13881998	10784	-12167	-21485
13882326	12807	-11536	-16904
13882654	13988	-11691	-12998
13882982	14804	-11394	-9349
13883310	16339	-10309	-6799
13883638	18660	-6246	-4681
13883966	15654	-3062	-2812
13884294	9634	1839	-70
13884622	-4194	12819	3408
13884950	4180	15631	11100
13885278	3907	15245	10667
13885606	3898	950	7964
13885934	447	-5009	7794
13886262	7259	163	6493
13886590	8547	-504	7074
13886918	4339	6477	5987
13887246	3219	9612	7244
13887574	2125	4367	5505
13887902	-659	-649	4031
13888230	-623	920	2982
13888558	221	2158	3026
13888886	1920	2188	3226
13889214	3379	1773	2790
13889542	2827	2157	2323
13889870	1443	2169	1902
13890198	-192	1998	1936
13890526	-1991	976	2012
13890854	-1941	1664	2206
13891182	-1653	989	2065
13891510	-754	1102	2521
13891838	387	2094	2936
13892166	891	2304	3284
13892494	366	2487	3546
13892822	32	3022	3872
13893150	-549	3711	3871
13893478	-2730	3304	3675
13893806	-3711	3803	3662
13894134	-3818	4600	3315
13894462	-4191	5086	3125
13894790	-4963	5291	2895
13895118	-5365	5747	2736
13895446	-5987	6373	2702
13895774	-6295	6758	2547
13896102	-6644	7445	2442
13896430	-7223	7921	2309
13896758	-7443	7625	2439
13897086	-7053	7019	2384
13897414	-7646	5946	2041
13897742	-5485	5841	1789
13898070	-4111	4921	2218
13898398	-2432	2779	2231
13898726	-642	1965	3538
13899054	1960	3236	5506
13899382	2397	1857	5705
13899710	3216	-3005	3915
13900038	6701	-802	2650
13900366	9156	892	2032
13900694	10627	3780	2315
13901022	6927	5269	2866
13901350	1336	2188	3046
13901678	-2461	1390	2355
13902006	-1099	1093	2057
13902334	-1263	2174	1285
13902662	327	1269	1454
13902990	1628	2049	1274
13903318	1429	2439	1383
13903646	454	2603	1519
13903974	485	3429	1693
13904302	-896	3137	1371
13904630	-1494	2529	1146
13904958	-1567	1361	1309
13905286	-1617	1338	1307
13905614	-1300	1679	1382
13905942	-1109	1443	1380
13906270	-1334	1504	1514
13906598	-1426	1668	1449
13906926	-2042	2023	1438
13907254	-2745	2462	1492
13907582	-3439	2578	1420
13907910	-3632	2606	1360
13908238	-3652	2704	1167
13908566	-3678	2838	1090
13908894	-3537	2637	1026
13909222	-3283	2375	1012
13909550	-2883	2279	996
13909878	-2853	2039	986
13910206	-2790	1920	927
13910534	-2855	1880	975
13910862	-3144	1874	867
13911190	-3641	1946	965
13911518	-4445	2037	1588
13911846	-3849	1883	1020
13912174	-4688	2487	982
13912502	-5527	2705	1195
13912830	-6987	2149	1405
13913158	-7484	2366	1458
13913486	-8572	2136	1683
13913814	-8531	2120	1957
13914142	-8642	2410	2398
13914470	-8379	2750	2596
13914798	-8712	3530	2629
13915126	-8127	2423	2718
13915454	-6596	212	3218
13915782	-4739	-588	3464
13916110	-3376	-131	3793
13916438	-2303	1105	3823
13916766	-2189	804	3482
13917094	-2379	595	3096
13917422	-2496	62	2634
13917750	-2711	-927	1951
13918078	-2762	-1021	1421
13918406	-2424	-212	981
13918734	-1953	570	503
13919062	-1203	1462	500
13919390	-2195	2318	330
13919718	-3565	2204	-478
13920046	-4116	1704	-1386
13920374	-4321	896	-1736
13920702	-3635	1489	-1772
13921030	-4287	445	-1936
13921358	-4220	118	-2047
13921686	-4963	-18	-2153
13922014	-5439	-28	-2146
13922342	-4906	-166	-1742
13922670	-3608	-793	-1295
13922998	-1239	-1795	-978
13923326	1673	-2527	-812
13923654	4577	-2808	-529
13923982	6298	-2456	-107
13924310	6350	-1675	128
13924638	5377	-1148	395
13924966	4243	-1153	767
13925294	3133	-1616	910
13925622	2750	-1786	1147
13925950	2681	-1672	1422
13926278	2864	-1645	1840
13926606	2747	-1603	2263
13926934	2281	-1637	2714
13927262	1450	-1497	3377
13927590	452	-1089	4012
13927918	-600	-639	4990
13928246	-1923	-54	6085
13928574	-2979	641	7409
13928902	-3074	1170	8918
13929230	-2733	1012	10087
13929558	-992	1242	11584
13929886	-3978	-1725	10179
13930214	-626	-976	13373
13930542	-283	879	13396
13930870	-446	2194	14012
13931198	1985	-372	13933
13931526	4458	-424	11826
13931854	6090	-1454	10094
13932182	7546	-2894	8604
13932510	8066	-941	6333
13932838	7096	3302	2749
13933166	7010	3069	-199
13933494	6957	-517	-2502
13933822	5297	-2582	-5033
13934150	4190	-3952	-6614
13934478	4151	-7119	-7695
13934806	6594	-6331	-9466
13935134	7979	-7679	-11012
13935462	7235	-10052	-12803
13935790	6469	-12527	-15179
13936118	5774	-13738	-16669
13936446	6232	-14307	-18160
13936774	6897	-14532	-19258
13937102	7199	-17107	-19821
13937430	8551	-14530	-20499
13937758	7891	-15168	-20479
13938086	8417	-16781	-20133
13938414	8190	-16218	-19294
13938742	8279	-16193	-18599
13939070	7913	-18491	-18408
13939398	8421	-19661	-18810
13939726	9032	-20903	-18801
13940054	10694	-21028	-19071
13940382	13603	-21949	-18803
13940710	15229	-22355	-18460
13941038	18461	-21373	-18544
13941366	19677	-20980	-16454
13941694	18935	-19773	-13116
13942022	18280	-15453	-8980
13942350	16836	-10741	-4356
13942678	16647	-10366	-1343
13943006	14200	-8040	-530
13943334	12977	-2766	1323
13943662	8066	4543	2011
13943990	4767	8577	2203
13944318	-356	5615	2606
13944646	-6655	8431	3222
13944974	-21137	17634	5556
13945302	-5687	21479	8793
13945630	-6679	21726	10519
13945958	3295	5367	9621
13946286	12150	-948	7973
13946614	11900	-794	5427
13946942	10308	3008	7211
13947270	4075	2650	6208
13947598	46	7800	5489
13947926	3590	6388	7306
13948254	6948	2247	7787
13948582	3690	-134	6793
13948910	3065	-2894	6127
13949238	3922	-2173	4463
13949566	4303	-1264	4131
13949894	3158	756	3320
13950222	2116	1277	2515
13950550	898	914	2405
13950878	412	665	1906
13951206	241	383	1509
13951534	114	141	735
13951862	1740	-1848	1427
13952190	1793	2164	-11
13952518	1064	698	3
13952846	-382	435	-214
13953174	-1120	-24	-95
13953502	-1340	315	-180
13953830	-932	494	-430
13954158	-897	908	-637
13954486	-1287	1066	-700
13954814	-1368	1003	-729
13955142	-1703	955	-787
13955470	-1900	1033	-777
13955798	-2111	858	-809
13956126	-1908	633	-810
13956454	-1335	686	-738
13956782	-1210	326	-695
13957110	-865	352	-684
13957438	-575	440	-687
13957766	-528	512	-669
13958094	-433	354	-673
13958422	-308	255	-663
13958750	-244	77	-638
13959078	-298	-218	-638
13959406	-75	-394	-588
13959734	-3	-593	-636
13960062	24	-602	-724
13960390	74	-738	-770
13960718	58	-1116	-861
13961046	255	-1321	-973
13961374	1020	-1555	-880
13961702	1205	-1826	-981
13962030	1004	-1641	-1100
13962358	735	-1466	-1316
13962686	524	-1544	-1488
13963014	595	-1680	-1597
13963342	580	-1805	-1635
13963670	-262	-2067	-1978
13963998	-697	-2288	-2138
13964326	-1216	-2109	-2333
13964654	-1692	-1608	-2539
13964982	-1700	-1328	-2607
13965310	-1616	-1717	-2739
13965638	-974	-2490	-2595
13965966	232	-2596	-2339
13966294	1449	-2562	-1878
13966622	3487	-2177	-1446
13966950	4535	-2476	-1013
13967278	4908	-2325	-617
13967606	4871	-2212	-878
13967934	5838	-2968	-868
13968262	6608	-3568	-564
13968590	7200	-3287	-92
13968918	7279	-3182	271
13969246	7473	-2622	519
13969574	8097	-2454	541
13969902	8685	-2393	352
13970230	9984	-2008	267
13970558	11088	-2374	473
13970886	11612	-3015	880
13971214	11872	-3264	1137
13971542	11771	-3474	1256
13971870	11698	-3562	1335
13972198	12320	-3627	1343
13972526	13159	-3815	1294
13972854	13602	-3525	1506
13973182	12487	-2599	1541
13973510	9720	-2264	1047
13973838	6927	-2061	699
13974166	4635	254	568
13974494	3018	459	398
13974822	2679	814	268
13975150	3508	605	358
13975478	4904	821	262
13975806	5961	1512	175
13976134	6301	1585	237
13976462	5852	2024	60
13976790	5025	1839	91
13977118	4054	1363	396
13977446	3721	1201	629
13977774	4155	1047	763
13978102	4412	690	784
13978430	4462	701	719
13978758	4223	871	1002
13979086	4118	793	714
13979414	4267	917	565
13979742	3818	599	596
13980070	3327	558	710
13980398	2928	525	771
13980726	2351	624	777
13981054	1786	868	755
13981382	1466	660	662
13981710	1255	478	612
13982038	1280	533	644
13982366	1461	313	710
13982694	1555	162	730
13983022	1504	-149	996
13983350	1742	-340	1102
13983678	1732	-378	1177
13984006	1556	-353	1267
13984334	550	52	1053
13984662	138	-224	1119
13984990	-231	-399	1250
13985318	-401	-305	1366
13985646	-136	-562	1482
13985974	361	-940	1514
13986302	793	-717	1590
13986630	961	-576	1587
13986958	761	-503	1532
13987286	169	-287	1550
13987614	-255	-212	1578
13987942	-163	-32	1541
13988270	-487	-198	1765
13988598	-592	-770	1814
13988926	-523	-611	1682
13989254	-488	-631	1582
13989582	-355	-674	1413
13989910	-587	-458	1244
13990238	-588	-350	1147
13990566	-837	-167	1029
13990894	-1532	91	1084
13991222	-1966	85	899
13991550	-1926	145	1028
13991878	-1505	-393	908
13992206	-764	-517	650
13992534	-470	-138	545
13992862	-559	205	436
13993190	-980	598	356
13993518	-1323	646	320
13993846	-1317	611	258
13994174	-1440	388	287
13994502	-1345	113	199
13994830	-1061	63	123
13995158	-651	67	36
13995486	-197	-53	-5
13995814	230	-187	-122
13996142	486	-83	-111
13996470	468	17	-115
13996798	217	-54	-166
13997126	-9	-203	-327
13997454	-33	-237	-449
13997782	190	-399	-538
13998110	439	-444	-659
13998438	775	-465	-737
13998766	894	-267	-776
13999094	805	154	-881
13999422	544	166	-983
13999750	338	-169	-1120
14000078	266	-179	-1240
14000406	533	-408	-1321
14000734	905	-945	-1381
14001062	1278	-1171	-1435
14001390	1711	-1368	-1566
14001718	1922	-1627	-1695
14002046	1982	-1531	-1791
14002374	2156	-1701	-1873
14002702	2214	-2079	-1886
14003030	2317	-2186	-1805
14003358	2399	-2227	-1800
14003686	2521	-2515	-1803
14004014	2627	-2860	-1861
14004342	2528	-2775	-1895
14004670	1884	-2558	-1943
14004998	1253	-2557	-1985
14005326	717	-2762	-1988
14005654	455	-2999	-2013
14005982	250	-3061	-2131
14006310	270	-3048	-2169
14006638	316	-3078	-2208
14006966	278	-3188	-2271
14007294	142	-3320	-2292
14007622	-98	-3665	-2342
14007950	-397	-4026	-2293
14008278	-479	-4438	-2233
14008606	-325	-4913	-2074
14008934	-48	-5739	-1877
14009262	357	-6547	-1597
14009590	1207	-7860	-1092
14009918	2110	-10030	114
14010246	3448	-11960	1250
14010574	5214	-12976	2515
14010902	7684	-14434	3080
14011230	9417	-13197	2915
14011558	9570	-12414	2746
14011886	9284	-11058	2912
14012214	7892	-9708	2467
14012542	6216	-10325	2192
14012870	5664	-10271	1466
14013198	5093	-9271	166
14013526	5210	-8955	-642
14013854	7101	-10029	-602
14014182	9690	-8963	276
14014510	11633	-6658	1497
14014838	13836	-7570	1433
14015166	15939	-7672	1073
14015494	17381	-5700	181
14015822	18762	-3340	345
14016150	17406	-2335	-151
14016478	15495	-1981	-663
14016806	13752	-1686	-1110
14017134	10528	-466	-2321
14017462	9933	-1702	-2589
14017790	9277	-3217	-2467
14018118	10004	-3209	-3623
14018446	10811	-4428	-4083
14018774	11374	-6037	-4689
14019102	12088	-8448	-6155
14019430	13753	-5133	-6863
14019758	14806	-6321	-7426
14020086	15033	-7421	-7787
14020414	14925	-7559	-8715
14020742	15297	-7371	-9374
14021070	15437	-8278	-9991
14021398	15445	-8992	-10580
14021726	16049	-9426	-11223
14022054	16234	-10009	-11791
14022382	16414	-10702	-12391
14022710	16196	-11221	-12936
14023038	15767	-11331	-13766
14023366	15837	-11136	-14602
14023694	15238	-11166	-15205
14024022	14624	-11583	-15607
14024350	14096	-11761	-16422
14024678	13275	-12014	-17204
14025006	12606	-12198	-17472
14025334	11533	-11417	-17876
14025662	11067	-10382	-17933
14025990	10918	-10611	-16648
14026318	10995	-10636	-15104
14026646	11517	-9956	-13325
14026974	12530	-10078	-11497
14027302	13804	-10856	-9542
14027630	13420	-8454	-7125
14027958	14492	-5914	-4572
14028286	15554	-4235	-2268
14028614	15199	-1395	-154
14028942	14268	992	2264
14029270	11998	3330	4252
14029598	9802	5905	4274
14029926	-3455	10545	3534
14030254	28	18243	6502
14030582	5760	-754	9125
14030910	6599	164	10973
14031238	9445	852	11147
14031566	10562	1203	8575
14031894	14042	1508	6679
14032222	9153	3245	6168
14032550	10405	9276	6970
14032878	8923	11768	7189
14033206	4683	8878	7655
14033534	2019	4229	8837
14033862	-2436	4076	7817
14034190	-5205	3355	7087
14034518	-4712	2461	6446
14034846	-922	1725	5971
14035174	3065	1759	5651
14035502	6468	1228	5742
14035830	8077	522	5479
14036158	7422	1129	5276
14036486	5421	1294	4841
14036814	2550	1123	4587
14037142	1578	814	4041
14037470	-546	2369	3394
14037798	-140	1288	3376
14038126	1175	1042	3523
14038454	1794	1096	3271
14038782	2689	584	3217
14039110	2949	1049	2857
14039438	2433	964	2464
14039766	1674	781	2108
14040094	812	774	1853
14040422	33	803	1556
14040750	-361	795	1417
14041078	-578	579	1327
14041406	-494	377	1235
14041734	-290	186	1198
14042062	-125	68	1089
14042390	209	-13	995
14042718	249	33	886
14043046	233	-64	755
14043374	80	-160	606
14043702	-65	55	455
14044030	-214	63	278
14044358	-496	109	202
14044686	-617	238	-41
14045014	-761	840	-210
14045342	-736	820	-365
14045670	-776	874	-469
14045998	-823	968	-589
14046326	-806	849	-621
14046654	-786	797	-678
14046982	-660	714	-773
14047310	-521	664	-886
14047638	-472	423	-974
14047966	-357	450	-1024
14048294	-213	342	-1047
14048622	-72	199	-1012
14048950	-38	77	-979
14049278	-75	-56	-1002
14049606	-85	-272	-1099
14049934	-120	-412	-1199
14050262	-86	-545	-1367
14050590	-25	-588	-1490
14050918	-7	-587	-1599
14051246	-89	-797	-1716
14051574	-154	-885	-1785
14051902	-55	-971	-1920
14052230	18	-1145	-1985
14052558	63	-1268	-2148
14052886	200	-1511	-2296
14053214	294	-1848	-2428
14053542	283	-2181	-2524
14053870	357	-2285	-2645
14054198	496	-2352	-2593
14054526	476	-2263	-2675
14054854	441	-2253	-2773
14055182	89	-2060	-2881
14055510	-326	-1990	-2933
14055838	-829	-1840	-3074
14056166	-1378	-1687	-3078
14056494	-1753	-1766	-3144
14056822	-1812	-1905	-3210
14057150	-1645	-2024	-3230
14057478	-1255	-2090	-3106
14057806	-873	-2223	-3050
14058134	-454	-2419	-3049
14058462	111	-2675	-3002
14058790	396	-3025	-3031
14059118	-292	-3325	-3282
14059446	-639	-2220	-3820
14059774	-1185	-2063	-4214
14060102	-1315	-1961	-4874
14060430	-875	-2187	-5189
14060758	-800	-2403	-5501
14061086	-1055	-2319	-5749
14061414	-1779	-2626	-6096
14061742	-2360	-3262	-6209
14062070	-2863	-3504	-6113
14062398	-3861	-3495	-5999
14062726	-3559	-3135	-5750
14063054	-4152	-3450	-5445
14063382	-4423	-4190	-5291
14063710	-6613	-4003	-5394
14064038	-9442	-3082	-6000
14064366	-12429	-1814	-6624
14064694	-14804	-567	-6376
14065022	-18031	1487	-5749
14065350	-20203	4160	-4228
14065678	-22930	5888	-1268
14066006	-23821	5293	2004
14066334	-23919	4286	5338
14066662	-20968	4308	7971
14066990	-16284	4345	9493
14067318	-11503	3343	10047
14067646	-7427	3759	9819
14067974	-4650	3591	10288
14068302	-3082	2645	10192
14068630	-3536	1248	9580
14068958	-3226	1596	9770
14069286	-4508	596	8780
14069614	-5281	-327	8542
14069942	-6246	-143	8045
14070270	-6940	-814	7388
14070598	-7148	-1353	6656
14070926	-7698	-1578	5790
14071254	-8226	-1710	4945
14071582	-8225	-1678	4232
14071910	-8296	-1670	3563
14072238	-8216	-1474	2984
14072566	-7759	-1820	2691
14072894	-7129	-2367	2409
14073222	-6547	-2398	2265
14073550	-5925	-2506	2106
14073878	-5373	-1878	1883
14074206	-4817	-1954	2015
14074534	-4317	-1868	2266
14074862	-3772	-1673	2621
14075190	-3525	-1551	2875
14075518	-3137	-1385	3104
14075846	-2596	-1960	3367
14076174	-1624	-1954	3749
14076502	-384	-1931	4157
14076830	219	-1255	4335
14077158	1212	1785	3931
14077486	2921	813	4837
14077814	446	2973	2398
14078142	-568	3886	512
14078470	-2102	5316	213
14078798	-4697	3264	1219
14079126	-8298	7283	2115
14079454	-8510	10275	2654
14079782	-8820	8988	2801
14080110	-6958	7142	2313
14080438	-4267	3924	1921
14080766	-231	3667	1769
14081094	2260	4302	2321
14081422	3960	3499	2715
14081750	5081	1940	3004
14082078	3867	2647	3257
14082406	2605	3331	2995
14082734	2259	3193	2669
14083062	1847	2463	1853
14083390	1836	1934	1596
14083718	1623	1963	1393
14084046	1110	1915	1054
14084374	693	1516	895
14084702	628	971	648
14085030	941	832	822
14085358	1379	418	870
14085686	1902	369	844
14086014	1989	247	672
14086342	1626	184	382
14086670	1140	93	119
14086998	660	-181	-160
14087326	200	-345	-488
14087654	390	-101	-860
14087982	374	80	-1169
14088310	472	284	-1457
14088638	262	143	-1768
14088966	201	405	-1877
14089294	36	333	-2231
14089622	-273	150	-2458
14089950	-501	300	-2697
14090278	-643	38	-2908
14090606	-760	-167	-3112
14090934	-868	-283	-3299
14091262	-1185	-412	-3533
14091590	-1460	-413	-3820
14091918	-2075	-192	-4134
14092246	-2429	277	-4440
14092574	-2745	826	-4814
14092902	-2873	848	-5045
14093230	-3088	815	-5211
14093558	-3248	1046	-5322
14093886	-3604	2186	-5416
14094214	-4300	2369	-5375
14094542	-6222	2751	-5197
14094870	-6658	3361	-4662
14095198	-8797	3023	-4195
14095526	-11045	3872	-3909
14095854	-13431	5118	-3602
14096182	-15145	6219	-3434
14096510	-16421	7271	-3619
14096838	-19180	8647	-3760
14097166	-21033	9346	-3558
14097494	-20607	9004	-2897
14097822	-21290	9975	-2290
14098150	-22598	10758	-2124
14098478	-24622	11967	-2001
14098806	-26135	12940	-1622
14099134	-27278	13336	-1529
14099462	-27234	12525	-1092
14099790	-25367	11374	-27
14100118	-23406	10610	727
14100446	-21546	10013	1269
14100774	-20593	9842	1668
14101102	-19321	9057	2267
14101430	-15447	6403	3426
14101758	-11705	1904	4098
14102086	-8640	1022	3719
14102414	-7867	2185	3547
14102742	-7702	3447	2469
14103070	-8255	4885	1072
14103398	-8129	5108	363
14103726	-6038	2514	163
14104054	-3801	1844	1816
14104382	-2102	388	3228
14104710	-1618	1539	3841
14105038	-5130	537	3351
14105366	-1808	343	3547
14105694	-2196	2661	3448
14106022	-1175	1230	3389
14106350	-732	1544	3106
14106678	-723	2457	2783
14107006	-271	2564	2576
14107334	-867	3196	2312
14107662	-1840	3269	2155
14107990	-2483	2686	2097
14108318	-2013	3077	1018
14108646	-3757	1812	1149
14108974	-3007	807	914
14109302	-2503	1228	943
14109630	-1803	1326	949
14109958	-1955	1681	906
14110286	-2594	1522	785
14110614	-3114	1560	687
14110942	-3709	1721	650
14111270	-4622	2005	525
14111598	-4905	2257	483
14111926	-4827	2182	501
14112254	-4726	2305	609
14112582	-4625	2292	672
14112910	-4497	2131	755
14113238	-4832	1978	794
14113566	-5077	2240	849
14113894	-5610	2244	885
14114222	-6022	2040	969
14114550	-6290	1724	1074
14114878	-6438	1808	1199
14115206	-6158	1574	1329
14115534	-5801	1823	1440
14115862	-5649	2064	1494
14116190	-5651	1820	1735
14116518	-5626	1993	1633
14116846	-6100	607	1641
14117174	-6407	-130	1656
14117502	-5910	221	1719
14117830	-5350	377	1865
14118158	-4760	267	2088
14118486	-4334	-75	2308
14118814	-3982	-329	2450
14119142	-3888	77	2731
14119470	-3802	-477	2769
14119798	-3847	-475	2745
14120126	-3685	-638	2874
14120454	-3941	-667	2598
14120782	-3913	-559	2548
14121110	-4431	-366	2508
14121438	-5362	-193	2478
14121766	-6120	-81	2483
14122094	-6777	-71	2432
14122422	-6884	-293	2331
14122750	-6944	-605	2413
14123078	-6799	-787	2682
14123406	-7076	-857	2847
14123734	-7703	-155	2754
14124062	-8065	895	2712
14124390	-9472	1071	2395
14124718	-10131	572	2079
14125046	-10589	836	1677
14125374	-10879	1683	1653
14125702	-12042	3593	1686
14126030	-13037	4709	1233
14126358	-14015	6457	372
14126686	-15267	8427	-565
14127014	-16239	9098	-1441
14127342	-17050	9466	-2309
14127670	-18219	10311	-2737
14127998	-18555	11570	-3335
14128326	-19216	13180	-3803
14128654	-19294	14948	-4119
14128982	-18360	15846	-4058
14129310	-16822	16187	-3686
14129638	-15115	15681	-3368
14129966	-13382	15086	-2931
14130294	-11827	13797	-3044
14130622	-10918	12073	-2986
14130950	-10364	11570	-3160
14131278	-9708	9532	-3677
14131606	-9134	7490	-3971
14131934	-8690	4914	-4150
14132262	-7868	2835	-3927
14132590	-6996	1821	-2891
14132918	-3783	757	-376
14133246	-888	-1555	2915
14133574	-637	-4243	2088
14133902	2169	-1705	424
14134230	4291	-847	-919
14134558	6022	2861	-590
14134886	4830	3560	-463
14135214	1211	2463	-246
14135542	-3036	2193	310
14135870	-6742	1626	290
14136198	-8520	-303	-751
14136526	-7026	678	105
14136854	-4084	611	192
14137182	-942	445	509
14137510	2201	747	1017
14137838	2990	120	1250
14138166	2668	231	1205
14138494	2112	386	1141
14138822	1034	158	729
14139150	172	280	646
14139478	-577	97	538
14139806	-395	-383	710
14140134	385	-207	526
14140462	-221	-276	436
14140790	145	-190	425
14141118	453	-243	280
14141446	701	-81	149
14141774	609	-49	25
14142102	442	63	-144
14142430	271	101	-269
14142758	167	71	-337
14143086	88	-55	-434
14143414	19	-149	-517
14143742	7	-222	-589
14144070	75	-222	-647
14144398	278	-204	-669
14144726	465	-362	-738
14145054	551	-223	-697
14145382	723	-403	-701
14145710	735	-473	-731
14146038	824	-620	-820
14146366	663	-703	-730
14146694	692	-826	-717
14147022	722	-980	-784
14147350	601	-1669	-826
14147678	1243	-1736	-766
14148006	933	-1697	-810
14148334	1459	-1586	-871
14148662	824	-1024	-1015
14148990	551	-820	-1189
14149318	829	-1171	-1154
14149646	1153	-1418	-952
14149974	1497	-1565	-722
14150302	1920	-1911	-527
14150630	2465	-2143	-162
14150958	2940	-2322	273
14151286	3084	-2576	638
14151614	3089	-2870	900
14151942	2740	-3387	1083
14152270	2646	-3370	1317
14152598	3009	-4056	1358
14152926	4386	-5786	1303
14153254	6310	-7435	1314
14153582	9063	-8392	1411
14153910	11846	-8126	1662
14154238	13751	-8733	1932
14154566	14199	-9110	2298
14154894	13778	-9204	2918
14155222	13318	-9915	3748
14155550	13262	-11548	4646
14155878	13624	-12939	5210
14156206	15664	-14093	5387
14156534	19188	-15179	5342
14156862	22765	-15405	5414
14157190	25532	-15091	5222
14157518	26835	-14344	5416
14157846	26122	-13767	5509
14158174	23701	-13565	5145
14158502	20860	-14080	4504
14158830	17248	-14979	3828
14159158	15013	-14882	3292
14159486	13934	-14529	3378
14159814	14872	-14542	3226
14160142	17080	-14769	2737
14160470	17891	-15250	2629
14160798	19194	-15560	2073
14161126	19408	-15775	1443
14161454	18896	-15806	660
14161782	18420	-14857	-113
14162110	18039	-14003	-753
14162438	17230	-13702	-1723
14162766	16467	-12952	-2504
14163094	15538	-10239	-2760
14163422	14609	-6399	-2890
14163750	13217	-4012	-3688
14164078	10735	-2927	-4827
14164406	6935	-1117	-5427
14164734	1768	1061	-5680
14165062	-3265	2531	-5631
14165390	-6539	2896	-5382
14165718	-6736	3301	-5157
14166046	-4302	2983	-3987
14166374	-447	1137	-2867
14166702	3770	-219	-1785
14167030	7678	-1684	-1008
14167358	9468	-1754	-970
14167686	9857	-690	-290
14168014	9233	-583	-398
14168342	7449	-1354	-1003
14168670	5521	-850	-1553
14168998	2985	-73	-2301
14169326	646	332	-2743
14169654	806	-203	-2929
14169982	740	-210	-2958
14170310	799	-1865	-2558
14170638	2019	-1853	-2173
14170966	2890	-2052	-1873
14171294	3780	-2235	-1602
14171622	3959	-2641	-1466
14171950	3832	-2806	-1372
14172278	3321	-2740	-1373
14172606	2780	-2655	-1445
14172934	2683	-2321	-1444
14173262	1891	-2580	-1536
14173590	1651	-2778	-1540
14173918	1826	-3134	-1447
14174246	2207	-3598	-1099
14174574	2488	-3379	-972
14174902	2528	-3182	-894
14175230	2441	-3007	-961
14175558	1914	-2472	-1177
14175886	1319	-2120	-1135
14176214	635	-2162	-981
14176542	40	-2608	-647
14176870	-146	-3093	-542
14177198	497	-3507	-574
14177526	1056	-3603	-351
14177854	1290	-3452	-510
14178182	1135	-2933	-652
14178510	635	-2627	-655
14178838	-123	-2751	-567
14179166	-1205	-2985	-453
14179494	-1360	-2918	-505
14179822	-1226	-2972	-506
14180150	-1314	-3133	-448
14180478	-926	-3551	-711
14180806	-625	-3484	-595
14181134	-489	-4150	-669
14181462	-190	-4680	-755
14181790	312	-5256	-801
14182118	883	-5624	-816
14182446	1475	-5686	-712
14182774	2073	-5552	-669
14183102	1614	-5440	-758
14183430	865	-4759	-1233
14183758	34	-4961	-1618
14184086	-448	-4714	-1744
14184414	-636	-4615	-1737
14184742	-439	-4536	-1817
14185070	283	-4497	-1832
14185398	1747	-5544	-1521
14185726	3010	-5166	-1106
14186054	4404	-4395	-1148
14186382	7020	-6200	-1352
14186710	10116	-8423	-1666
14187038	14568	-8733	-1704
14187366	18591	-8230	-1335
14187694	21534	-8344	-693
14188022	21735	-7390	-449
14188350	20674	-7798	-344
14188678	19654	-7197	-1090
14189006	19026	-6495	-1787
14189334	18292	-6340	-2422
14189662	17610	-6403	-2734
14189990	16994	-6830	-2558
14190318	15913	-7293	-1807
14190646	14580	-6198	-857
14190974	12252	-4871	-195
14191302	8975	-3699	24
14191630	5570	-2168	6
14191958	1995	-1685	384
14192286	-198	-103	-461
14192614	-3236	-82	-681
14192942	-4694	-417	-489
14193270	-4969	-981	-666
14193598	-4737	-987	-783
14193926	-3389	-374	-987
14194254	-2205	-627	-958
14194582	-1301	-896	-952
14194910	-1001	-941	-897
14195238	-1135	-308	-933
14195566	-1545	175	-961
14195894	-2273	351	-789
14196222	-2580	459	-597
14196550	-2685	518	-532
14196878	-2265	685	-529
14197206	-1413	608	-510
14197534	-388	551	-458
14197862	380	496	-386
14198190	745	424	-433
14198518	828	485	-562
14198846	661	500	-496
14199174	279	452	-467
14199502	-235	412	-521
14199830	-758	109	-492
14200158	-782	298	-446
14200486	-787	243	-404
14200814	-752	82	-408
14201142	-664	112	-405
14201470	-534	165	-362
14201798	-452	179	-361
14202126	-322	90	-374
14202454	-173	90	-403
14202782	-44	3	-404
14203110	83	-83	-346
14203438	275	-128	-276
14203766	377	-195	-224
14204094	536	-219	-198
14204422	663	-225	-180
14204750	754	-180	-166
14205078	716	-173	-169
14205406	569	-126	-180
14205734	302	-83	-208
14206062	-64	-87	-204
14206390	-225	-118	-264
14206718	-415	-123	-284
14207046	-496	-74	-323
14207374	-563	-10	-357
14207702	-505	-32	-353
14208030	-448	83	-331
14208358	-490	-11	-297
14208686	-452	6	-260
14209014	-423	35	-259
14209342	-385	60	-228
14209670	-307	-34	-214
14209998	-217	-55	-193
14210326	-205	-51	-187
14210654	-262	-16	-181
14210982	-351	-34	-194
14211310	-371	-63	-180
14211638	-424	-66	-192
14211966	-319	-74	-169
14212294	-208	-87	-170
14212622	-141	-135	-176
14212950	-114	-144	-156
14213278	-92	-77	-145
14213606	-224	-93	-127
14213934	-335	-78	-110
14214262	-335	-85	-97
14214590	-305	-86	-61
14214918	-295	-58	-35
14215246	-287	22	-4
14215574	-271	86	12
14215902	-254	78	42
14216230	-241	55	71
14216558	-181	42	68
14216886	-140	43	43
14217214	-74	91	27
14217542	-77	118	47
14217870	-105	149	49
14218198	-164	148	48
14218526	-266	146	25
14218854	-305	174	16
14219182	-366	196	19
14219510	-384	184	10
14219838	-369	170	-1
14220166	-327	155	-23
14220494	-262	140	-39
14220822	-209	153	-51
14221150	-218	181	-62
14221478	-219	197	-62
14221806	-294	198	-78
14222134	-421	290	-90
14222462	-433	290	-80
14222790	-388	250	-86
14223118	-328	286	-115
14223446	-362	432	-124
14223774	-452	664	-166
14224102	-474	733	-178
14224430	-332	542	-173
14224758	-330	557	-185
14225086	-328	580	-168
14225414	-290	560	-171
14225742	-317	605	-208
14226070	-312	662	-206
14226398	-327	722	-228
14226726	-173	685	-233
14227054	-8	669	-276
14227382	178	736	-276
14227710	329	717	-276
14228038	472	710	-327
14228366	511	755	-403
14228694	606	721	-459
14229022	686	756	-493
14229350	813	751	-569
14229678	996	725	-666
14230006	1208	768	-759
14230334	1360	767	-840
14230662	1495	811	-979
14230990	1617	869	-1219
14231318	1792	615	-1430
14231646	1950	512	-1633
14231974	1972	522	-1848
14232302	2050	516	-1984
14232630	2142	504	-2064
14232958	2089	315	-2153
14233286	2064	322	-2267
14233614	2074	203	-2408
14233942	2170	147	-2482
14234270	2347	174	-2553
14234598	2580	-154	-2543
14234926	2421	122	-2611
14235254	2368	313	-2741
14235582	2454	73	-2752
14235910	2558	47	-2665
14236238	2473	49	-2450
14236566	2296	58	-2279
14236894	1746	128	-2073
14237222	1337	162	-1792
14237550	980	76	-1664
14237878	871	79	-1509
14238206	1033	166	-1278
14238534	1018	210	-1070
14238862	850	176	-859
14239190	362	257	-830
14239518	-34	190	-650
14239846	-206	-167	-565
14240174	-125	-216	-544
14240502	-87	-200	-471
14240830	-141	-151	-412
14241158	-366	53	-312
14241486	-758	33	-256
14241814	-1015	-63	-184
14242142	-1051	-46	-114
14242470	-989	-85	-25
14242798	-917	120	175
14243126	-897	-131	145
14243454	-1024	85	65
14243782	-1188	-72	114
14244110	-1108	37	105
14244438	-1081	105	110
14244766	-1048	16	147
14245094	-903	-90	196
14245422	-737	-356	265
14245750	-281	-403	418
14246078	196	-581	552
14246406	258	-432	840
14246734	120	-201	1161
14247062	-590	192	1439
14247390	-1473	527	1727
14247718	-2400	756	2014
14248046	-2878	842	2210
14248374	-3169	955	2237
14248702	-3349	1067	2358
14249030	-3279	1219	2348
14249358	-2969	1409	2146
14249686	-3022	1884	1868
14250014	-3317	2565	1669
14250342	-2994	3296	1181
14250670	-4017	4457	633
14250998	-4932	5062	345
14251326	-5360	5575	445
14251654	-6588	6267	456
14251982	-7816	6916	398
14252310	-9064	7510	210
14252638	-10313	7357	-348
14252966	-10803	6044	-993
14253294	-9632	4901	-1696
14253622	-7284	4312	-2225
14253950	-4509	4098	-2620
14254278	-2242	3541	-3042
14254606	-471	2346	-3460
14254934	417	938	-3690
14255262	906	-243	-4088
14255590	1250	-1269	-4347
14255918	2244	-2099	-4392
14256246	3058	-2814	-4530
14256574	4146	-3174	-4458
14256902	4530	-3222	-4043
14257230	4613	-2970	-3549
14257558	3027	-2905	-3166
14257886	2011	-1684	-2945
14258214	671	-1579	-2929
14258542	76	-1884	-2777
14258870	309	-1782	-2395
14259198	748	-1299	-2115
14259526	1093	-1395	-2084
14259854	676	-548	-2081
14260182	472	-654	-2139
14260510	146	-654	-2242
14260838	-436	-556	-2209
14261166	-906	-657	-2267
14261494	-845	-787	-2333
14261822	-311	-678	-2304
14262150	567	-581	-2258
14262478	1484	-779	-2051
14262806	1946	-529	-1918
14263134	2078	-447	-1829
14263462	1955	-394	-1659
14263790	1551	-401	-1552
14264118	1194	-405	-1425
14264446	796	-405	-1344
14264774	431	-313	-1365
14265102	-104	-322	-1358
14265430	-410	-252	-1319
14265758	-561	-223	-1161
14266086	-680	-122	-1112
14266414	-519	-196	-1009
14266742	-169	-291	-985
14267070	111	-385	-1024
14267398	557	-387	-1054
14267726	844	-404	-1050
14268054	1351	-484	-1030
14268382	1552	-466	-1014
14268710	1583	-399	-947
14269038	1507	-332	-907
14269366	1287	-304	-814
14269694	981	-274	-725
14270022	637	-204	-697
14270350	337	-154	-690
14270678	108	-115	-655
14271006	2	-35	-669
14271334	118	-78	-646
14271662	140	-84	-566
14271990	107	58	-583
14272318	171	82	-515
14272646	157	143	-497
14272974	156	155	-538
14273302	199	140	-471
14273630	144	114	-388
14273958	-63	175	-311
14274286	-350	225	-231
14274614	-571	213	-197
14274942	-717	237	-147
14275270	-701	296	-124
14275598	-544	290	-72
14275926	-161	314	14
14276254	-114	346	76
14276582	-229	400	160
14276910	-419	463	238
14277238	-568	407	267
14277566	-758	513	307
14277894	-807	510	328
14278222	-722	527	382
14278550	-542	508	428
14278878	-407	507	463
14279206	-282	510	490
14279534	-252	575	516
14279862	-202	580	560
14280190	-87	550	628
14280518	-86	584	668
14280846	-52	618	708
14281174	-30	602	756
14281502	-41	696	782
14281830	-26	624	828
14282158	-45	609	861
14282486	-16	644	901
14282814	-6	658	920
14283142	54	651	964
14283470	110	657	998
14283798	114	708	1033
14284126	151	711	1050
14284454	174	720	1071
14284782	127	773	1092
14285110	95	750	1113
14285438	120	731	1168
14285766	65	795	1174
14286094	-121	808	1196
14286422	8	798	1285
14286750	-56	811	1298
14287078	-77	836	1305
14287406	-61	827	1317
14287734	48	1054	1604
14288062	79	760	1436
14288390	97	906	1356
14288718	60	871	1332
14289046	-95	996	1404
14289374	-272	1102	1468
14289702	-531	1070	1508
14290030	-803	1066	1506
14290358	-954	1022	1437
14290686	-885	978	1400
14291014	-834	980	1357
14291342	-730	1017	1320
14291670	-611	964	1262
14291998	-543	990	1212
14292326	-450	1090	1158
14292654	-188	876	1122
14292982	-175	881	1062
14293310	-42	882	1070
14293638	-112	835	1015
14293966	-151	882	1003
14294294	-324	788	981
14294622	-253	683	850
14294950	-146	634	826
14295278	-9	630	815
14295606	112	632	766
14295934	206	612	784
14296262	119	566	741
14296590	61	597	738
14296918	-42	581	734
14297246	-41	647	700
14297574	-80	668	686
14297902	52	552	674
14298230	-239	699	654
14298558	-23	528	554
14298886	-370	610	540
14299214	-442	646	532
14299542	-360	514	446
14299870	-137	449	413
14300198	65	480	347
14300526	104	465	352
14300854	7	465	351
14301182	-176	458	349
14301510	-277	442	362
14301838	-278	361	354
14302166	-121	384	372
14302494	44	368	371
14302822	89	371	353
14303150	119	347	320
14303478	3	412	286
14303806	-132	462	269
14304134	-206	447	213
14304462	-257	460	227
14304790	-282	451	200
14305118	-278	407	201
14305446	-258	397	182
14305774	-237	377	177
14306102	-240	287	138
14306430	-180	426	126
14306758	-236	334	119
14307086	-254	285	103
14307414	-310	287	88
14307742	-428	332	61
14308070	-267	248	50
14308398	-191	253	44
14308726	-91	221	48
14309054	-51	221	39
14309382	10	242	23
14309710	15	246	22
14310038	18	231	21
14310366	-63	264	-7
14310694	-196	302	-10
14311022	-326	299	0
14311350	-428	290	-2
14311678	-528	252	-23
14312006	-591	187	-38
14312334	-531	168	-74
14312662	-443	135	-70
14312990	-306	165	-102
14313318	-107	126	-109
14313646	7	136	-86
14313974	30	164	-60
14314302	-81	223	-36
14314630	-266	215	-31
14314958	-418	216	-16
14315286	-469	164	-18
14315614	-395	164	-16
14315942	-277	103	4
14316270	-170	88	0
14316598	-30	106	6
14316926	71	95	30
14317254	99	74	22
14317582	33	76	9
14317910	24	36	-7
14318238	91	47	-7
14318566	134	47	-12
14318894	166	42	-20
14319222	107	73	-17
14319550	6	104	-6
14319878	-126	110	27
14320206	-205	-108	-30
14320534	-431	-524	-79
14320862	-401	-30	-91
14321190	-561	283	-246
14321518	6	112	-31
14321846	379	309	205
14322174	709	136	335
14322502	722	166	343
14322830	717	326	346
14323158	806	159	225
14323486	945	74	-12
14323814	941	50	-172
14324142	745	46	-286
14324470	465	115	-370
14324798	185	56	-367
14325126	-44	47	-386
14325454	-134	64	-334
14325782	-234	0	-300
14326110	-276	-46	-292
14326438	-297	5	-284
14326766	-250	-15	-262
14327094	-198	-36	-246
14327422	-145	-62	-269
14327750	-179	18	-266
14328078	-118	18	-225
14328406	-105	67	-211
14328734	-209	115	-171
14329062	-338	103	-141
14329390	-438	85	-150
14329718	-459	86	-148
14330046	-337	56	-145
14330374	-164	38	-152
14330702	-6	36	-179
14331030	-1	165	-188
14331358	-113	234	-170
14331686	-231	268	-161
14332014	-450	322	-168
14332342	-704	318	-212
14332670	-766	298	-238
14332998	-749	201	-200
14333326	-849	265	-240
14333654	-1149	263	-219
14333982	-1217	255	-232
14334310	-1157	261	-266
14334638	-878	77	-368
14334966	-690	-53	-428
14335294	-607	-73	-547
14335622	-222	-8	-554
14335950	98	-85	-568
14336278	448	-189	-540
14336606	432	-88	-566
14336934	438	101	-624
14337262	417	-2	-637
14337590	439	33	-652
14337918	530	16	-606
14338246	604	-81	-573
14338574	673	-104	-556
14338902	730	-111	-551
14339230	735	-119	-520
14339558	760	-124	-449
14339886	636	-86	-373
14340214	396	-84	-254
14340542	87	-44	-190
14340870	-145	-112	-92
14341198	-291	-31	-24
14341526	-356	-122	38
14341854	-405	-217	85
14342182	-417	-186	107
14342510	-452	-112	141
14342838	-501	-229	195
14343166	-422	-334	214
14343494	-409	-372	277
14343822	-273	-430	326
14344150	-196	-420	358
14344478	-138	-492	414
14344806	-131	-510	516
14345134	-310	-416	539
14345462	-540	-518	657
14345790	-736	-458	706
14346118	-890	-658	729
14346446	-918	-561	818
14346774	-765	-579	905
14347102	-613	-778	973
14347430	-563	-740	1018
14347758	-476	-776	1057
14348086	-409	-797	1083
14348414	-342	-880	1151
14348742	-242	-925	1122
14349070	-224	-789	1139
14349398	-257	-634	1195
14349726	-334	-691	1251
14350054	-371	-689	1302
14350382	-567	-618	1313
14350710	-495	-487	1524
14351038	-346	-563	1664
14351366	-364	-685	1684
14351694	-475	-585	1766
14352022	-649	-392	1929
14352350	-779	-243	2055
14352678	-1009	-106	2154
14353006	-1298	-46	2269
14353334	-1333	61	2410
14353662	-1457	240	2556
14353990	-1508	375	2679
14354318	-1557	555	2796
14354646	-1715	636	2805
14354974	-1886	754	2708
14355302	-2030	834	2504
14355630	-2422	1028	2185
14355958	-2186	1120	1995
14356286	-1935	1122	1861
14356614	-1533	1151	1891
14356942	-1236	1054	1925
14357270	-518	321	1983
14357598	53	66	2108
14357926	860	-58	2170
14358254	1788	-776	1955
14358582	2672	-1296	1710
14358910	3454	-1636	1371
14359238	4025	-1942	1015
14359566	4433	-2431	730
14359894	4289	-2434	485
14360222	3493	-2132	343
14360550	2356	-1864	181
14360878	1348	-2239	73
14361206	570	-2226	-156
14361534	323	-2193	-423
14361862	567	-2226	-640
14362190	1005	-2101	-872
14362518	1202	-1686	-1349
14362846	1230	-1268	-1723
14363174	1853	-1541	-1947
14363502	1727	-1710	-2796
14363830	1804	-1478	-3505
14364158	2353	-1422	-3070
14364486	2077	-1370	-2231
14364814	896	770	-1781
14365142	-647	1398	-1940
14365470	-1900	69	-2154
14365798	-2546	-65	-2284
14366126	-2560	131	-2327
14366454	-1969	-281	-2228
14366782	-979	77	-2007
14367110	-286	-9	-1844
14367438	659	-115	-1845
14367766	1605	-110	-1895
14368094	2266	7	-1945
14368422	2278	302	-1923
14368750	1868	523	-1853
14369078	1135	645	-1746
14369406	284	790	-1547
14369734	-415	826	-1291
14370062	-752	769	-1011
14370390	-650	570	-769
14370718	-341	611	-575
14371046	155	736	-523
14371374	637	565	-353
14371702	1011	655	-227
14372030	1007	672	-230
14372358	569	654	-171
14372686	20	797	-160
14373014	-248	755	-186
14373342	-425	688	-222
14373670	-501	615	-298
14373998	-366	499	-273
14374326	-215	511	-333
14374654	-76	455	-240
14374982	10	438	-200
14375310	42	478	-172
14375638	-40	525	-128
14375966	-59	533	-102
14376294	-13	520	-47
14376622	68	513	-19
14376950	156	505	6
14377278	212	433	12
14377606	195	461	11
14377934	122	419	46
14378262	124	403	58
14378590	65	401	93
14378918	4	410	129
14379246	-13	384	133
14379574	-20	399	146
14379902	-4	407	168
14380230	61	366	170
14380558	159	345	181
14380886	220	325	179
14381214	284	266	153
14381542	343	276	150
14381870	385	270	153
14382198	442	250	160
14382526	465	200	133
14382854	502	195	134
14383182	464	190	143
14383510	433	182	149
14383838	344	172	159
14384166	241	175	147
14384494	139	168	137
14384822	132	172	132
14385150	138	163	124
14385478	136	161	118
14385806	119	164	98
14386134	88	157	94
14386462	80	141	86
14386790	66	131	74
14387118	47	112	70
14387446	23	99	59
14387774	13	99	55
14388102	36	83	34
14388430	39	66	39
14388758	28	81	19
14389086	17	85	38
14389414	16	104	30
14389742	2	92	45
14390070	-33	94	31
14390398	-51	89	29
14390726	-54	89	35
14391054	-75	99	14
14391382	-55	92	28
14391710	-55	88	21
14392038	-46	106	31
14392366	-57	74	24
14392694	-91	76	22
14393022	-119	69	25
14393350	-171	67	24
14393678	-222	58	26
14394006	-253	66	5
14394334	-277	57	10
14394662	-294	64	1
14394990	-285	43	-1
14395318	-266	60	-14
14395646	-238	51	-7
14395974	-252	40	-14
14396302	-250	41	-7
14396630	-258	48	-19
14396958	-287	43	-11
14397286	-311	51	-6
14397614	-332	43	-15
14397942	-375	25	-28
14398270	-390	19	-23
14398598	-395	5	-35
14398926	-375	8	-40
14399254	-336	-11	-60
14399582	-269	-10	-73
14399910	-260	1	-67
14400238	-237	-1	-68
14400566	-243	-3	-68
14400894	-272	-15	-75
14401222	-233	-12	-65
14401550	-232	-5	-83
14401878	-234	-7	-82
14402206	-237	3	-87
14402534	-256	-1	-78
14402862	-270	13	-71
14403190	-290	16	-88
14403518	-287	33	-79
14403846	-291	20	-60
14404174	-267	37	-59
14404502	-242	18	-57
14404830	-204	25	-48
14405158	-202	39	-45
14405486	-204	30	-33
14405814	-220	27	-40
14406142	-226	31	-21
14406470	-230	39	-21
14406798	-221	25	-5
14407126	-235	56	-9
14407454	-246	43	-9
14407782	-250	72	-6
14408110	-257	69	-23
14408438	-235	55	-22
14408766	-233	71	-21
14409094	-234	46	-25
14409422	-208	64	-17
14409750	-238	90	-18
14410078	-248	91	-30
14410406	-240	72	-27
14410734	-234	92	-8
14411062	-220	97	-11
14411390	-168	92	-20
14411718	-148	109	-8
14412046	-127	99	-9
14412374	-123	92	3
14412702	-113	103	10
14413030	-124	115	8
14413358	-111	104	10
14413686	-90	100	13
14414014	-97	99	18
14414342	-100	103	18
14414670	-87	106	-8
14414998	-60	88	2
14415326	-66	90	-8
14415654	-52	98	5
14415982	-41	95	3
14416310	-53	105	13
14416638	-49	98	12
14416966	-25	82	-6
14417294	-9	103	-5
14417622	-14	109	-2
14417950	-18	103	11
14418278	-25	91	15
14418606	23	101	13
14418934	132	118	19
14419262	183	84	37
14419590	144	91	46
14419918	141	111	28
14420246	156	125	48
14420574	212	111	44
14420902	236	128	45
14421230	217	129	58
14421558	213	135	69
14421886	218	99	43
14422214	174	121	33
14422542	118	154	34
14422870	64	144	33
14423198	11	150	7
14423526	-51	143	-2
14423854	-75	161	-17
14424182	-77	132	-35
14424510	-55	150	-32
14424838	-44	143	-37
14425166	-56	136	-37
14425494	-41	139	-41
14425822	-39	136	-28
14426150	-47	153	-20
14426478	-61	138	-24
14426806	-62	138	-25
14427134	-92	168	-16
14427462	-102	156	-11
14427790	-116	163	-10
14428118	-147	166	4
14428446	-126	170	1
14428774	-104	159	5
14429102	-91	154	14
14429430	-87	164	8
14429758	-80	176	7
14430086	-96	182	19
14430414	-114	182	29
14430742	-130	191	26
14431070	-132	175	29
14431398	-102	190	32
14431726	-66	169	26
14432054	-9	169	8
14432382	22	154	24
14432710	29	167	15
14433038	31	162	23
14433366	21	165	15
14433694	-1	166	30
14434022	-31	177	34
14434350	-35	175	31
14434678	-49	162	22
14435006	-41	170	31
14435334	-23	174	21
14435662	-15	164	10
14435990	-5	165	10
14436318	-5	161	20
14436646	21	165	15
14436974	34	144	19
14437302	24	146	14
14437630	25	156	15
14437958	10	145	10
14438286	-21	147	4
14438614	-44	144	6
14438942	-40	128	-3
14439270	-35	133	0
14439598	-10	144	-3
14439926	6	136	-10
14440254	-17	127	-5
14440582	6	135	3
14440910	11	143	-8
14441238	7	133	-9
14441566	4	144	-2
14441894	-3	137	-4
14442222	-15	154	3
14442550	-28	147	-17
14442878	-44	138	-15
14443206	-51	142	-26
14443534	-75	144	-22
14443862	-72	155	-33
14444190	-82	148	-38
14444518	-86	148	-38
14444846	-112	156	-43
14445174	-106	161	-57
14445502	-125	157	-57
14445830	-135	147	-54
14446158	-126	162	-53
14446486	-157	160	-71
14446814	-140	165	-70
14447142	-133	156	-63
14447470	-127	165	-69
14447798	-143	167	-61
14448126	-135	157	-56
14448454	-125	164	-62
14448782	-122	161	-50
14449110	-95	156	-45
14449438	-110	169	-48
14449766	-104	147	-56
14450094	-104	155	-59
14450422	-120	160	-52
14450750	-110	152	-63
14451078	-107	148	-72
14451406	-106	119	-68
14451734	-102	142	-76
14452062	-110	148	-65
14452390	-115	139	-85
14452718	-115	140	-70
14453046	-129	138	-83
14453374	-107	139	-87
14453702	-110	133	-81
14454030	-103	123	-80
14454358	-83	121	-76
14454686	-55	128	-73
14455014	-58	122	-63
14455342	-39	119	-68
14455670	-47	122	-75
14455998	-39	111	-91
14456326	-16	97	-86
14456654	-16	94	-88
14456982	-8	86	-112
14457310	4	73	-114
14457638	7	69	-115
14457966	10	63	-120
14458294	47	92	-126
14458622	10	59	-125
14458950	-17	91	-130
14459278	-28	83	-125
14459606	-59	83	-121
14459934	-76	85	-131
14460262	-64	74	-122
14460590	-67	78	-127
14460918	-89	103	-117
14461246	-103	108	-106
14461574	-82	150	-109
14461902	-117	104	-97
14462230	-163	124	-77
14462558	-219	158	-62
14462886	-234	134	-48
14463214	-256	167	-51
14463542	-249	148	-52
14463870	-225	147	-53
14464198	-178	149	-49
14464526	-143	143	-47
14464854	-132	162	-46
14465182	-112	167	-34
14465510	-105	176	-23
14465838	-120	163	-19
14466166	-108	168	-20
14466494	-126	168	-20
14466822	-150	172	-10
14467150	-150	164	-27
14467478	-150	168	-11
14467806	-154	165	-17
14468134	-155	166	0
14468462	-174	166	-14
14468790	-169	165	-2
14469118	-160	166	-9
14469446	-158	157	-22
14469774	-140	155	-25
14470102	-143	140	-20
14470430	-146	136	-13
14470758	-159	133	-15
14471086	-173	146	-11
14471414	-155	134	-19
14471742	-141	129	-10
14472070	-106	128	-25
14472398	-84	116	-23
14472726	-32	133	-23
14473054	6	135	-19
14473382	21	131	-13
14473710	11	132	-19
14474038	1	121	-10
14474366	-5	140	-4
14474694	-4	135	-4
14475022	-14	126	3
14475350	-8	128	15
14475678	-30	128	10
14476006	-27	138	12
14476334	-30	129	18
14476662	-17	122	12
14476990	-10	121	20
14477318	-1	120	15
14477646	45	108	8
14477974	48	122	18
14478302	34	119	17
14478630	9	113	27
14478958	-10	117	11
14479286	-58	125	16
14479614	-84	119	14
14479942	-126	78	51
14480270	-277	29	85
14480598	-333	-40	102
14480926	-351	-50	102
14481254	-304	-8	89
14481582	-162	121	148
14481910	-165	60	110
14482238	-90	92	118
14482566	-77	108	186
14482894	-150	111	195
14483222	-312	129	211
14483550	-399	151	220
14483878	-519	179	250
14484206	-598	202	291
14484534	-638	166	315
14484862	-595	143	370
14485190	-561	213	430
14485518	-527	218	525
14485846	-445	158	632
14486174	-381	173	802
14486502	-268	336	1021
14486830	-325	419	1322
14487158	-391	698	1601
14487486	-386	805	1909
14487814	-191	1032	2266
14488142	-49	1399	2569
14488470	179	1620	2955
14488798	518	1607	3198
14489126	752	1602	3479
14489454	1204	1569	3683
14489782	1332	1442	3905
14490110	1247	1808	4071
14490438	1101	1785	4379
14490766	-596	1581	4488
14491094	-58	2597	4612
14491422	-499	1779	4011
14491750	767	688	3623
14492078	1691	1153	3104
14492406	2259	2111	2995
14492734	2127	2027	3385
14493062	1298	1547	3880
14493390	589	1210	4344
14493718	-217	834	4655
14494046	-401	938	4809
14494374	-271	847	4779
14494702	325	776	4775
14495030	653	1236	4750
14495358	671	1792	4820
14495686	451	1883	4878
14496014	178	1964	4923
14496342	141	1822	5041
14496670	90	1258	4998
14496998	546	885	4653
14497326	1190	1194	4473
14497654	1796	2226	4279
14497982	1935	3223	4073
14498310	1342	3271	3849
14498638	695	2463	3539
14498966	332	1668	3132
14499294	76	1550	2826
14499622	90	1385	2353
14499950	-75	945	1793
14500278	-151	739	1063
14500606	303	23	313
14500934	1009	1037	-1027
14501262	376	1324	-2356
14501590	345	637	-3534
14501918	1176	360	-4627
14502246	1974	-495	-5377
14502574	2131	-906	-6170
14502902	1547	-1296	-7354
14503230	80	-1004	-8427
14503558	-1272	-711	-9185
14503886	-3083	-1471	-8811
14504214	-4958	-4183	-8068
14504542	-5462	-5005	-6920
14504870	-4789	-4788	-6690
14505198	-2696	-4847	-7214
14505526	-3278	-5466	-7722
14505854	-3675	-6068	-8567
14506182	-2776	-5335	-8798
14506510	-3621	-4774	-8722
14506838	-6208	-5135	-7980
14507166	-6073	-5272	-7672
14507494	-6067	-4214	-7351
14507822	-4237	-2210	-5587
14508150	-2017	-578	-3128
14508478	-1446	706	-1476
14508806	-1636	803	-563
14509134	-1279	-120	82
14509462	125	-651	462
14509790	1633	-393	508
14510118	2878	-458	639
14510446	4132	-780	695
14510774	4538	-680	959
14511102	4414	-311	927
14511430	5276	-899	968
14511758	5194	-1041	1318
14512086	4391	-710	1946
14512414	5294	-1557	3559
14512742	985	6053	1954
14513070	7538	-1968	7698
14513398	8337	1245	14022
14513726	-487	13033	11797
14514054	-3583	8690	7095
14514382	-2085	2035	2260
14514710	-3257	1595	1262
14515038	-4829	2159	3815
14515366	378	6542	6568
14515694	2825	3675	3192
14516022	14186	746	218
14516350	-9264	23600	-4634
14516678	10517	-14386	4707
14517006	10347	-24784	3626
14517334	5864	-4608	-455
14517662	16607	3438	-3949
14517990	15255	-1683	-7463
14518318	9418	-175	-7020
14518646	-3965	8504	-1093
14518974	-6794	2819	-4469
14519302	-9098	-839	-9381
14519630	-11269	-2917	-6625
14519958	-10032	-4584	-3924
14520286	-7731	-4967	-4862
14520614	-5218	-4231	-2949
14520942	-2983	-2712	-2449
14521270	-2335	-2777	-3911
14521598	-1850	-2388	-4204
14521926	-1517	-1351	-4536
14522254	-584	-777	-4581
14522582	500	-990	-3678
14522910	2469	-1026	-2818
14523238	3006	-683	-2366
14523566	3418	-392	-1761
14523894	3747	-412	-1503
14524222	3422	-349	-1262
14524550	2844	-94	-916
14524878	1673	-47	-499
14525206	422	357	-138
14525534	-1040	310	38
14525862	-1245	609	175
14526190	-1403	237	236
14526518	-912	-38	336
14526846	-340	274	188
14527174	221	-42	200
14527502	362	94	268
14527830	511	83	250
14528158	782	126	107
14528486	878	109	20
14528814	1163	152	-44
14529142	1207	16	-68
14529470	1056	45	-142
14529798	882	-120	-298
14530126	699	297	-167
14530454	241	131	-196
14530782	-97	632	-66
14531110	-570	62	-220
14531438	-930	197	-170
14531766	-1177	252	-63
14532094	-1278	320	74
14532422	-1307	257	138
14532750	-1175	186	167
14533078	-884	344	286
14533406	-688	302	266
14533734	-569	349	306
14534062	-605	252	291
14534390	-686	154	244
14534718	-751	195	208
14535046	-557	43	227
14535374	-274	19	212
14535702	-68	-15	175
14536030	150	-36	162
14536358	-16	-20	152
14536686	-269	7	123
14537014	-563	53	149
14537342	-822	116	212
