Time Stamp	Gyroscope X	Gyroscope Y	Gyroscope Z
RAW	RAW	RAW	RAW
no units	no units	no units	no units
10819928	-30	121	-34
10820256	-21	125	-35
10820584	-31	127	-33
10820912	-15	121	-23
10821240	-23	118	-25
10821568	-28	127	-19
10821896	-62	119	-26
10822224	-73	127	-20
10822552	-115	119	-30
10822880	-134	117	-30
10823208	-137	113	-31
10823536	-141	104	-22
10823864	-143	118	-19
10824192	-137	114	-27
10824520	-118	115	-16
10824848	-98	123	-15
10825176	-111	123	-19
10825504	-124	128	-10
10825832	-133	121	-11
10826160	-136	117	-2
10826488	-102	126	12
10826816	-116	129	9
10827144	-75	122	23
10827472	-29	126	27
10827800	23	141	33
10828128	88	158	35
10828456	150	165	31
10828784	203	163	28
10829112	227	175	36
10829440	208	172	30
10829768	199	173	39
10830096	165	161	36
10830424	157	155	40
10830752	126	159	39
10831080	117	161	29
10831408	94	150	37
10831736	99	176	23
10832064	83	160	25
10832392	85	171	21
10832720	49	166	11
10833048	39	164	24
10833376	29	153	23
10833704	12	155	12
10834032	17	170	12
10834360	-6	153	19
10834688	-12	164	22
10835016	-14	159	13
10835344	-10	168	11
10835672	-32	167	7
10836000	-30	161	11
10836328	-34	166	15
10836656	-52	170	16
10836984	-50	169	8
10837312	-34	185	11
10837640	-35	191	8
10837968	-59	185	12
10838296	-49	180	5
10838624	-60	190	6
10838952	-63	180	1
10839280	-63	187	4
10839608	-69	204	4
10839936	-56	191	-2
10840264	-45	198	-11
10840592	-56	186	-8
10840920	-92	194	-14
10841248	-117	186	-8
10841576	-143	191	-12
10841904	-154	183	7
10842232	-163	183	-15
10842560	-159	180	-16
10842888	-161	188	-10
10843216	-160	184	-19
10843544	-148	172	-14
10843872	-164	182	-9
10844200	-145	182	-9
10844528	-145	179	-8
10844856	-142	193	-18
10845184	-147	185	-25
10845512	-164	182	-15
10845840	-182	170	-18
10846168	-180	161	-29
10846496	-193	164	-35
10846824	-176	174	-23
10847152	-184	181	-29
10847480	-186	179	-22
10847808	-209	180	-7
10848136	-204	181	-17
10848464	-230	176	-21
10848792	-256	178	-15
10849120	-328	175	-8
10849448	-392	163	-5
10849776	-475	142	16
10850104	-619	148	45
10850432	-829	121	89
10850760	-1081	84	137
10851088	-1347	41	174
10851416	-1532	12	202
10851744	-1642	18	204
10852072	-1661	43	192
10852400	-1487	63	146
10852728	-1151	127	89
10853056	-880	207	64
10853384	-783	214	59
10853712	-802	200	99
10854040	-889	198	136
10854368	-972	186	163
10854696	-990	200	181
10855024	-988	213	184
10855352	-987	220	191
10855680	-1008	231	205
10856008	-1051	246	197
10856336	-983	240	155
10856664	-834	289	134
10856992	-692	308	115
10857320	-689	331	144
10857648	-756	322	179
10857976	-818	323	222
10858304	-864	320	239
10858632	-853	347	249
10858960	-799	392	253
10859288	-757	407	249
10859616	-757	398	260
10859944	-807	396	270
10860272	-885	388	290
10860600	-990	380	310
10860928	-1077	365	325
10861256	-1183	366	356
10861584	-1254	371	368
10861912	-1311	370	382
10862240	-1330	371	408
10862568	-1324	383	404
10862896	-1302	382	411
10863224	-1231	376	424
10863552	-1170	399	422
10863880	-1079	410	422
10864208	-1026	436	426
10864536	-984	444	420
10864864	-968	454	431
10865192	-969	444	439
10865520	-1008	414	446
10865848	-985	410	461
10866176	-944	406	452
10866504	-900	425	447
10866832	-870	428	453
10867160	-839	473	455
10867488	-774	458	447
10867816	-717	472	442
10868144	-689	504	425
10868472	-634	477	421
10868800	-548	493	398
10869128	-436	511	391
10869456	-337	491	396
10869784	-257	548	391
10870112	-183	543	390
10870440	-146	502	393
10870768	-234	427	389
10871096	-399	319	401
10871424	-553	339	412
10871752	-641	340	420
10872080	-628	354	392
10872408	-483	384	369
10872736	-307	415	358
10873064	-197	435	324
10873392	-170	443	312
10873720	-161	453	315
10874048	-180	431	332
10874376	-192	426	324
10874704	-197	421	307
10875032	-194	401	295
10875360	-189	404	300
10875688	-120	427	304
10876016	-42	398	262
10876344	34	441	256
10876672	63	426	260
10877000	62	429	240
10877328	36	402	244
10877656	-27	380	259
10877984	-104	363	268
10878312	-171	338	261
10878640	-235	339	253
10878968	-180	319	232
10879296	-54	378	224
10879624	8	375	189
10879952	64	385	169
10880280	58	369	176
10880608	-11	355	169
10880936	-64	346	182
10881264	-129	325	182
10881592	-171	327	176
10881920	-231	313	173
10882248	-231	310	159
10882576	-140	312	125
10882904	19	337	107
10883232	154	352	86
10883560	234	378	86
10883888	171	329	81
10884216	87	306	85
10884544	70	266	86
10884872	93	223	88
10885200	210	214	66
10885528	296	233	46
10885856	355	236	28
10886184	344	188	16
10886512	240	139	17
10886840	92	39	19
10887168	-39	-22	33
10887496	-131	-69	20
10887824	-188	-115	2
10888152	-151	-115	-21
10888480	-41	-137	-50
10888808	167	-137	-67
10889136	257	-129	-99
10889464	248	-171	-144
10889792	208	-177	-162
10890120	117	-241	-194
10890448	4	-279	-220
10890776	-148	-344	-236
10891104	-233	-392	-240
10891432	-293	-412	-248
10891760	-287	-421	-279
10892088	-240	-455	-304
10892416	-144	-429	-343
10892744	-61	-480	-390
10893072	-33	-515	-432
10893400	-111	-577	-499
10893728	-152	-618	-545
10894056	-129	-656	-596
10894384	-72	-670	-663
10894712	7	-683	-727
10895040	56	-697	-759
10895368	98	-724	-785
10895696	131	-720	-813
10896024	155	-745	-819
10896352	174	-781	-820
10896680	75	-788	-820
10897008	-60	-845	-819
10897336	-106	-895	-859
10897664	24	-899	-939
10897992	298	-883	-1043
10898320	590	-818	-1128
10898648	853	-786	-1197
10898976	1038	-765	-1254
10899304	1121	-791	-1277
10899632	1148	-801	-1299
10899960	1088	-808	-1304
10900288	1011	-837	-1304
10900616	976	-839	-1292
10900944	1023	-850	-1289
10901272	1088	-833	-1297
10901600	1088	-804	-1300
10901928	1062	-794	-1285
10902256	993	-765	-1279
10902584	882	-760	-1260
10902912	760	-777	-1247
10903240	624	-768	-1239
10903568	490	-779	-1236
10903896	393	-788	-1215
10904224	319	-800	-1227
10904552	246	-779	-1228
10904880	230	-798	-1219
10905208	288	-754	-1219
10905536	396	-725	-1244
10905864	481	-700	-1283
10906192	595	-654	-1292
10906520	670	-640	-1307
10906848	709	-596	-1303
10907176	637	-628	-1268
10907504	513	-568	-1270
10907832	371	-556	-1260
10908160	233	-514	-1263
10908488	135	-521	-1260
10908816	-8	-514	-1197
10909144	-154	-523	-1154
10909472	-317	-541	-1109
10909800	-455	-508	-1054
10910128	-533	-457	-996
10910456	-645	-474	-1038
10910784	-496	-447	-973
10911112	-305	-426	-961
10911440	-101	-438	-891
10911768	63	-401	-822
10912096	144	-432	-744
10912424	172	-388	-597
10912752	152	-296	-397
10913080	103	-284	-313
10913408	117	-184	-241
10913736	193	73	-159
10914064	150	346	-181
10914392	3	457	-280
10914720	-225	413	-486
10915048	-464	393	-672
10915376	-607	481	-686
10915704	-638	569	-598
10916032	-633	517	-574
10916360	-632	598	-635
10916688	-532	713	-641
10917016	-364	785	-580
10917344	-132	837	-475
10917672	-116	762	-290
10918000	-326	599	-31
10918328	-783	473	276
10918656	-1406	384	504
10918984	-1971	430	720
10919312	-2295	461	885
10919640	-2361	559	1038
10919968	-2231	639	1158
10920296	-2095	747	1197
10920624	-1966	808	1223
10920952	-1865	916	1226
10921280	-1866	978	1228
10921608	-1945	990	1218
10921936	-2099	935	1195
10922264	-2254	974	1200
10922592	-2386	925	1186
10922920	-2449	898	1194
10923248	-2453	858	1145
10923576	-2412	814	1085
10923904	-2323	800	1013
10924232	-2182	744	963
10924560	-1997	618	880
10924888	-1923	577	824
10925216	-1935	550	751
10925544	-1864	507	726
10925872	-1703	494	700
10926200	-1672	476	718
10926528	-1733	524	738
10926856	-1666	569	815
10927184	-1555	592	961
10927512	-1528	605	1111
10927840	-1587	635	1263
10928168	-1621	629	1436
10928496	-1633	637	1727
10928824	-1503	550	1773
10929152	-1469	517	1846
10929480	-1416	437	1858
10929808	-1425	375	1741
10930136	-1455	419	1545
10930464	-1375	488	1306
10930792	-1142	595	1035
10931120	-624	790	722
10931448	65	1075	390
10931776	1007	1260	50
10932104	1985	1384	-149
10932432	2934	1260	-123
10932760	3737	1008	-77
10933088	3945	676	10
10933416	3069	442	50
10933744	1317	303	52
10934072	-289	220	231
10934400	-1262	174	511
10934728	-1456	66	631
10935056	-1057	73	621
10935384	-354	175	509
10935712	335	353	438
10936040	779	467	494
10936368	789	449	570
10936696	428	344	597
10937024	27	271	621
10937352	-265	194	702
10937680	-354	156	705
10938008	-385	124	669
10938336	-383	155	690
10938664	-292	175	690
10938992	-62	232	642
10939320	135	254	611
10939648	395	251	611
10939976	505	359	617
10940304	543	429	590
10940632	583	418	578
10940960	570	433	536
10941288	594	532	529
10941616	533	500	477
10941944	409	497	407
10942272	270	468	349
10942600	194	443	280
10942928	-35	443	255
10943256	-231	450	230
10943584	-427	358	174
10943912	-587	352	190
10944240	-542	282	159
10944568	-415	241	119
10944896	-271	281	20
10945224	-138	254	0
10945552	-10	239	-38
10945880	112	216	-50
10946208	121	150	-68
10946536	102	146	-90
10946864	-101	133	-45
10947192	-409	44	-64
10947520	-618	50	-12
10947848	-794	18	-31
10948176	-934	42	-20
10948504	-1013	31	-54
10948832	-1090	51	-65
10949160	-1184	58	-49
10949488	-1183	76	-44
10949816	-1065	121	-77
10950144	-843	138	-104
10950472	-611	171	-142
10950800	-440	205	-167
10951128	-318	223	-168
10951456	-295	212	-161
10951784	-305	208	-143
10952112	-359	224	-145
10952440	-423	175	-145
10952768	-469	180	-140
10953096	-510	169	-168
10953424	-549	178	-149
10953752	-607	179	-150
10954080	-624	192	-144
10954408	-542	191	-150
10954736	-351	205	-180
10955064	-166	220	-199
10955392	-41	250	-202
10955720	23	239	-204
10956048	9	238	-198
10956376	-57	201	-173
10956704	-129	182	-174
10957032	-141	181	-179
10957360	-127	193	-180
10957688	-52	194	-188
10958016	52	208	-199
10958344	140	224	-218
10958672	217	220	-240
10959000	214	203	-238
10959328	152	198	-228
10959656	73	170	-230
10959984	-12	144	-210
10960312	-107	130	-209
10960640	-183	145	-162
10960968	-253	126	-139
10961296	-286	127	-108
10961624	-279	94	-97
10961952	-316	72	-67
10962280	-315	106	-68
10962608	-296	119	-54
10962936	-283	119	-44
10963264	-279	110	-45
10963592	-257	69	-26
10963920	-245	56	6
10964248	-251	13	44
10964576	-289	-23	73
10964904	-368	-3	130
10965232	-388	-31	151
10965560	-473	-44	199
10965888	-529	-19	237
10966216	-438	40	230
10966544	-236	88	223
10966872	25	112	189
10967200	280	160	202
10967528	443	191	185
10967856	447	187	193
10968184	368	218	228
10968512	214	268	258
10968840	57	308	269
10969168	-79	277	263
10969496	-107	314	265
10969824	-94	303	248
10970152	-16	310	224
10970480	96	346	197
10970808	223	421	156
10971136	265	457	141
10971464	313	411	143
10971792	438	368	126
10972120	502	432	137
10972448	658	473	105
10972776	689	452	80
10973104	824	508	118
10973432	887	452	135
10973760	912	379	159
10974088	823	371	198
10974416	750	354	216
10974744	733	297	197
10975072	665	204	193
10975400	503	150	172
10975728	230	128	217
10976056	-53	91	236
10976384	-220	119	249
10976712	-145	182	215
10977040	109	256	144
10977368	409	322	102
10977696	597	351	84
10978024	633	353	65
10978352	529	337	36
10978680	372	305	45
10979008	240	278	28
10979336	149	250	4
10979664	97	232	0
10979992	58	201	-31
10980320	23	207	-22
10980648	-30	204	-39
10980976	-11	203	-44
10981304	35	195	-66
10981632	110	197	-83
10981960	144	192	-91
10982288	89	155	-107
10982616	-72	120	-120
10982944	-207	83	-113
10983272	-366	69	-111
10983600	-531	40	-124
10983928	-610	21	-125
10984256	-652	24	-134
10984584	-661	29	-156
10984912	-626	52	-161
10985240	-484	92	-185
10985568	-286	123	-210
10985896	-118	138	-228
10986224	19	140	-252
10986552	43	130	-263
10986880	-40	98	-244
10987208	-155	75	-244
10987536	-300	30	-286
10987864	-386	14	-247
10988192	-444	-21	-253
10988520	-526	-21	-264
10988848	-577	-38	-232
10989176	-643	-32	-247
10989504	-601	-36	-256
10989832	-544	-32	-237
10990160	-422	-14	-248
10990488	-318	18	-244
10990816	-243	25	-247
10991144	-192	26	-226
10991472	-183	17	-213
10991800	-221	10	-204
10992128	-249	-9	-195
10992456	-283	-6	-191
10992784	-283	-28	-182
10993112	-277	-16	-185
10993440	-256	10	-190
10993768	-222	6	-194
10994096	-215	-6	-185
10994424	-195	8	-172
10994752	-168	21	-169
10995080	-131	37	-171
10995408	-124	33	-152
10995736	-146	28	-147
10996064	-164	17	-121
10996392	-184	22	-113
10996720	-199	26	-106
10997048	-221	34	-106
10997376	-204	39	-103
10997704	-156	52	-110
10998032	-110	63	-113
10998360	-86	64	-120
10998688	-31	68	-127
10999016	32	87	-135
10999344	133	127	-145
10999672	223	146	-160
11000000	306	165	-175
11000328	395	163	-186
11000656	439	185	-178
11000984	404	180	-167
11001312	335	168	-150
11001640	269	151	-132
11001968	205	131	-132
11002296	151	152	-131
11002624	117	132	-140
11002952	98	135	-135
11003280	107	134	-149
11003608	112	137	-149
11003936	108	147	-140
11004264	92	134	-136
11004592	97	136	-128
11004920	84	133	-103
11005248	43	128	-99
11005576	23	130	-96
11005904	39	136	-93
11006232	81	124	-105
11006560	84	138	-97
11006888	51	129	-92
11007216	-10	117	-72
11007544	-32	114	-71
11007872	-64	104	-64
11008200	-74	106	-56
11008528	-49	115	-52
11008856	-41	97	-60
11009184	-49	102	-59
11009512	-65	81	-46
11009840	-100	97	-41
11010168	-106	104	-48
11010496	-114	87	-31
11010824	-105	89	-29
11011152	-76	93	-36
11011480	-39	107	-30
11011808	-8	112	-43
11012136	27	112	-41
11012464	60	126	-47
11012792	77	131	-19
11013120	57	122	-36
11013448	25	118	-45
11013776	-32	107	-20
11014104	-40	97	-9
11014432	-39	97	-7
11014760	-26	114	-15
11015088	-3	114	-25
11015416	10	115	-14
11015744	-6	104	-12
11016072	-5	112	-5
11016400	-10	112	-4
11016728	4	116	-4
11017056	21	115	-9
11017384	54	111	-12
11017712	73	122	0
11018040	84	125	-8
11018368	107	130	0
11018696	89	127	-8
11019024	88	118	3
11019352	62	117	9
11019680	52	121	3
11020008	48	123	8
11020336	48	124	0
11020664	35	124	-6
11020992	50	140	-4
11021320	64	123	2
11021648	54	127	-11
11021976	49	137	-13
11022304	49	136	10
11022632	38	133	0
11022960	10	135	5
11023288	-2	138	2
11023616	-5	127	5
11023944	-1	127	-7
11024272	-6	142	0
11024600	-5	144	-3
11024928	-15	146	-1
11025256	-10	135	-14
11025584	-11	135	-10
11025912	-34	134	-8
11026240	-9	137	-2
11026568	2	140	1
11026896	7	137	-9
11027224	-4	136	1
11027552	-1	144	-16
11027880	10	150	-11
11028208	20	151	-24
11028536	17	155	-23
11028864	10	165	-30
11029192	38	156	-14
11029520	46	164	-17
11029848	54	157	-30
11030176	81	166	-37
11030504	78	157	-23
11030832	71	167	-33
11031160	32	164	-27
11031488	29	156	-28
11031816	27	170	-27
11032144	34	157	-35
11032472	61	177	-28
11032800	64	174	-33
11033128	29	156	-16
11033456	-13	155	-28
11033784	-43	163	-19
11034112	-72	161	-22
11034440	-73	151	-14
11034768	-65	156	-17
11035096	-60	155	-17
11035424	-40	165	-29
11035752	-31	160	-36
11036080	-27	161	-27
11036408	-21	153	-15
11036736	-20	165	-41
11037064	-23	147	-25
11037392	-48	155	-20
11037720	-42	151	-22
11038048	-54	147	-24
11038376	-72	158	-30
11038704	-45	157	-31
11039032	-56	143	-26
11039360	-81	145	-12
11039688	-96	135	-13
11040016	-121	138	-17
11040344	-115	115	-10
11040672	-103	123	-14
11041000	-94	131	-4
11041328	-72	122	-16
11041656	-62	136	-10
11041984	-77	129	-4
11042312	-75	128	-6
11042640	-83	116	-14
11042968	-82	117	-8
11043296	-72	124	-20
11043624	-38	143	-24
11043952	-35	145	-32
11044280	-45	143	-29
11044608	-47	147	-23
11044936	-47	144	-18
11045264	-22	155	-33
11045592	38	161	-38
11045920	91	190	-62
11046248	116	182	-55
11046576	103	177	-50
11046904	53	153	-43
11047232	-14	139	-34
11047560	-58	127	-33
11047888	-75	116	-22
11048216	-28	124	-25
11048544	24	141	-50
11048872	84	151	-54
11049200	84	136	-51
11049528	40	149	-52
11049856	-69	129	-46
11050184	-174	101	-29
11050512	-245	93	-38
11050840	-300	85	-26
11051168	-312	82	-25
11051496	-292	75	-37
11051824	-264	87	-57
11052152	-242	81	-42
11052480	-182	97	-36
11052808	-167	93	-53
11053136	-126	104	-61
11053464	-112	105	-61
11053792	-132	106	-63
11054120	-107	90	-62
11054448	-110	94	-63
11054776	-122	81	-63
11055104	-151	82	-57
11055432	-161	82	-56
11055760	-170	92	-57
11056088	-143	82	-62
11056416	-121	94	-60
11056744	-149	70	-72
11057072	-142	58	-88
11057400	-185	47	-75
11057728	-235	14	-67
11058056	-284	18	-66
11058384	-240	16	-62
11058712	-200	19	-71
11059040	-166	36	-85
11059368	-159	23	-82
11059696	-187	12	-72
11060024	-213	12	-81
11060352	-215	16	-82
11060680	-203	-7	-96
11061008	-165	27	-85
11061336	-91	40	-84
11061664	-2	46	-88
11061992	82	46	-96
11062320	119	56	-94
11062648	161	55	-96
11062976	128	42	-93
11063304	117	44	-100
11063632	95	23	-95
11063960	81	15	-97
11064288	94	10	-91
11064616	61	18	-76
11064944	16	-4	-59
11065272	-26	-17	-50
11065600	-54	-25	-36
11065928	-39	-46	-34
11066256	-30	-44	5
11066584	-16	2	105
11066912	-50	-33	164
11067240	-94	3	163
11067568	-193	39	172
11067896	-269	-45	139
11068224	-318	-35	153
11068552	-279	61	210
11068880	-246	128	263
11069208	-302	139	232
11069536	-391	48	138
11069864	-387	175	194
11070192	-430	-50	-123
11070520	-250	-149	-316
11070848	-221	-145	-495
11071176	-428	-171	-571
11071504	-640	-187	-578
11071832	-875	-269	-559
11072160	-1102	-304	-493
11072488	-1281	-298	-548
11072816	-1412	-247	-566
11073144	-1287	-166	-520
11073472	-934	-44	-577
11073800	-393	137	-739
11074128	326	556	-986
11074456	1180	794	-1220
11074784	2184	1198	-1457
11075112	3036	1355	-1608
11075440	3666	1397	-1728
11075768	3710	1382	-1795
11076096	3122	1302	-1838
11076424	2043	1186	-1960
11076752	783	1247	-2064
11077080	-68	1384	-2204
11077408	-548	1646	-2533
11077736	-523	1952	-2896
11078064	-23	2245	-3249
11078392	477	2507	-3572
11078720	636	2751	-4039
11079048	617	3154	-4923
11079376	1223	3439	-5395
11079704	1847	3361	-5463
11080032	1999	3395	-5367
11080360	2386	3324	-4478
11080688	2173	3441	-3285
11081016	1611	3195	-2636
11081344	843	2835	-3161
11081672	282	2300	-3428
11082000	-191	1477	-3868
11082328	679	1279	-4556
11082656	581	645	-4465
11082984	290	41	-4566
11083312	-417	102	-4480
11083640	-1097	-51	-4073
11083968	-1643	211	-3685
11084296	-2040	180	-3205
11084624	-2526	408	-2763
11084952	-2127	493	-2520
11085280	-1407	167	-1786
11085608	-1160	153	-967
11085936	-768	202	457
11086264	170	896	1339
11086592	1117	501	2393
11086920	1348	-429	3757
11087248	1620	-742	4498
11087576	1900	-135	5533
11087904	2884	-780	5625
11088232	3861	-2290	5507
11088560	3695	-3201	5847
11088888	4240	-2936	5383
11089216	5856	-2887	4493
11089544	6480	-3526	5856
11089872	6915	-5026	6894
11090200	7389	-7128	9218
11090528	10629	-8227	8904
11090856	12239	-6054	10628
11091184	7376	-3441	10601
11091512	-2373	-2000	3980
11091840	-9894	-3108	-1422
11092168	-11479	-1261	-4402
11092496	-8787	-631	-5602
11092824	-4434	875	-5050
11093152	-1367	1094	-3151
11093480	1071	467	-1702
11093808	1878	-310	-110
11094136	2014	-1227	852
11094464	2082	-1333	1049
11094792	1778	-1240	1439
11095120	1923	-684	1342
11095448	2297	-1182	1343
11095776	2490	-990	1016
11096104	2014	-1336	814
11096432	825	-1352	361
11096760	-430	-1383	34
11097088	-862	-1199	-445
11097416	-1281	-1275	-947
11097744	-1338	-1135	-1361
11098072	-2012	-1120	-1566
11098400	-952	-2731	-1463
11098728	-5509	-3356	-6356
11099056	-5684	-846	-12894
11099384	-10060	4944	-20862
11099712	-10968	14266	-19099
11100040	1223	11966	-7541
11100368	11207	-6121	792
11100696	-2912	-5246	-851
11101024	432	4495	-4067
11101352	-2191	3315	-3580
11101680	-5608	2985	-1887
11102008	-4003	1069	-1657
11102336	-93	183	-921
11102664	4264	1759	-628
11102992	3575	-149	321
11103320	5636	-1800	2866
11103648	7040	205	4239
11103976	-402	-112	7116
11104304	-6415	-1563	-1792
11104632	-7435	464	-2600
11104960	-3581	1473	867
11105288	2709	2083	3104
11105616	6100	1777	5115
11105944	7238	1037	5238
11106272	7199	-264	5482
11106600	6280	-738	4920
11106928	5651	-906	4621
11107256	4562	-1616	4829
11107584	3593	-1851	4776
11107912	2271	-2091	4464
11108240	871	-2050	4294
11108568	-149	-2002	4074
11108896	-551	-1789	3746
11109224	-1264	-1193	3445
11109552	-1631	-1357	3035
11109880	-1907	-1176	2765
11110208	-2235	-1092	2437
11110536	-2476	-752	2145
11110864	-2424	-611	1885
11111192	-1858	-450	1738
11111520	-1093	-258	1554
11111848	-109	27	1558
11112176	825	119	1518
11112504	1691	260	1374
11112832	2065	109	1226
11113160	2362	310	1120
11113488	2563	230	1070
11113816	2827	314	924
11114144	2999	420	849
11114472	2656	515	733
11114800	2120	545	601
11115128	1392	390	508
11115456	603	302	462
11115784	-254	284	363
11116112	-950	128	200
11116440	-1418	107	16
11116768	-1756	120	-37
11117096	-2100	150	-148
11117424	-1959	36	-217
11117752	-1661	354	-163
11118080	-1244	286	-152
11118408	-627	335	-44
11118736	-215	542	69
11119064	130	463	30
11119392	446	571	12
11119720	662	593	42
11120048	315	594	84
11120376	467	644	73
11120704	440	486	116
11121032	281	452	139
11121360	76	509	225
11121688	-218	520	211
11122016	-526	407	223
11122344	-792	359	276
11122672	-769	414	215
11123000	-811	228	268
11123328	-1000	336	299
11123656	-1219	146	285
11123984	-1129	122	219
11124312	-1012	88	227
11124640	-1155	95	193
11124968	-1373	104	170
11125296	-1431	99	108
11125624	-1298	195	77
11125952	-855	182	83
11126280	-444	223	97
11126608	127	246	124
11126936	333	129	133
11127264	306	138	147
11127592	180	162	161
11127920	82	191	149
11128248	141	234	129
11128576	354	318	106
11128904	649	367	90
11129232	920	363	51
11129560	909	328	17
11129888	675	302	-26
11130216	324	244	-14
11130544	110	109	23
11130872	-175	145	59
11131200	-312	136	50
11131528	-297	121	54
11131856	-221	194	24
11132184	-114	274	-39
11132512	-71	289	-106
11132840	-84	281	-151
11133168	-96	249	-181
11133496	-122	202	-196
11133824	-158	203	-194
11134152	-172	232	-192
11134480	-162	234	-217
11134808	-114	301	-212
11135136	-79	302	-216
11135464	-57	307	-221
11135792	-87	306	-212
11136120	-139	295	-224
11136448	-181	284	-213
11136776	-238	268	-183
11137104	-282	268	-171
11137432	-306	243	-155
11137760	-361	223	-149
11138088	-399	228	-136
11138416	-408	234	-138
11138744	-455	221	-130
11139072	-486	208	-127
11139400	-482	183	-120
11139728	-517	199	-142
11140056	-513	177	-134
11140384	-470	198	-128
11140712	-427	223	-133
11141040	-354	253	-136
11141368	-320	253	-143
11141696	-269	232	-158
11142024	-221	224	-142
11142352	-136	191	-155
11142680	-37	179	-127
11143008	90	185	-124
11143336	181	165	-115
11143664	206	141	-118
11143992	239	164	-115
11144320	260	177	-110
11144648	289	167	-116
11144976	332	137	-135
11145304	365	142	-147
11145632	364	113	-151
11145960	322	107	-142
11146288	260	107	-139
11146616	236	137	-134
11146944	209	163	-141
11147272	201	179	-155
11147600	205	170	-133
11147928	191	186	-144
11148256	183	180	-146
11148584	131	187	-145
11148912	40	139	-150
11149240	-31	146	-138
11149568	-101	136	-128
11149896	-134	132	-102
11150224	-162	153	-101
11150552	-167	151	-97
11150880	-171	162	-96
11151208	-184	183	-104
11151536	-204	165	-117
11151864	-216	179	-105
11152192	-225	167	-143
11152520	-210	160	-128
11152848	-180	184	-127
11153176	-169	152	-137
11153504	-179	129	-150
11153832	-216	120	-143
11154160	-274	102	-126
11154488	-286	101	-140
11154816	-274	107	-149
11155144	-242	103	-165
11155472	-198	116	-147
11155800	-140	148	-138
11156128	-101	153	-119
11156456	-121	131	-136
11156784	-138	114	-108
11157112	-175	118	-112
11157440	-178	106	-121
11157768	-205	89	-128
11158096	-193	92	-125
11158424	-181	89	-134
11158752	-150	72	-132
11159080	-141	73	-116
11159408	-122	88	-129
11159736	-71	108	-124
11160064	-68	95	-118
11160392	-74	95	-132
11160720	-46	109	-138
11161048	-39	104	-143
11161376	-9	89	-140
11161704	2	95	-125
11162032	4	100	-120
11162360	12	110	-121
11162688	-9	91	-123
11163016	-19	96	-116
11163344	-19	112	-120
11163672	-27	104	-120
11164000	-22	123	-132
11164328	-17	108	-128
11164656	-5	119	-118
11164984	6	113	-115
11165312	7	126	-119
11165640	35	126	-110
11165968	33	136	-121
11166296	42	143	-104
11166624	46	168	-118
11166952	41	162	-122
11167280	0	148	-130
11167608	-36	175	-101
11167936	-68	192	-103
11168264	-78	195	-117
11168592	-82	199	-133
11168920	-89	203	-124
11169248	-58	228	-106
11169576	-54	217	-112
11169904	-61	216	-106
11170232	-61	207	-102
11170560	-84	203	-92
11170888	-64	197	-105
11171216	-43	194	-90
11171544	-39	204	-86
11171872	-13	199	-98
11172200	-46	198	-95
11172528	-78	200	-76
11172856	-112	172	-89
11173184	-142	168	-83
11173512	-138	167	-84
11173840	-119	168	-69
11174168	-88	176	-81
11174496	-89	159	-66
11174824	-41	158	-71
11175152	-5	164	-61
11175480	-23	153	-59
11175808	-33	154	-58
11176136	-54	141	-43
11176464	-75	129	-38
11176792	-71	130	-37
11177120	-26	142	-31
11177448	-4	136	-49
11177776	20	152	-40
11178104	11	131	-30
11178432	8	130	-40
11178760	12	122	-29
11179088	9	122	-30
11179416	26	132	-50
11179744	-4	124	-41
11180072	-6	108	-36
11180400	-30	117	-40
11180728	-50	109	-37
11181056	-75	105	-30
11181384	-66	118	-27
11181712	-73	119	-31
11182040	-69	121	-32
11182368	-68	108	-50
11182696	-86	124	-50
11183024	-79	112	-42
11183352	-104	112	-46
11183680	-101	114	-53
11184008	-104	109	-53
11184336	-90	106	-48
11184664	-65	115	-55
11184992	-35	128	-52
11185320	-16	121	-41
11185648	13	117	-61
11185976	8	103	-49
11186304	20	100	-53
11186632	33	111	-44
11186960	34	117	-33
11187288	31	100	-41
11187616	26	99	-42
11187944	31	100	-40
11188272	27	103	-46
11188600	15	109	-58
11188928	21	113	-47
11189256	16	115	-57
11189584	-9	94	-55
11189912	20	114	-54
11190240	20	117	-51
11190568	17	103	-55
11190896	22	103	-59
11191224	15	106	-47
11191552	9	101	-63
11191880	28	111	-67
11192208	15	119	-44
11192536	19	121	-45
11192864	18	102	-73
11193192	-24	111	-60
11193520	-42	101	-52
11193848	-51	100	-47
11194176	-60	105	-57
11194504	-70	100	-56
11194832	-88	95	-69
11195160	-87	106	-64
11195488	-73	105	-62
11195816	-73	107	-64
11196144	-81	112	-53
11196472	-80	117	-76
11196800	-82	117	-62
11197128	-67	117	-60
11197456	-79	133	-64
11197784	-72	129	-65
11198112	-69	125	-63
11198440	-71	126	-66
11198768	-52	150	-56
11199096	-75	125	-62
11199424	-84	126	-53
11199752	-104	123	-59
11200080	-108	124	-53
11200408	-103	126	-47
11200736	-107	117	-41
11201064	-115	128	-52
11201392	-97	125	-53
11201720	-75	112	-46
11202048	-79	123	-49
11202376	-66	125	-31
11202704	-60	129	-27
11203032	-64	128	-35
11203360	-62	131	-35
11203688	-52	135	-30
11204016	-33	139	-40
11204344	-32	139	-36
11204672	-39	144	-34
11205000	-36	133	-33
11205328	-49	125	-32
11205656	-39	128	-40
11205984	-59	142	-42
11206312	-37	133	-52
11206640	-51	143	-61
11206968	-47	129	-62
11207296	-57	135	-60
11207624	-59	121	-46
11207952	-77	127	-55
11208280	-69	134	-56
11208608	-50	146	-67
11208936	-46	134	-70
11209264	-33	151	-72
11209592	-55	137	-77
11209920	-66	145	-65
11210248	-86	158	-85
11210576	-95	156	-78
11210904	-101	139	-80
11211232	-103	137	-73
11211560	-94	137	-70
11211888	-99	137	-76
11212216	-96	147	-76
11212544	-73	125	-70
11212872	-76	136	-75
11213200	-92	139	-75
11213528	-100	147	-71
11213856	-99	134	-78
11214184	-113	132	-68
11214512	-91	142	-67
11214840	-87	143	-82
11215168	-80	127	-72
11215496	-81	133	-72
11215824	-88	133	-70
11216152	-82	121	-70
11216480	-81	127	-61
11216808	-93	122	-66
11217136	-93	130	-69
11217464	-109	110	-75
11217792	-108	125	-61
11218120	-93	124	-68
11218448	-68	120	-70
11218776	-74	121	-75
11219104	-68	119	-75
11219432	-56	136	-61
11219760	-53	133	-73
11220088	-68	126	-64
11220416	-101	135	-75
11220744	-101	121	-75
11221072	-120	127	-87
11221400	-116	126	-81
11221728	-105	114	-80
11222056	-89	115	-96
11222384	-97	128	-95
11222712	-84	113	-89
11223040	-71	113	-94
11223368	-80	104	-95
11223696	-85	90	-101
11224024	-84	71	-110
11224352	-116	71	-98
11224680	-141	76	-104
11225008	-138	71	-105
11225336	-142	76	-128
11225664	-156	65	-143
11225992	-153	62	-144
11226320	-153	50	-155
11226648	-105	31	-175
11226976	-98	9	-177
11227304	-105	-17	-182
11227632	-138	-43	-191
11227960	-221	-63	-203
11228288	-287	-58	-211
11228616	-348	-75	-215
11228944	-402	-84	-228
11229272	-420	-72	-237
11229600	-390	-51	-252
11229928	-359	-49	-255
11230256	-301	-36	-267
11230584	-257	-32	-268
11230912	-242	-4	-251
11231240	-219	16	-262
11231568	-187	-3	-261
11231896	-156	-13	-245
11232224	-147	-31	-254
11232552	-176	-17	-245
11232880	-229	-34	-222
11233208	-282	-51	-225
11233536	-302	-59	-204
11233864	-291	-55	-193
11234192	-269	-48	-188
11234520	-219	-40	-186
11234848	-114	-21	-195
11235176	-63	-3	-183
11235504	-30	15	-178
11235832	9	16	-157
11236160	4	21	-145
11236488	6	20	-131
11236816	9	20	-117
11237144	16	37	-111
11237472	19	30	-121
11237800	30	26	-105
11238128	-8	29	-97
11238456	-31	24	-90
11238784	-79	27	-78
11239112	-104	29	-73
11239440	-82	46	-66
11239768	-76	63	-50
11240096	-48	75	-54
11240424	-28	76	-48
11240752	0	89	-46
11241080	3	93	-47
11241408	10	103	-42
11241736	22	126	-44
11242064	75	122	-52
11242392	111	133	-60
11242720	135	145	-65
11243048	132	135	-46
11243376	118	134	-38
11243704	122	149	-40
11244032	118	145	-46
11244360	144	162	-50
11244688	115	152	-48
11245016	67	116	-47
11245344	0	117	-39
11245672	-33	127	-48
11246000	-45	118	-63
11246328	-34	134	-85
11246656	-27	133	-68
11246984	-3	122	-71
11247312	4	124	-54
11247640	26	128	-65
11247968	66	117	-77
11248296	122	125	-65
11248624	191	137	-92
11248952	232	149	-112
11249280	255	126	-146
11249608	233	135	-167
11249936	217	151	-196
11250264	225	137	-221
11250592	359	192	-253
11250920	534	257	-296
11251248	754	224	-319
11251576	1112	180	-298
11251904	1450	179	-314
11252232	1649	256	-211
11252560	1767	166	-97
11252888	1856	-49	-33
11253216	1887	-96	-9
11253544	1890	-191	54
11253872	1829	-376	203
11254200	1722	-461	319
11254528	1594	-514	387
11254856	1492	-612	477
11255184	1313	-625	482
11255512	1104	-696	489
11255840	939	-760	529
11256168	791	-809	540
11256496	661	-828	502
11256824	630	-844	474
11257152	649	-840	443
11257480	748	-798	399
11257808	806	-800	364
11258136	900	-770	349
11258464	983	-662	282
11258792	1141	-566	245
11259120	1286	-478	185
11259448	1435	-387	130
11259776	1615	-235	109
11260104	1786	-38	132
11260432	1873	88	175
11260760	1804	437	219
11261088	1606	639	198
11261416	969	524	95
11261744	-143	121	-342
11262072	-1332	105	-630
11262400	-2044	487	-945
11262728	-2223	1063	-1119
11263056	-1715	2002	-1093
11263384	-903	2546	-1283
11263712	-224	2876	-1227
11264040	-55	2754	-1013
11264368	-265	2777	-738
11264696	-781	2780	-335
11265024	-2007	2391	120
11265352	-3613	1955	459
11265680	-5346	1590	832
11266008	-6669	1412	1298
11266336	-7628	1271	1765
11266664	-8117	879	2046
11266992	-8399	1110	2203
11267320	-8641	953	2379
11267648	-8220	1064	2412
11267976	-7764	1382	2496
11268304	-7486	1862	2524
11268632	-6862	1880	2377
11268960	-5903	1868	2233
11269288	-4761	1697	2160
11269616	-3587	1560	2106
11269944	-2455	1620	1974
11270272	-1473	1595	1773
11270600	-656	1440	1563
11270928	336	1276	1368
11271256	1380	1042	1320
11271584	1987	749	1004
11271912	1621	390	462
11272240	642	793	19
11272568	-324	1108	94
11272896	-1506	837	476
11273224	-1264	411	615
11273552	-234	644	421
11273880	949	793	155
11274208	1663	1251	-148
11274536	1479	1407	-232
11274864	925	1377	-138
11275192	222	1036	-19
11275520	-477	745	55
11275848	-1085	831	41
11276176	-1540	769	45
11276504	-1882	750	152
11276832	-2006	809	238
11277160	-1879	746	330
11277488	-1711	801	287
11277816	-1364	797	213
11278144	-957	785	117
11278472	-593	630	96
11278800	-254	634	109
11279128	229	557	101
11279456	700	580	109
11279784	1102	575	75
11280112	1498	572	63
11280440	1750	565	53
11280768	1819	541	35
11281096	1617	491	68
11281424	1323	479	85
11281752	1124	528	111
11282080	991	421	161
11282408	404	472	224
11282736	-214	499	322
11283064	-818	306	462
11283392	-1445	159	383
11283720	-1890	89	501
11284048	-1949	190	572
11284376	-1273	329	651
11284704	-55	387	644
11285032	1280	428	471
11285360	2226	462	242
11285688	2611	473	104
11286016	2623	508	-26
11286344	2301	434	-105
11286672	1785	349	-138
11287000	1167	284	-142
11287328	576	181	-54
11287656	235	133	14
11287984	-127	1	66
11288312	-395	-71	100
11288640	-392	-130	115
11288968	-158	-80	101
11289296	168	-67	-11
11289624	459	-75	37
11289952	492	-74	136
11290280	306	-146	260
11290608	91	-128	360
11290936	-59	-197	497
11291264	-220	-171	563
11291592	-295	-199	659
11291920	-392	-246	810
11292248	-480	-261	907
11292576	-680	-306	967
11292904	-778	-329	1053
11293232	-736	-245	1074
11293560	-416	-196	1101
11293888	4	-205	1105
11294216	384	-199	1146
11294544	608	-222	1165
11294872	659	-246	1219
11295200	583	-317	1265
11295528	368	-332	1295
11295856	118	-355	1337
11296184	-47	-392	1285
11296512	-66	-347	1233
11296840	-23	-321	1268
11297168	35	-310	1264
11297496	98	-280	1294
11297824	111	-274	1332
11298152	87	-329	1323
11298480	125	-306	1333
11298808	212	-264	1315
11299136	294	-240	1294
11299464	424	-237	1275
11299792	557	-225	1228
11300120	687	-151	1200
11300448	794	-102	1128
11300776	910	-91	1084
11301104	978	-57	1018
11301432	1034	36	947
11301760	907	-3	899
11302088	772	-38	875
11302416	722	0	816
11302744	733	30	778
11303072	781	85	717
11303400	946	145	659
11303728	1105	227	600
11304056	1248	201	506
11304384	1228	182	471
11304712	1068	160	438
11305040	949	136	396
11305368	819	103	371
11305696	692	102	345
11306024	698	132	296
11306352	584	178	257
11306680	509	167	220
11307008	558	222	168
11307336	656	245	144
11307664	657	306	87
11307992	579	315	7
11308320	457	323	-49
11308648	344	322	-135
11308976	217	343	-223
11309304	68	335	-273
11309632	-111	281	-360
11309960	-68	305	-442
11310288	-10	310	-556
11310616	-6	292	-617
11310944	51	356	-678
11311272	126	363	-751
11311600	177	395	-811
11311928	168	363	-886
11312256	116	350	-939
11312584	23	341	-1018
11312912	-80	307	-1041
11313240	-103	344	-1100
11313568	-144	399	-1173
11313896	-119	406	-1252
11314224	-144	411	-1318
11314552	-187	382	-1380
11314880	-238	352	-1444
11315208	-305	352	-1543
11315536	-285	372	-1605
11315864	-258	406	-1659
11316192	-222	385	-1717
11316520	-188	437	-1753
11316848	-359	370	-1803
11317176	-590	310	-1840
11317504	-873	255	-1801
11317832	-1059	218	-1812
11318160	-1159	275	-1742
11318488	-1264	294	-1728
11318816	-1275	234	-1739
11319144	-1273	191	-1681
11319472	-1231	276	-1614
11319800	-1200	297	-1623
11320128	-1145	282	-1594
11320456	-1196	247	-1552
11320784	-1166	136	-1577
11321112	-1257	268	-1511
11321440	-1126	285	-1487
11321768	-925	288	-1509
11322096	-582	325	-1484
11322424	-242	331	-1458
11322752	-6	290	-1364
11323080	20	274	-1289
11323408	-45	246	-1229
11323736	-194	127	-1178
11324064	-416	100	-1104
11324392	-389	113	-1135
11324720	-377	167	-1092
11325048	-380	170	-1058
11325376	-363	193	-1035
11325704	-324	226	-1011
11326032	-392	223	-989
11326360	-495	225	-1002
11326688	-568	212	-973
11327016	-647	170	-959
11327344	-717	153	-946
11327672	-771	127	-922
11328000	-857	124	-897
11328328	-935	101	-890
11328656	-1033	74	-881
11328984	-1099	53	-874
11329312	-1130	69	-837
11329640	-1140	61	-777
11329968	-1176	34	-734
11330296	-1211	14	-705
11330624	-1291	23	-724
11330952	-1483	34	-771
11331280	-1581	143	-818
11331608	-1697	210	-882
11331936	-1931	336	-913
11332264	-1885	435	-1088
11332592	-1785	565	-1308
11332920	-1557	720	-1520
11333248	-1462	687	-1952
11333576	-1570	694	-2275
11333904	-1622	910	-2536
11334232	-1407	1020	-2673
11334560	-1195	1174	-2824
11334888	-999	1191	-3046
11335216	-736	1288	-3103
11335544	-412	1344	-3153
11335872	-252	1231	-3068
11336200	-264	1173	-2863
11336528	-185	1115	-2809
11336856	-269	819	-2682
11337184	-174	632	-2725
11337512	-21	1070	-2717
11337840	275	1187	-2433
11338168	965	1307	-2324
11338496	2035	1440	-2117
11338824	3420	1512	-2047
11339152	4916	1498	-2048
11339480	6272	1380	-2070
11339808	7278	1112	-2052
11340136	7848	719	-1982
11340464	7855	149	-1942
11340792	7269	-626	-1945
11341120	6220	-1793	-1749
11341448	4839	-2203	-1566
11341776	3330	-2745	-1418
11342104	2260	-3121	-1170
11342432	1551	-3624	-973
11342760	1276	-3977	-885
11343088	1361	-4223	-738
11343416	1712	-4406	-592
11343744	2146	-4594	-456
11344072	2627	-4651	-236
11344400	2843	-4646	-18
11344728	2885	-4824	224
11345056	2767	-4653	427
11345384	2737	-4554	657
11345712	2674	-4597	883
11346040	2730	-4672	1080
11346368	2710	-4675	1366
11346696	2354	-4606	1572
11347024	1708	-4609	1814
11347352	1287	-4542	2063
11347680	564	-4373	2095
11348008	-253	-4406	2063
11348336	-935	-4225	2081
11348664	-1694	-4026	2070
11348992	-2621	-3725	1843
11349320	-3085	-3079	1697
11349648	-2943	-2316	1640
11349976	-2711	-2030	1470
11350304	-2233	-1629	1553
11350632	-1609	-1073	1555
11350960	-875	-283	1373
11351288	-576	587	1125
11351616	-861	1531	722
11351944	-908	2442	552
11352272	-517	3253	556
11352600	466	3849	517
11352928	1845	4394	298
11353256	2941	4869	-113
11353584	4108	5377	-462
11353912	4926	4868	-298
11354240	5032	3830	-336
11354568	4853	1846	-96
11354896	3616	-25	154
11355224	-71	-698	386
11355552	-3442	-724	487
11355880	-5929	-147	1067
11356208	-7379	456	1044
11356536	-7562	1075	511
11356864	-6356	1464	437
11357192	-4645	1965	365
11357520	-2866	1167	108
11357848	-2250	787	-545
11358176	-2609	486	-942
11358504	-3948	657	-1086
11358832	-4931	1005	-1049
11359160	-5368	1560	-1090
11359488	-4894	1602	-1108
11359816	-3730	1613	-857
11360144	-2773	1337	-895
11360472	-2089	763	-902
11360800	-1638	366	-752
11361128	-1636	505	-954
11361456	-1523	782	-1136
11361784	-1247	820	-1148
11362112	-896	1019	-1220
11362440	-912	981	-1295
11362768	-679	837	-1374
11363096	-445	596	-1618
11363424	-325	375	-1822
11363752	-62	290	-1924
11364080	-295	146	-2093
11364408	-127	-288	-2304
11364736	-311	-374	-2422
11365064	-293	-374	-2514
11365392	-197	-574	-2538
11365720	-280	-680	-2502
11366048	-245	-653	-2308
11366376	-65	-514	-2258
11366704	-176	-533	-2121
11367032	-178	-611	-2143
11367360	35	-644	-2045
11367688	303	-616	-2132
11368016	474	-685	-2018
11368344	602	-770	-2022
11368672	775	-776	-1929
11369000	986	-927	-1841
11369328	960	-1099	-1698
11369656	1064	-1116	-1570
11369984	1214	-1194	-1390
11370312	1302	-1242	-1183
11370640	1279	-1314	-969
11370968	1205	-1273	-806
11371296	1131	-1200	-659
11371624	1010	-1150	-526
11371952	871	-1077	-360
11372280	750	-981	-192
11372608	682	-831	-24
11372936	712	-616	193
11373264	820	-444	378
11373592	851	-353	542
11373920	872	-323	653
11374248	881	-282	779
11374576	841	-187	917
11374904	781	-142	1037
11375232	760	-101	1112
11375560	673	-91	1148
11375888	641	-40	1154
11376216	639	-45	1185
11376544	619	-39	1187
11376872	632	-80	1148
11377200	630	-53	1090
11377528	551	-16	1067
11377856	502	-15	1024
11378184	414	0	911
11378512	314	76	859
11378840	197	101	835
11379168	126	124	734
11379496	121	148	649
11379824	172	223	642
11380152	236	252	602
11380480	321	318	594
11380808	345	350	586
11381136	383	294	581
11381464	444	297	545
11381792	520	278	529
11382120	514	258	562
11382448	490	247	543
11382776	401	227	531
11383104	287	210	525
11383432	241	159	464
11383760	90	96	410
11384088	10	95	356
11384416	32	83	252
11384744	30	69	148
11385072	94	82	3
11385400	247	60	-104
11385728	348	191	-171
11386056	413	314	-269
11386384	548	361	-385
11386712	694	206	-423
11387040	693	284	-566
11387368	540	359	-661
11387696	137	395	-777
11388024	-162	413	-926
11388352	-185	420	-1186
11388680	14	442	-1329
11389008	452	406	-1345
11389336	1257	393	-1199
11389664	2450	467	-899
11389992	3403	639	-516
11390320	3967	317	-241
11390648	4521	-88	73
11390976	4858	-618	241
11391304	5415	-1070	281
11391632	5775	-1060	416
11391960	6611	-1271	614
11392288	7596	-1329	753
11392616	9014	-1297	1034
11392944	10402	-1033	1432
11393272	11575	-423	1731
11393600	12433	218	1578
11393928	13223	625	1165
11394256	14570	1251	531
11394584	16525	2048	252
11394912	19044	3716	292
11395240	20803	6040	723
11395568	22668	7403	1375
11395896	24478	8027	2201
11396224	26083	8348	2739
11396552	28521	8340	2899
11396880	29587	8396	2787
11397208	28228	7698	2633
11397536	26012	7967	1134
11397864	23459	7902	-572
11398192	20662	7581	-1618
11398520	17894	6869	-2553
11398848	14927	6131	-3337
11399176	12125	5227	-4096
11399504	9361	4531	-4622
11399832	6459	3674	-4922
11400160	4480	2982	-4739
11400488	3377	2557	-4500
11400816	3164	2176	-4124
11401144	3430	2198	-3647
11401472	3733	2086	-3022
11401800	4061	2036	-2406
11402128	4661	1900	-1827
11402456	4911	1712	-1425
11402784	5128	1493	-1100
11403112	5122	1247	-962
11403440	4948	999	-730
11403768	4702	1025	-619
11404096	4458	1076	-664
11404424	4222	1336	-805
11404752	3993	1300	-878
11405080	2767	1489	-746
11405408	2752	1207	-894
11405736	2310	1292	-852
11406064	1681	1466	-847
11406392	1303	1662	-744
11406720	1428	1825	-814
11407048	1627	2024	-950
11407376	1882	2253	-1097
11407704	2027	2244	-1313
11408032	2214	2063	-1389
11408360	2197	2019	-1516
11408688	2035	1975	-1545
11409016	1690	1921	-1603
11409344	1368	1946	-1668
11409672	1048	2128	-1852
11410000	670	2169	-2111
11410328	281	2123	-2332
11410656	33	2122	-2605
11410984	-365	2494	-2890
11411312	-741	2548	-3148
11411640	-824	2952	-3363
11411968	-1011	2808	-3696
11412296	-828	2342	-3835
11412624	-560	2065	-3718
11412952	34	1543	-3595
11413280	682	919	-3589
11413608	1016	208	-3673
11413936	1031	-407	-3668
11414264	888	-845	-3735
11414592	354	-1117	-3890
11414920	-430	-1172	-4044
11415248	-1461	-1055	-4212
11415576	-2546	-680	-4357
11415904	-3257	33	-4581
11416232	-3654	975	-4971
11416560	-3828	2081	-5819
11416888	-4057	3004	-6991
11417216	-3821	3167	-7863
11417544	-3208	2739	-7929
11417872	-49	946	-7174
11418200	6038	-699	-5778
11418528	7144	142	-3025
11418856	-429	-1170	-3134
11419184	-6148	-2137	-4577
11419512	-9012	-367	-4470
11419840	-9109	-802	-3953
11420168	-6546	209	-3830
11420496	-5143	-52	-3519
11420824	-5014	-366	-3534
11421152	-2899	783	-3954
11421480	-327	1492	-3967
11421808	1197	1499	-3342
11422136	874	1438	-3324
11422464	-436	1649	-3209
11422792	-1079	1818	-3159
11423120	-751	1751	-3234
11423448	181	1925	-3139
11423776	1108	2171	-2812
11424104	1597	2032	-2860
11424432	2193	2021	-2821
11424760	1794	2232	-2586
11425088	1801	2403	-2624
11425416	1906	2426	-2528
11425744	2127	2331	-2528
11426072	2396	2117	-2337
11426400	2993	1853	-2029
11426728	3383	1626	-2052
11427056	3869	1542	-1669
11427384	4543	1287	-1464
11427712	5133	1260	-1532
11428040	6106	1449	-1565
11428368	7099	1739	-1377
11428696	8237	1782	-1036
11429024	9327	2031	-1574
11429352	10461	1964	-2007
11429680	11651	2160	-2207
11430008	12901	2376	-2473
11430336	13787	2257	-2847
11430664	13610	2307	-3360
11430992	12930	2238	-3344
11431320	11333	1958	-3494
11431648	9635	1670	-2784
11431976	7509	653	-2609
11432304	5409	212	-2511
11432632	4817	156	-2236
11432960	4116	1027	-1397
11433288	4223	975	-674
11433616	4628	679	-255
11433944	5015	499	276
11434272	4966	152	-21
11434600	3950	710	1136
11434928	3262	801	1321
11435256	2351	1380	1043
11435584	2135	1831	457
11435912	3421	2518	109
11436240	6084	3090	55
11436568	9287	3093	209
11436896	11807	2464	432
11437224	12796	1119	457
11437552	11694	49	538
11437880	9074	-158	404
11438208	5469	392	379
11438536	2633	49	791
11438864	1327	68	833
11439192	1962	-243	446
11439520	3168	123	294
11439848	2946	-40	-59
11440176	1856	-284	2
11440504	-308	-575	-84
11440832	-2381	-564	-211
11441160	-3862	-507	-246
11441488	-4871	-474	-479
11441816	-5328	-412	-757
11442144	-5147	-157	-1134
11442472	-4274	140	-1751
11442800	-3522	450	-2414
11443128	-3204	893	-3291
11443456	-3274	1169	-3932
11443784	-3271	1297	-4500
11444112	-3534	1513	-4620
11444440	-3889	990	-5197
11444768	-5013	502	-5216
11445096	-6735	-254	-4972
11445424	-8669	-1438	-4883
11445752	-9683	-2445	-4502
11446080	-10246	-3119	-3951
11446408	-10339	-3984	-3261
11446736	-10983	-5134	-2148
11447064	-12386	-6641	-1425
11447392	-14649	-8502	-936
11447720	-17019	-10339	-344
11448048	-19033	-11948	1292
11448376	-20533	-13842	3427
11448704	-20980	-15490	5517
11449032	-21954	-17010	6996
11449360	-23380	-18021	6583
11449688	-25255	-17504	4113
11450016	-26273	-15438	2161
11450344	-26114	-12922	2036
11450672	-22965	-10540	2787
11451000	-18447	-8513	4367
11451328	-12259	-5880	5424
11451656	-6826	-2900	5195
11451984	-3250	-74	4746
11452312	35	1993	4178
11452640	3061	4156	4308
11452968	4473	4940	4433
11453296	5031	6000	3887
11453624	5079	5163	5114
11453952	1438	2181	4603
11454280	-3366	-2766	3350
11454608	-7921	-3696	2325
11454936	-10111	-2480	1769
11455264	-10275	-1660	2105
11455592	-8079	296	1591
11455920	-5270	699	1304
11456248	-3117	-604	1725
11456576	312	496	1290
11456904	647	-328	1382
11457232	-246	-908	1245
11457560	-4472	21	326
11457888	-1851	-678	501
11458216	-3774	-1460	487
11458544	-4163	-1411	488
11458872	-5285	-1371	758
11459200	-5863	-2191	149
11459528	-6134	-2792	218
11459856	-6200	-2995	321
11460184	-6520	-3441	241
11460512	-6525	-3569	-22
11460840	-6871	-3785	-317
11461168	-7330	-4067	-285
11461496	-7810	-4408	-451
11461824	-8551	-4771	-537
11462152	-8908	-5572	-752
11462480	-9217	-6304	-1280
11462808	-9632	-6933	-1431
11463136	-9986	-7514	-1294
11463464	-9969	-7626	-1449
11463792	-9938	-8131	-1322
11464120	-9839	-8183	-1349
11464448	-9770	-8939	-1309
11464776	-10296	-9782	-1621
11465104	-11929	-11325	-1926
11465432	-13366	-13220	-2109
11465760	-14823	-15423	-2223
11466088	-16832	-17065	-2233
11466416	-18704	-18313	-2343
11466744	-20320	-19313	-2569
11467072	-21563	-20070	-2903
11467400	-22198	-20685	-3283
11467728	-22506	-21358	-3548
11468056	-22531	-22115	-3267
11468384	-22491	-22203	-3203
11468712	-22235	-22555	-2839
11469040	-21897	-22745	-1989
11469368	-21216	-21984	-1489
11469696	-20398	-21220	-1120
11470024	-19794	-19997	-565
11470352	-18897	-18245	-27
11470680	-17662	-15966	635
11471008	-15680	-13873	1142
11471336	-12682	-12174	1507
11471664	-9185	-10205	1586
11471992	-5368	-8004	1671
11472320	-1233	-5955	2062
11472648	2989	-3902	2172
11472976	6465	-2275	2201
11473304	8174	-822	2602
11473632	9228	55	2650
11473960	9182	935	2168
11474288	8854	1984	1079
11474616	8184	2269	262
11474944	7080	2081	-253
11475272	5495	1642	-516
11475600	3986	1548	-627
11475928	2804	1585	-724
11476256	2551	1214	-424
11476584	2835	824	41
11476912	2024	124	506
11477240	712	-159	814
11477568	-536	-556	596
11477896	-1643	-365	155
11478224	-1488	192	-320
11478552	-1207	1119	-681
11478880	3	1398	-1361
11479208	1208	1862	-1824
11479536	1000	2492	-2251
11479864	1357	2298	-2396
11480192	883	2173	-2430
11480520	675	2392	-2674
11480848	881	2958	-2791
11481176	1435	3427	-2586
11481504	2550	3357	-2221
11481832	4865	2989	-1829
11482160	7593	2385	-832
11482488	9973	2613	483
11482816	11558	2063	1563
11483144	11154	873	2749
11483472	9820	-149	3652
11483800	6556	-1310	3580
11484128	2857	-1870	3543
11484456	-413	-2326	3207
11484784	-2514	-2905	2974
11485112	-3410	-3374	2359
11485440	-3676	-3301	1464
11485768	-3946	-2894	473
11486096	-3914	-2530	-494
11486424	-3555	-2368	-1209
11486752	-3334	-1919	-1662
11487080	-3473	-1421	-1356
11487408	-4434	-950	-319
11487736	-5435	-395	1069
11488064	-6863	764	1880
11488392	-7371	1515	1455
11488720	-5293	2487	1277
11489048	-2294	4777	963
11489376	-9	7192	1643
11489704	-830	3485	1944
11490032	-3776	-1476	353
11490360	-7461	-244	-995
11490688	-7866	2842	-284
11491016	-7600	4221	1325
11491344	-6183	2295	1204
11491672	-3789	1486	1505
11492000	-2033	884	1356
11492328	-1587	1293	974
11492656	-2325	820	1330
11492984	-3373	208	1371
11493312	-4766	104	1265
11493640	-5377	119	1426
11493968	-4863	-135	1437
11494296	-3896	-389	1415
11494624	-3418	-84	1845
11494952	-4044	-64	2129
11495280	-4850	-803	2102
11495608	-5851	-734	1865
11495936	-6795	-612	1865
11496264	-7388	-942	1519
11496592	-7303	-896	1356
11496920	-7371	-844	1320
11497248	-6810	-759	1184
11497576	-6294	-593	985
11497904	-5631	-594	856
11498232	-5176	-372	639
11498560	-4750	-375	554
11498888	-4385	-295	548
11499216	-4251	-240	582
11499544	-4184	-147	501
11499872	-3947	-82	458
11500200	-3643	-124	289
11500528	-3287	-145	204
11500856	-2903	-60	213
11501184	-2538	23	170
11501512	-2221	69	194
11501840	-1971	129	222
11502168	-1689	188	196
11502496	-1488	171	194
11502824	-1379	181	179
11503152	-1043	151	118
11503480	-726	116	130
11503808	-611	81	71
11504136	-733	134	-22
11504464	-852	170	-104
11504792	-913	266	-201
11505120	-728	210	-285
11505448	-454	246	-384
11505776	-375	191	-471
11506104	-291	125	-528
11506432	-194	186	-671
11506760	-2	300	-802
11507088	275	344	-832
11507416	493	431	-910
11507744	676	539	-966
11508072	752	601	-980
11508400	876	571	-977
11508728	1077	529	-950
11509056	1397	539	-941
11509384	1747	413	-928
11509712	1983	377	-901
11510040	2195	380	-945
11510368	2304	360	-1010
11510696	2320	225	-1083
11511024	2354	216	-1063
11511352	2462	-12	-1250
11511680	2649	-56	-1382
11512008	3046	119	-1722
11512336	3134	224	-2274
11512664	3347	250	-2869
11512992	3811	174	-3370
11513320	4252	-204	-3857
11513648	4690	-443	-4342
11513976	5106	-1207	-4767
11514304	4249	-1946	-5357
11514632	2845	-2722	-5712
11514960	590	-2769	-6571
11515288	-2431	-1870	-7105
11515616	-3881	-1376	-8817
11515944	-3139	-296	-10465
11516272	-2472	339	-11193
11516600	-3101	359	-10482
11516928	-6914	-925	-11934
11517256	-9476	-872	-10785
11517584	-11482	1300	-8750
11517912	-10030	1527	-4800
11518240	-7517	728	845
11518568	-4554	-1775	5222
11518896	-6049	-4103	7762
11519224	-7529	-3675	10864
11519552	-7533	-3443	13533
11519880	-4521	-4533	15313
11520208	-839	-5028	17245
11520536	2769	-5043	19567
11520864	3959	-5895	21269
11521192	3535	-6074	22338
11521520	1667	-6198	22816
11521848	-1584	-6912	23593
11522176	-4005	-7480	24286
11522504	-5683	-8232	24536
11522832	-6605	-9939	24364
11523160	-6973	-10555	24049
11523488	-7429	-11312	23722
11523816	-7717	-12275	22910
11524144	-7857	-12615	22015
11524472	-8336	-11714	20648
11524800	-7741	-10272	18101
11525128	-7793	-8926	15067
11525456	-8087	-6814	11507
11525784	-8048	-4617	7418
11526112	-7578	-2088	3504
11526440	-6191	-89	-58
11526768	-4146	1423	-2879
11527096	-2776	2776	-4609
11527424	-2156	3567	-5412
11527752	5150	6446	-5527
11528080	12579	6714	1290
11528408	-9963	18422	9556
11528736	-24372	-14678	-10517
11529064	-19991	-1475	-14052
11529392	-11491	5566	-8351
11529720	-11721	2282	-4582
11530048	-6961	3589	-3852
11530376	-5311	5322	-4620
11530704	-2559	3253	-3822
11531032	-1776	4072	-5192
11531360	-298	5367	-4568
11531688	-463	3388	-2397
11532016	-424	1905	-1739
11532344	1032	3096	-1607
11532672	2403	2817	-1488
11533000	3734	2242	-1519
11533328	2946	1401	-1414
11533656	-421	134	-993
11533984	-2619	146	-862
11534312	-4761	866	-1027
11534640	-5164	209	-977
11534968	-5558	-411	-1030
11535296	-4210	-141	-1066
11535624	-3045	114	-1125
11535952	-1823	-36	-979
11536280	-1336	294	-826
11536608	-1358	431	-944
11536936	-1283	52	-860
11537264	-1524	227	-921
11537592	-1634	150	-979
11537920	-1031	864	-818
11538248	-744	1106	-555
11538576	-323	1150	-590
11538904	-152	1651	-593
11539232	1130	1894	-484
11539560	1690	1655	-444
11539888	1990	1614	-345
11540216	1705	1370	-248
11540544	1218	1090	-97
11540872	582	924	114
11541200	278	576	326
11541528	321	296	481
11541856	637	123	676
11542184	1065	-142	758
11542512	1537	-230	740
11542840	1663	-178	740
11543168	1934	-177	757
11543496	2264	-287	794
11543824	2547	-473	829
11544152	2655	-610	900
11544480	2944	-510	1020
11544808	3106	-201	1170
11545136	3063	-137	1235
11545464	3125	-109	1225
11545792	3238	-116	1284
11546120	3296	-382	1435
11546448	3483	-551	1631
11546776	3691	-707	1788
11547104	4320	-661	1968
11547432	5212	-898	2522
11547760	5822	-1769	3196
11548088	6750	-1794	3409
11548416	7995	-1728	4101
11548744	8591	-2342	4523
11549072	9522	-2982	4949
11549400	9922	-3232	5369
11549728	10305	-2487	5537
11550056	11132	-1950	5346
11550384	12870	-1826	5076
11550712	15367	-1601	5221
11551040	18341	-1074	5486
11551368	21220	-56	5503
11551696	22834	-841	5270
11552024	21127	-3127	3756
11552352	15842	-3330	-1132
11552680	11526	-1890	-3978
11553008	9413	-435	-6929
11553336	9432	1036	-8755
11553664	10420	1167	-9025
11553992	11120	509	-9031
11554320	10095	-377	-9378
11554648	8398	-2147	-9301
11554976	6355	-3087	-9451
11555304	4383	-2912	-9502
11555632	3373	-3075	-9531
11555960	2951	-3010	-9753
11556288	3116	-3136	-9728
11556616	3849	-3061	-9473
11556944	4727	-3119	-8940
11557272	5617	-3387	-8652
11557600	6097	-3652	-8352
11557928	6401	-3780	-8019
11558256	6490	-3944	-7758
11558584	6768	-4041	-7370
11558912	6802	-3732	-7117
11559240	6307	-3501	-6977
11559568	6974	-2840	-6830
11559896	6684	-2602	-6716
11560224	6714	-2128	-6451
11560552	6712	-1571	-6022
11560880	6784	-1301	-5752
11561208	6800	-1000	-5505
11561536	7034	-763	-5120
11561864	7429	-627	-4608
11562192	7924	-290	-4033
11562520	7642	-15	-3315
11562848	7247	55	-2217
11563176	7078	357	-759
11563504	6557	798	1276
11563832	2607	1463	3512
11564160	1520	1310	3549
11564488	-1160	2956	811
11564816	-1423	3350	-3925
11565144	824	4600	-4096
11565472	5201	5015	-2061
11565800	8984	4077	-619
11566128	6966	4270	1412
11566456	-170	-697	-1655
11566784	-669	324	-3698
11567112	-1579	4211	-2634
11567440	-957	3293	-2501
11567768	1404	3140	-1817
11568096	2575	2826	-805
11568424	2352	2321	-307
11568752	1299	1982	-343
11569080	222	1565	-304
11569408	-467	1046	-105
11569736	-1849	610	-90
11570064	-2508	263	-46
11570392	-2647	237	-126
11570720	-1911	717	-190
11571048	-321	1193	-379
11571376	950	2074	-835
11571704	2375	2346	-848
11572032	3690	2697	-1100
11572360	4496	2882	-1306
11572688	4582	3266	-1580
11573016	4527	3599	-1680
11573344	4444	3700	-1899
11573672	4418	3885	-2412
11574000	4484	4304	-3222
11574328	4695	5052	-3947
11574656	5280	5973	-4468
11574984	5979	6882	-4671
11575312	6726	7327	-4858
11575640	7430	7352	-4983
11575968	8167	7178	-4979
11576296	7869	7167	-4697
11576624	7230	6710	-4688
11576952	6425	6170	-4505
11577280	4723	5172	-4405
11577608	3485	3753	-3675
11577936	-667	1215	-2675
11578264	-6621	-1206	-2926
11578592	-9852	-2338	-3858
11578920	-11523	-1037	-3724
11579248	-10638	288	-3269
11579576	-8858	2148	-2535
11579904	-7105	2396	-1865
11580232	-3238	2018	-2377
11580560	509	1751	-2341
11580888	2712	2278	-2858
11581216	3510	3194	-2552
11581544	2066	3216	-1881
11581872	-424	3040	-2065
11582200	-2394	2844	-2186
11582528	-2677	3061	-2358
11582856	-1351	3546	-2246
11583184	700	3492	-2188
11583512	1870	3535	-2401
11583840	2363	2883	-2081
11584168	2267	2621	-2010
11584496	1539	2732	-2064
11584824	1057	2475	-2328
11585152	1292	2654	-2444
11585480	1670	2785	-2274
11585808	2547	2700	-2161
11586136	3030	2326	-2136
11586464	3131	2041	-1985
11586792	2878	1738	-2067
11587120	2985	1385	-2066
11587448	3096	752	-2118
11587776	3040	284	-2305
11588104	3263	27	-2382
11588432	3573	-16	-2540
11588760	3938	294	-2420
11589088	4399	698	-2213
11589416	4918	874	-2102
11589744	5790	924	-2211
11590072	6873	1065	-2276
11590400	8059	1252	-2381
11590728	9031	1327	-2530
11591056	9439	1144	-2890
11591384	9773	545	-3535
11591712	9020	-372	-4143
11592040	8727	-702	-4575
11592368	8198	-915	-4876
11592696	7721	-214	-4454
11593024	7238	153	-4039
11593352	6153	199	-3637
11593680	4743	375	-3505
11594008	4482	972	-3142
11594336	4669	1557	-2395
11594664	5061	1272	-2187
11594992	5507	1103	-2239
11595320	6249	2257	-2081
11595648	6794	3749	-1283
11595976	7659	3852	-15
11596304	8239	3821	614
11596632	7965	3451	1417
11596960	7934	3667	2230
11597288	6231	3361	3102
11597616	3164	2361	3193
11597944	-561	954	2507
11598272	-4207	-831	1571
11598600	-5198	-345	605
11598928	-5486	-235	1107
11599256	-5090	-934	1668
11599584	-4108	-1128	1416
11599912	-1280	-791	702
11600240	1814	-507	415
11600568	3230	-404	444
11600896	2690	-853	805
11601224	1566	-746	722
11601552	-822	215	1591
11601880	-4332	-405	2260
11602208	-6684	-551	1697
11602536	-6293	-420	960
11602864	-4752	-308	172
11603192	-3632	296	-621
11603520	-2548	426	-1391
11603848	-1545	455	-2049
11604176	-580	770	-2600
11604504	510	1035	-3059
11604832	1574	932	-3513
11605160	3082	673	-3729
11605488	3901	653	-3870
11605816	3655	586	-3956
11606144	2617	408	-4434
11606472	1100	179	-4743
11606800	-422	30	-5380
11607128	-1630	-187	-6087
11607456	-2400	-388	-6831
11607784	-2975	-653	-7547
11608112	-3656	-728	-8018
11608440	-3898	-923	-8718
11608768	-4240	-1099	-9440
11609096	-4352	-1142	-10540
11609424	-4946	-1240	-11567
11609752	-6162	-1069	-11091
11610080	-7068	-1553	-12284
11610408	-6857	-3698	-11987
11610736	-9440	-4398	-10943
11611064	-12761	-2677	-10057
11611392	-16138	-2519	-8912
11611720	-18685	-4570	-8628
11612048	-17965	-5054	-6926
11612376	-14841	-3243	-4112
11612704	-10394	-2669	-584
11613032	-6545	-1772	3899
11613360	-2828	-2048	6528
11613688	55	-3291	9439
11614016	1991	-3522	12384
11614344	3199	-3715	14130
11614672	4116	-3905	15554
11615000	5217	-4609	16691
11615328	6262	-4861	18331
11615656	7109	-5052	20073
11615984	6814	-4839	21059
11616312	6009	-5147	21458
11616640	4533	-5106	22085
11616968	2986	-5696	22413
11617296	1721	-6152	22839
11617624	441	-7757	23375
11617952	2417	-8124	25211
11618280	-2327	-9337	24392
11618608	-2459	-10581	23231
11618936	-2097	-11866	22581
11619264	-104	-11634	21703
11619592	140	-10300	19442
11619920	-894	-9193	14892
11620248	-1537	-8381	12058
11620576	-1687	-6342	10135
11620904	-2069	-4357	7772
11621232	-2052	-3334	4633
11621560	-3184	-2696	1264
11621888	-2938	-856	-1278
11622216	-4290	-641	-3481
11622544	-4472	1383	-5193
11622872	-5585	2252	-6984
11623200	-7776	2390	-8235
11623528	-7108	4035	-7990
11623856	-5445	5955	-5269
11624184	-7257	4818	-4408
11624512	-6626	1115	-6872
11624840	-5154	2468	-6919
11625168	-3891	4173	-5648
11625496	-1524	4073	-4605
11625824	850	5069	-3716
11626152	1165	5634	-3138
11626480	2015	5681	-2986
11626808	2271	5416	-2982
11627136	3483	5425	-3346
11627464	3623	5543	-3406
11627792	3234	5355	-3664
11628120	2639	4700	-3957
11628448	2206	4825	-3967
11628776	2769	4749	-3704
11629104	2977	4985	-3582
11629432	3547	5041	-3624
11629760	4337	4854	-3735
11630088	4929	4955	-3937
11630416	5991	5189	-4105
11630744	6938	5227	-3756
11631072	6614	4491	-3660
11631400	4324	3295	-3348
11631728	1512	2135	-3175
11632056	-1533	833	-2734
11632384	-4223	-608	-2479
11632712	-5998	-1721	-2734
11633040	-6215	-1337	-2942
11633368	-6279	-898	-2870
11633696	-6409	-993	-2656
11634024	-5680	-1057	-2451
11634352	-4146	-657	-2550
11634680	-2752	-21	-2438
11635008	-1558	502	-2160
11635336	-975	985	-1966
11635664	-894	1363	-1938
11635992	-821	1737	-2063
11636320	-912	1872	-2399
11636648	-1021	1722	-2512
11636976	-1035	1821	-2627
11637304	-1026	1775	-2683
11637632	-653	1446	-2702
11637960	-224	1474	-2652
11638288	168	1686	-2796
11638616	170	1571	-2993
11638944	52	1648	-3066
11639272	-140	1618	-3131
11639600	-630	1512	-3291
11639928	-1019	1902	-3461
11640256	-959	2391	-3544
11640584	-411	2802	-3507
11640912	320	3157	-3447
11641240	1283	3297	-3528
11641568	2308	3302	-3473
11641896	3166	3194	-3481
11642224	3960	2993	-3302
11642552	4294	2837	-3107
11642880	4670	2759	-2923
11643208	4954	2414	-2815
11643536	5504	2305	-2845
11643864	6251	2422	-2585
11644192	6905	2139	-2263
11644520	7412	1590	-2075
11644848	7919	1145	-2053
11645176	7994	887	-2022
11645504	8143	702	-2112
11645832	8373	699	-2332
11646160	8717	486	-2539
11646488	9358	565	-2703
11646816	10342	1155	-2435
11647144	10142	1207	-2785
11647472	9115	822	-3713
11647800	7624	1595	-4561
11648128	6625	2980	-4635
11648456	6312	3606	-4235
11648784	6378	4107	-3719
11649112	7246	4707	-3113
11649440	8346	5415	-2429
11649768	9484	5474	-1916
11650096	12280	4582	-1107
11650424	11661	4407	-1206
11650752	9294	3719	-1317
11651080	3935	4439	-1761
11651408	3270	5947	-1694
11651736	3728	5777	-1924
11652064	4930	6365	-2138
11652392	7276	6463	-2217
11652720	10071	6623	-1698
11653048	13265	6770	-1728
11653376	15835	6641	-1578
11653704	17286	5769	-1580
11654032	16512	4763	-1237
11654360	13602	4137	-810
11654688	9711	2983	-365
11655016	6065	2263	7
11655344	4143	1122	67
11655672	2584	-150	156
11656000	1389	-703	315
11656328	-758	-1047	922
11656656	-2752	-1076	1125
11656984	-4140	-937	1513
11657312	-4487	-767	1397
11657640	-3330	-259	1352
11657968	-1917	261	1027
11658296	-344	1039	832
11658624	845	1292	543
11658952	1673	1225	331
11659280	1877	1045	151
11659608	1694	1016	82
11659936	1029	866	72
11660264	-17	992	103
11660592	-788	883	217
11660920	-1067	996	257
11661248	-807	1285	206
11661576	-581	1301	225
11661904	58	1646	241
11662232	295	1584	-78
11662560	383	1452	-257
11662888	276	1809	-357
11663216	211	1614	-401
11663544	-157	1472	-444
11663872	-104	1495	-420
11664200	-270	1597	-339
11664528	-125	1707	-478
11664856	10	1924	-528
11665184	144	2216	-571
11665512	319	2010	-622
11665840	480	1844	-726
11666168	532	1728	-860
11666496	528	1550	-940
11666824	542	1450	-978
11667152	743	1597	-1005
11667480	1070	1872	-1166
11667808	1505	1945	-1411
11668136	2233	1484	-1560
11668464	2835	1314	-1533
11668792	3261	860	-1487
11669120	3463	-234	-1423
11669448	3368	-1117	-1307
11669776	3177	-1526	-646
11670104	3771	-1252	107
11670432	4304	-1192	388
11670760	5952	-1420	886
11671088	7271	-1687	1742
11671416	7824	-1830	2272
11671744	8680	-3428	2679
11672072	9758	-3730	2873
11672400	10691	-3600	2987
11672728	12116	-2955	2987
11673056	13869	-2263	3547
11673384	15748	-1740	4304
11673712	16666	-1735	4998
11674040	17578	-1448	4681
11674368	16456	-506	4176
11674696	15776	429	2915
11675024	14343	1459	2017
11675352	16884	2609	-338
11675680	21227	3854	-3700
11676008	24245	5249	-7388
11676336	28784	6226	-9179
11676664	32413	5220	-8663
11676992	30760	3952	-9168
11677320	25237	4181	-9679
11677648	18541	4010	-9877
11677976	12923	3587	-10442
11678304	9556	3383	-11532
11678632	8671	3554	-12428
11678960	8729	3584	-12768
11679288	9341	3746	-13226
11679616	10112	3617	-13056
11679944	11107	3485	-12989
11680272	11081	3288	-12442
11680600	10836	2491	-11793
11680928	10028	2012	-11419
11681256	8975	2325	-11107
11681584	7957	2621	-10634
11681912	7024	2741	-9882
11682240	6485	2797	-9053
11682568	6260	3078	-8595
11682896	6194	3204	-7507
11683224	6341	3039	-6578
11683552	6884	3016	-5200
11683880	7494	2924	-4094
11684208	8074	3058	-3114
11684536	8685	3112	-2058
11684864	9365	3524	-1074
11685192	10254	4031	-237
11685520	11244	4495	601
11685848	11992	4407	1584
11686176	12456	4868	2465
11686504	12183	5091	2381
11686832	11661	4960	1612
11687160	10907	5249	383
11687488	10559	5754	-913
11687816	11049	6623	-2122
11688144	11932	7789	-3260
11688472	13160	7901	-4225
11688800	14086	7648	-4811
11689128	13888	7234	-5221
11689456	13481	6893	-5560
11689784	13118	7514	-5420
11690112	11793	8200	-4399
11690440	10118	8524	-3793
11690768	8842	8307	-3992
11691096	7313	8039	-4057
11691424	6840	8856	-3642
11691752	8263	9242	-3193
11692080	10191	9175	-3209
11692408	11549	9433	-3301
11692736	12420	9774	-4082
11693064	13343	9875	-4704
11693392	13623	9472	-5324
11693720	13764	9343	-5883
11694048	13732	9296	-6553
11694376	13351	8898	-7097
11694704	12700	9451	-7100
11695032	11999	9037	-6639
11695360	10871	6925	-6993
11695688	9062	5791	-6953
11696016	6787	4840	-5591
11696344	3671	2965	-4991
11696672	718	1371	-5169
11697000	-2132	108	-5729
11697328	-3467	-113	-6009
11697656	-3491	1205	-5785
11697984	-3458	1538	-5078
11698312	-2431	536	-4720
11698640	171	588	-4558
11698968	1899	539	-4495
11699296	2505	1085	-4233
11699624	2257	1486	-4077
11699952	1818	1622	-4062
11700280	1188	1396	-3704
11700608	520	1342	-3894
11700936	1	1240	-3515
11701264	-5	1380	-3249
11701592	264	1195	-3066
11701920	766	1057	-3037
11702248	1371	816	-3004
11702576	1915	1129	-2983
11702904	2538	1071	-3002
11703232	2979	1042	-2905
11703560	2946	1165	-2785
11703888	2631	1339	-2681
11704216	2122	1609	-2612
11704544	1788	1564	-2607
11704872	1699	1608	-2479
11705200	1968	1639	-2345
11705528	2486	1352	-2080
11705856	2896	1062	-1910
11706184	3080	799	-1601
11706512	3348	323	-1323
11706840	3323	39	-1184
11707168	3569	-70	-1098
11707496	3961	-83	-926
11707824	4722	-253	-890
11708152	5482	-258	-1075
11708480	6487	-416	-1276
11708808	7468	-649	-1556
11709136	8481	-632	-1956
11709464	9676	-366	-2483
11709792	10660	-264	-2961
11710120	11673	-185	-3319
11710448	12760	-329	-4319
11710776	12312	-861	-4209
11711104	11409	-411	-3741
11711432	10085	-426	-3410
11711760	8144	-882	-2930
11712088	6469	-935	-2237
11712416	5519	-496	-1804
11712744	5130	-207	-1660
11713072	5525	1133	-1777
11713400	5793	2179	-1812
11713728	6921	3124	-1358
11714056	8570	3146	-1418
11714384	9033	2238	-1813
11714712	7618	1072	-1560
11715040	4111	570	-1469
11715368	1164	222	-1067
11715696	-532	441	-298
11716024	152	253	246
11716352	1508	210	472
11716680	3043	-287	839
11717008	4334	-45	715
11717336	5554	4	654
11717664	7124	100	852
11717992	8083	16	824
11718320	8856	-232	495
11718648	8331	-476	50
11718976	7036	-488	-161
11719304	5244	-492	-154
11719632	3923	-720	192
11719960	2749	-963	298
11720288	1467	-1179	85
11720616	250	-926	71
11720944	-837	-826	146
11721272	-2016	-616	427
11721600	-2609	-376	520
11721928	-2706	37	300
11722256	-1970	126	201
11722584	-1428	74	-69
11722912	-963	72	-435
11723240	-791	39	-628
11723568	-1125	141	-1001
11723896	-1392	408	-1430
11724224	-1575	654	-1809
11724552	-1613	922	-2211
11724880	-1771	1320	-2644
11725208	-1884	1516	-3120
11725536	-1864	1560	-3513
11725864	-1808	1582	-3800
11726192	-1721	1693	-4134
11726520	-1923	2003	-4390
11726848	-2397	1837	-4529
11727176	-3186	1186	-4449
11727504	-4115	404	-4354
11727832	-5326	-456	-4383
11728160	-6930	-1231	-4312
11728488	-8790	-1921	-4273
11728816	-9511	-2966	-4205
11729144	-10849	-3952	-3349
11729472	-11831	-5464	-2525
11729800	-12327	-6902	-1663
11730128	-13097	-8024	-789
11730456	-13929	-9058	-49
11730784	-15061	-10058	641
11731112	-16210	-10943	1254
11731440	-17106	-11883	2165
11731768	-17659	-12644	3200
11732096	-17774	-13270	4167
11732424	-17727	-13839	5233
11732752	-18281	-14202	6163
11733080	-18989	-14361	6653
11733408	-20490	-13105	6066
11733736	-21820	-10138	4339
11734064	-21145	-6964	3713
11734392	-18193	-4926	4162
11734720	-12640	-3443	4382
11735048	-7108	-716	4517
11735376	-1249	1772	3667
11735704	3154	3289	2759
11736032	6314	2533	2701
11736360	6564	2394	2893
11736688	5023	3108	2912
11737016	1378	1718	3651
11737344	-3032	-526	2664
11737672	-5586	-2422	2146
11738000	-6910	-1961	2002
11738328	-7371	-1731	1576
11738656	-6624	-888	1411
11738984	-5670	-334	856
11739312	-3850	-1750	1390
11739640	-998	-292	1167
11739968	189	-390	998
11740296	1135	-1310	1236
11740624	932	-2169	1338
11740952	-1230	-797	1235
11741280	-2062	-2288	452
11741608	-2885	-2026	386
11741936	-3061	-2609	365
11742264	-3013	-1963	388
11742592	-3124	-2202	148
11742920	-2847	-2600	-1
11743248	-2709	-3038	-219
11743576	-1790	-2599	-375
11743904	-1118	-1832	-318
11744232	-230	-1616	-456
11744560	345	-1481	-597
11744888	704	-1245	-696
11745216	816	-1270	-858
11745544	709	-1304	-1029
11745872	543	-1338	-889
11746200	388	-1558	-808
11746528	672	-1521	-738
11746856	1158	-1664	-767
11747184	1601	-2207	-1021
11747512	1774	-2073	-799
11747840	2056	-2114	-445
11748168	2322	-2186	-336
11748496	2140	-2032	-172
11748824	1865	-1948	48
11749152	1682	-1911	164
11749480	1879	-2203	320
11749808	1836	-2403	478
11750136	2190	-2703	711
11750464	2425	-3017	850
11750792	2532	-3583	991
11751120	2195	-4343	1148
11751448	1412	-5241	1190
11751776	222	-7364	926
11752104	-417	-10868	367
11752432	-1309	-13173	185
11752760	-3591	-13794	780
11753088	-6530	-11683	-178
11753416	-8404	-9471	-1050
11753744	-7843	-8274	-1245
11754072	-5329	-7211	-1293
11754400	-2874	-6104	-1915
11754728	-869	-5412	-2648
11755056	67	-5229	-3269
11755384	-562	-5804	-4184
11755712	-2127	-5546	-4759
11756040	-4252	-5222	-4782
11756368	-4919	-4973	-3903
11756696	-4660	-5954	-2564
11757024	-5832	-8827	-2575
11757352	-10696	-8442	-2771
11757680	-16262	-6391	-2137
11758008	-20591	-3523	-976
11758336	-22502	-4146	-58
11758664	-22289	-2898	965
11758992	-20105	-2719	2329
11759320	-16891	-3002	3552
11759648	-13480	-3060	4983
11759976	-9904	-2898	6451
11760304	-7178	-2268	8326
11760632	-4871	-2922	10171
11760960	-4412	-3081	11379
11761288	-5454	-2985	12288
11761616	-5396	-3962	13466
11761944	-6453	-4585	14688
11762272	-7274	-4435	15683
11762600	-8197	-4212	16629
11762928	-8527	-4515	17230
11763256	-8785	-5142	17743
11763584	-9120	-5903	18085
11763912	-9379	-6411	18310
11764240	-9695	-7037	18303
11764568	-9712	-7879	18050
11764896	-9684	-8679	17972
11765224	-8473	-8716	16414
11765552	-9504	-10881	17424
11765880	-9714	-10985	16737
11766208	-9844	-11363	15907
11766536	-10045	-10827	14006
11766864	-10420	-10722	13655
11767192	-10427	-10434	12572
11767520	-11547	-10247	11371
11767848	-11629	-9327	9989
11768176	-11569	-7656	8167
11768504	-11229	-6089	6499
11768832	-11038	-4615	4483
11769160	-9474	-2736	2470
11769488	-8167	-957	434
11769816	-6372	652	-2100
11770144	-3849	1873	-3855
11770472	-831	2878	-4798
11770800	1678	5063	-6501
11771128	-3570	10016	-3613
11771456	-11839	2862	-3452
11771784	-6448	-556	-6065
11772112	-2914	4093	-5159
11772440	-2127	4138	-3966
11772768	176	3733	-3536
11773096	785	4730	-2886
11773424	-149	4291	-2173
11773752	-943	3909	-1690
11774080	-2098	2436	-2047
11774408	-2155	1869	-1892
11774736	-2221	1854	-1311
11775064	-2482	1258	-1222
11775392	-2564	1145	-1354
11775720	-2154	1265	-1477
11776048	-2282	905	-1591
11776376	-2490	1051	-1720
11776704	-3141	1283	-2013
11777032	-3325	1392	-1941
11777360	-3112	1103	-1703
11777688	-2828	1124	-1733
11778016	-2273	1455	-1456
11778344	-1431	1397	-1129
11778672	-786	1398	-753
11779000	-476	1315	-566
11779328	-667	1452	-723
11779656	-819	1320	-476
11779984	-691	1094	-371
11780312	-453	1084	-174
11780640	48	876	-21
11780968	490	985	103
11781296	1048	848	122
11781624	1372	886	231
11781952	1290	887	361
11782280	1063	851	426
11782608	816	648	543
11782936	637	587	532
11783264	654	748	624
11783592	848	727	732
11783920	1248	331	835
11784248	1553	157	852
11784576	1629	-49	820
11784904	1595	-239	838
11785232	1501	-330	923
11785560	1318	-437	1057
11785888	1360	-506	1149
11786216	1631	-750	1341
11786544	1900	-989	1640
11786872	2267	-1164	1948
11787200	2753	-1218	2407
11787528	3072	-1271	2893
11787856	3194	-1433	3482
11788184	3184	-1875	4111
11788512	3516	-2227	4665
11788840	4074	-2402	5237
11789168	5195	-3050	5594
11789496	6308	-3363	6396
11789824	7545	-3791	6868
11790152	8446	-3146	7231
11790480	9520	-2606	7492
11790808	11198	-1822	7699
11791136	13789	-1107	7895
11791464	16851	-765	7869
11791792	19653	-695	8413
11792120	21296	-1409	8685
11792448	21592	-2512	7546
11792776	19199	-1965	5556
11793104	14248	-1630	1817
11793432	9531	-2000	-3350
11793760	8133	-755	-6342
11794088	8734	-175	-7802
11794416	8399	-796	-8536
11794744	7970	-1450	-8846
11795072	6485	-2041	-9387
11795400	4281	-2706	-10784
11795728	1904	-2733	-11047
11796056	338	-2823	-10892
11796384	-490	-2906	-10482
11796712	-540	-3170	-10105
11797040	224	-3160	-9868
11797368	1433	-3221	-9689
11797696	3028	-3152	-9161
11798024	4483	-3426	-8874
11798352	5137	-4088	-8338
11798680	5301	-4656	-8129
11799008	5027	-5064	-7772
11799336	4346	-4940	-7603
11799664	3841	-4914	-7293
11799992	3540	-4798	-6979
11800320	3447	-4514	-6691
11800648	3235	-4482	-6457
11800976	2341	-4947	-6278
11801304	1820	-4930	-6188
11801632	1576	-4786	-6050
11801960	2009	-3167	-5656
11802288	2478	-2472	-4236
11802616	1950	-985	-2088
11802944	2711	797	279
11803272	3771	718	3093
11803600	6550	1170	4121
11803928	9067	5402	2505
11804256	8960	8198	-329
11804584	9353	7488	-2484
11804912	7741	2915	-111
11805240	10882	1936	1868
11805568	-1865	9433	6137
11805896	-11200	-7985	-4660
11806224	-9841	-4919	-4236
11806552	-9085	4187	-2892
11806880	-6320	3872	-2106
11807208	-952	2337	-392
11807536	1785	1937	-3
11807864	1708	1893	45
11808192	1211	1669	-195
11808520	1471	2732	-202
11808848	1323	2395	45
11809176	1654	1459	4
11809504	1707	1043	103
11809832	1774	1191	-119
11810160	1889	831	-1
11810488	1570	932	-223
11810816	982	977	-388
11811144	770	881	-803
11811472	670	1396	-1140
11811800	873	1962	-1504
11812128	1518	2664	-1744
11812456	1800	3210	-1830
11812784	3022	3664	-2045
11813112	3935	3687	-2244
11813440	4404	4340	-2872
11813768	4752	4904	-3451
11814096	4988	5496	-3877
11814424	5606	5694	-4293
11814752	6126	5795	-4520
11815080	6362	5898	-4480
11815408	6516	6003	-4620
11815736	6673	5700	-4710
11816064	6653	5245	-4684
11816392	5815	4591	-4324
11816720	4684	4209	-4304
11817048	3165	3639	-4386
11817376	1428	3532	-4326
11817704	-275	3621	-4086
11818032	-2178	3135	-3765
11818360	-3271	2577	-3537
11818688	-3152	2336	-2974
11819016	-4470	2000	-2642
11819344	-6996	611	-3363
11819672	-6188	833	-3783
11820000	-5547	2185	-4088
11820328	-4484	3577	-4093
11820656	-2805	3465	-3543
11820984	-1941	2861	-3054
11821312	-1526	2418	-2627
11821640	-2597	2140	-2138
11821968	-3589	1760	-1972
11822296	-4269	1706	-1766
11822624	-4425	2020	-1648
11822952	-4339	2065	-1781
11823280	-3894	1684	-2111
11823608	-3576	1658	-2267
11823936	-3170	1588	-2175
11824264	-2904	1782	-2085
11824592	-2675	2181	-1885
11824920	-2338	2120	-1809
11825248	-1996	2066	-1888
11825576	-1963	1924	-1895
11825904	-1928	2171	-2085
11826232	-1786	2206	-2111
11826560	-1591	2255	-2019
11826888	-1307	1996	-1918
11827216	-1092	1917	-1835
11827544	-692	1854	-1653
11827872	-454	1858	-1561
11828200	-45	2063	-1594
11828528	446	1973	-1567
11828856	985	2216	-1528
11829184	1430	1930	-1557
11829512	1876	2065	-1433
11829840	2257	1671	-1450
11830168	2673	1201	-1565
11830496	3322	510	-1521
11830824	4087	275	-1499
11831152	4996	397	-1564
11831480	6008	832	-1615
11831808	6828	1350	-1537
11832136	7615	1429	-1578
11832464	8002	1385	-1941
11832792	8592	1367	-2293
11833120	9315	1287	-2654
11833448	10016	1382	-3128
11833776	10248	2093	-3244
11834104	10084	2296	-2961
11834432	9483	1324	-2635
11834760	8718	385	-2999
11835088	7965	325	-2823
11835416	7149	1836	-2207
11835744	7023	2603	-2383
11836072	7054	3417	-2520
11836400	7738	4095	-2663
11836728	8806	4006	-2468
11837056	9184	3974	-1875
11837384	8596	3720	-1218
11837712	7769	3078	-549
11838040	7112	2907	147
11838368	6456	2693	1102
11838696	5239	2194	1505
11839024	4463	3460	963
11839352	3847	3972	-61
11839680	4740	3212	-1627
11840008	6398	959	-1942
11840336	9032	-1938	-249
11840664	7635	-1902	1313
11840992	2374	-812	1089
11841320	-1721	1143	1012
11841648	-3443	865	1574
11841976	411	-1001	1297
11842304	4670	-39	1345
11842632	5733	-213	1192
11842960	4133	-324	451
11843288	2729	-130	-29
11843616	1330	203	-497
11843944	1459	221	-523
11844272	1230	118	-659
11844600	831	4	-1207
11844928	32	-53	-1750
11845256	-699	-254	-2371
11845584	-877	-234	-2856
11845912	-500	-181	-3131
11846240	42	156	-3363
11846568	704	-149	-3828
11846896	610	-708	-4276
11847224	162	-905	-4704
11847552	-667	-1142	-5238
11847880	-1755	-1484	-5826
11848208	-2715	-1461	-6758
11848536	-3511	-1206	-7675
11848864	-3734	-662	-8135
11849192	-4417	-65	-9395
11849520	-4474	695	-10294
11849848	-3675	662	-10878
11850176	-3159	-144	-11388
11850504	-2433	-606	-11456
11850832	-3225	-883	-10031
11851160	-6594	-1330	-8971
11851488	-10836	-1504	-8480
11851816	-13787	-3195	-7784
11852144	-14011	-3151	-6579
11852472	-12693	-1946	-4508
11852800	-10655	-1376	-1310
11853128	-8654	-1228	2122
11853456	-5205	-901	5191
11853784	-3265	-1682	7666
11854112	-2805	-2259	9629
11854440	-4295	-2683	10926
11854768	-4399	-3504	12439
11855096	-3842	-3900	13966
11855424	-2935	-4448	14757
11855752	-1634	-4688	15730
11856080	-449	-4784	16813
11856408	187	-4803	17677
11856736	17	-5100	18342
11857064	-1024	-5689	18652
11857392	-2474	-6157	19039
11857720	-3550	-6272	19448
11858048	-4388	-6578	20158
11858376	-4827	-7540	20097
11858704	-5835	-7064	20384
11859032	-5842	-7365	20290
11859360	-5548	-8038	19776
11859688	-5011	-8054	19480
11860016	-4578	-8295	19254
11860344	-3923	-8282	19087
11860672	-3528	-8180	18902
11861000	-2840	-6957	17237
11861328	-3483	-6104	15710
11861656	-4277	-4563	12950
11861984	-4612	-3060	9713
11862312	-4199	-1861	7108
11862640	-4186	-1121	4925
11862968	-3123	-177	2238
11863296	1407	2026	-1013
11863624	5181	4916	-2330
11863952	-5253	6675	-7418
11864280	-13960	1152	-6909
11864608	-10694	1913	-7684
11864936	-7490	197	-5488
11865264	-5288	693	-3544
11865592	-6564	3339	-2634
11865920	-5793	440	-2069
11866248	-4731	4954	-3360
11866576	-2010	5936	-4094
11866904	2687	2757	-4140
11867232	3903	1720	-3438
11867560	2252	717	-1873
11867888	-1254	278	-1097
11868216	-3810	653	-1429
11868544	-4574	1275	-1962
11868872	-3609	1196	-2125
11869200	-2362	1542	-2157
11869528	-915	1856	-2380
11869856	430	2172	-2913
11870184	1306	2594	-3335
11870512	2626	2752	-3392
11870840	3279	2781	-3473
11871168	3572	3133	-3806
11871496	3964	3248	-3693
11871824	4177	3586	-3704
11872152	4640	4005	-3958
11872480	5465	4613	-4218
11872808	6357	5498	-4253
11873136	7136	6512	-4419
11873464	8678	7774	-4288
11873792	10513	9632	-3660
11874120	11567	11896	-2435
11874448	12204	13882	-1624
11874776	13053	15345	-762
11875104	14198	16711	905
11875432	16835	16957	557
11875760	19674	15493	964
11876088	20819	14230	678
11876416	20104	12581	790
11876744	17474	11328	770
11877072	13584	9440	465
11877400	9402	6544	-244
11877728	5430	2493	-878
11878056	1978	-1559	-2295
11878384	155	-5755	-4575
11878712	2062	-8057	-7843
11879040	-4231	-4147	-8126
11879368	-10363	-4687	-5531
11879696	-12712	-1570	-2438
11880024	-11734	403	-2653
11880352	-4871	1807	-5049
11880680	4389	1646	-6498
11881008	11016	-109	-4937
11881336	9969	81	-4867
11881664	4720	948	-4167
11881992	1239	1560	-4646
11882320	-1654	2244	-4595
11882648	-1314	2600	-4181
11882976	47	2896	-3954
11883304	2807	1279	-3477
11883632	3434	943	-3474
11883960	4102	371	-3067
11884288	4088	842	-3173
11884616	3627	1056	-3131
11884944	2987	1400	-3156
11885272	2491	1376	-3279
11885600	2561	1044	-3162
11885928	3360	1132	-3196
11886256	4170	1249	-3117
11886584	4859	1032	-3157
11886912	5480	881	-3221
11887240	5979	593	-3170
11887568	6587	187	-3058
11887896	6894	309	-2645
11888224	7215	592	-2100
11888552	7612	1115	-1870
11888880	8161	2141	-1810
11889208	9844	3288	-1788
11889536	12288	4505	-1933
11889864	15561	6326	-1702
11890192	19500	8985	-810
11890520	23271	11043	-220
11890848	26126	12403	-261
11891176	28394	13184	-646
11891504	29812	13389	-2329
11891832	31097	13588	-4168
11892160	32192	14021	-4453
11892488	31992	15403	-3667
11892816	31302	16194	-2501
11893144	30459	15462	-930
11893472	28828	14134	112
11893800	25189	13452	940
11894128	22365	12757	1818
11894456	20590	13733	2739
11894784	18286	13502	3506
11895112	14241	11226	3809
11895440	13615	9707	4036
11895768	13402	8022	4153
11896096	14446	5939	4724
11896424	14184	2938	5888
11896752	13052	1985	5154
11897080	10767	2079	5054
11897408	7825	2806	3914
11897736	6556	1600	3594
11898064	6383	-63	3245
11898392	5495	131	2820
11898720	5244	-357	2819
11899048	4366	317	2914
11899376	4239	-37	2810
11899704	3547	547	2220
11900032	2837	505	2589
11900360	3153	151	2269
11900688	2340	405	2043
11901016	2219	-358	1545
11901344	1958	-725	1266
11901672	1177	117	1240
11902000	721	-198	1123
11902328	-14	-128	1031
11902656	-965	-296	852
11902984	-1833	-349	752
11903312	-1956	-649	449
11903640	-1862	-541	231
11903968	-1791	-116	-28
11904296	-1512	56	-268
11904624	-1157	80	-426
11904952	-918	-3	-567
11905280	-753	-84	-644
11905608	-844	-231	-669
11905936	-1177	-292	-640
11906264	-1542	-157	-563
11906592	-1725	37	-580
11906920	-1676	30	-632
11907248	-1507	56	-723
11907576	-1196	254	-813
11907904	-896	537	-909
11908232	-376	438	-841
11908560	36	174	-796
11908888	55	296	-825
11909216	-69	290	-926
11909544	-331	197	-962
11909872	-520	342	-952
11910200	-687	507	-918
11910528	-832	526	-852
11910856	-924	677	-842
11911184	-1016	626	-822
11911512	-1109	574	-764
11911840	-1207	579	-694
11912168	-1351	604	-656
11912496	-1285	599	-603
11912824	-1256	665	-503
11913152	-1304	687	-448
11913480	-1322	615	-367
11913808	-1283	427	-210
11914136	-1201	133	-57
11914464	-1149	-104	72
11914792	-1369	-364	308
11915120	-1757	-606	344
11915448	-2058	-683	392
11915776	-2281	-728	562
11916104	-2450	-814	591
11916432	-2441	-820	701
11916760	-2294	-876	839
11917088	-1993	-875	832
11917416	-1774	-1048	998
11917744	-1531	-989	1095
11918072	-1342	-925	1306
11918400	-1256	-843	1523
11918728	-1119	-938	1656
11919056	-1088	-1037	1732
11919384	-1082	-1142	1812
11919712	-951	-1205	1877
11920040	-915	-1335	1997
11920368	-697	-1593	2171
11920696	-298	-1753	2471
11921024	252	-1941	2666
11921352	1021	-2353	2880
11921680	1903	-2669	3236
11922008	2384	-2969	3446
11922336	2728	-3259	3767
11922664	2992	-3401	4155
11922992	3348	-3699	4462
11923320	4187	-4142	4707
11923648	5341	-3694	4829
11923976	6561	-2455	4882
11924304	7407	-1339	5017
11924632	8989	-1240	5473
11924960	10172	-1870	6030
11925288	11607	-2414	6087
11925616	12656	-3115	6713
11925944	13338	-2976	6591
11926272	13313	-2833	5809
11926600	11241	-2511	2953
11926928	9189	-1440	-333
11927256	7026	123	-4251
11927584	6583	1283	-6612
11927912	6595	1265	-7766
11928240	6499	1256	-8768
11928568	6043	785	-9683
11928896	5241	708	-10491
11929224	4481	926	-11059
11929552	3417	1100	-11253
11929880	2473	914	-11467
11930208	1787	896	-11372
11930536	1741	523	-11062
11930864	2048	152	-10602
11931192	2747	-209	-10086
11931520	2987	-160	-9775
11931848	2971	30	-9500
11932176	3343	661	-9415
11932504	3900	1188	-8884
11932832	4749	2009	-8443
11933160	5403	2729	-7909
11933488	6151	3018	-7424
11933816	6700	3086	-6899
11934144	7293	2710	-6425
11934472	8325	2465	-5893
11934800	8717	2234	-5261
11935128	8482	2218	-4884
11935456	8063	2402	-4390
11935784	7568	2927	-3959
11936112	7165	3164	-3410
11936440	6234	3010	-2507
11936768	4756	3204	-939
11937096	3094	3485	741
11937424	2206	3108	2463
11937752	503	3603	2294
11938080	912	5387	526
11938408	2561	8202	-749
11938736	5067	8076	-813
11939064	7286	6307	-760
11939392	7904	4480	79
11939720	6724	4213	713
11940048	4714	4268	276
11940376	2606	3622	-310
11940704	1232	3138	-687
11941032	558	2154	-895
11941360	464	1023	-541
11941688	-215	435	-879
11942016	-1377	145	-1004
11942344	-2253	332	-1084
11942672	-2488	427	-1086
11943000	-1879	894	-674
11943328	-506	1049	-202
11943656	717	1626	52
11943984	1664	2366	27
11944312	2265	2465	210
11944640	2302	2303	255
11944968	1812	1799	281
11945296	1120	1342	241
11945624	419	1284	228
11945952	-64	1381	351
11946280	-349	1431	442
11946608	-267	1428	583
11946936	-11	1408	623
11947264	258	1134	665
11947592	329	1090	664
11947920	463	963	746
11948248	459	976	849
11948576	489	897	932
11948904	641	943	1008
11949232	881	1020	1094
11949560	1062	1207	1198
11949888	1162	1499	1215
11950216	1292	1525	1077
11950544	1335	1483	1002
11950872	1402	1578	1004
11951200	1586	1921	1116
11951528	1710	2245	1253
11951856	1946	2440	1256
11952184	2199	2515	1150
11952512	2480	2760	993
11952840	2760	2846	878
11953168	2903	3130	840
11953496	3249	3485	714
11953824	3885	4076	436
11954152	4585	4278	100
11954480	5325	3902	-576
11954808	6780	4330	-1100
11955136	8049	4875	-1195
11955464	8648	5423	-1353
11955792	9194	6622	-1460
11956120	9756	7751	-1185
11956448	10132	8552	-1282
11956776	10634	9313	-1062
11957104	14338	9650	-2063
11957432	17551	10055	-3270
11957760	20279	9430	-2828
11958088	21483	8699	-4662
11958416	21988	7724	-4773
11958744	19463	6797	-4330
11959072	14369	5332	-3271
11959400	8236	4966	-2266
11959728	3324	4687	-1585
11960056	834	3748	-473
11960384	-1262	2786	-285
11960712	-2570	2760	-1050
11961040	-3147	2931	-2643
11961368	-1684	1748	-3101
11961696	1605	1340	-2876
11962024	3967	1502	-2973
11962352	4505	1012	-3342
11962680	4295	1535	-3463
11963008	3106	2132	-3307
11963336	2018	2305	-2667
11963664	1086	2412	-2273
11963992	1152	2800	-1825
11964320	1655	3225	-1816
11964648	2547	2703	-1552
11964976	3418	2141	-1320
11965304	4020	2065	-1329
11965632	4209	2048	-1390
11965960	4128	1815	-1231
11966288	3785	1696	-1256
11966616	3537	1620	-1155
11966944	3415	1610	-1073
11967272	3765	1757	-862
11967600	4133	1540	-646
11967928	4522	1669	-707
11968256	4599	1753	-759
11968584	4729	1594	-805
11968912	4903	1421	-952
11969240	5068	1331	-1111
11969568	5130	1421	-1154
11969896	5257	1126	-1255
11970224	5282	1120	-1323
11970552	5220	1048	-1387
11970880	4959	900	-1447
11971208	4859	731	-1554
11971536	4987	652	-1635
11971864	5089	611	-1725
11972192	5115	404	-1819
11972520	5369	266	-1978
11972848	5281	140	-2175
11973176	5473	623	-2223
11973504	5619	837	-2164
11973832	6123	891	-2331
11974160	6697	1102	-2351
11974488	7367	1173	-2353
11974816	7725	1188	-2359
11975144	7884	975	-2401
11975472	8031	735	-2501
11975800	7992	710	-2764
11976128	8124	1163	-2832
11976456	8538	2001	-2748
11976784	9537	2282	-2826
11977112	10833	2169	-2925
11977440	11985	2233	-2900
11977768	12758	2287	-2833
11978096	13205	2523	-3007
11978424	13577	3254	-3143
11978752	14580	4316	-3256
11979080	15987	5361	-3374
11979408	17055	6378	-3358
11979736	17832	7561	-3050
11980064	18233	8318	-2941
11980392	18049	9296	-3295
11980720	18542	10247	-3318
11981048	18789	11483	-2073
11981376	19638	12052	-170
11981704	21116	12261	2305
11982032	22618	12819	4138
11982360	23270	12728	4949
11982688	22299	12558	4688
11983016	20265	11723	4250
11983344	17751	10745	3659
11983672	15394	9390	3310
11984000	13394	8650	2681
11984328	11874	7753	2276
11984656	10571	6447	2350
11984984	9076	5244	2592
11985312	7386	4410	2622
11985640	5466	2621	3070
11985968	4672	2478	2747
11986296	4445	1302	2204
11986624	3999	300	1601
11986952	3732	170	1050
11987280	3127	449	851
11987608	2429	958	911
11987936	1769	1407	915
11988264	1618	1385	824
11988592	1902	1310	809
11988920	2671	1107	766
11989248	2906	1319	782
11989576	2641	1338	759
11989904	1985	1086	715
11990232	959	1173	493
11990560	254	1193	307
11990888	-46	1192	262
11991216	32	956	232
11991544	240	772	169
11991872	366	573	101
11992200	430	376	-50
11992528	344	280	-165
11992856	224	122	-208
11993184	62	141	-272
11993512	-151	187	-328
11993840	-315	160	-315
11994168	-461	240	-277
11994496	-537	168	-295
11994824	-498	83	-319
11995152	-428	116	-358
11995480	-375	28	-354
11995808	-362	-122	-396
11996136	-550	-234	-403
11996464	-657	-273	-310
11996792	-855	-285	-238
11997120	-1129	-285	-172
11997448	-1280	-266	-134
11997776	-1350	-227	-74
11998104	-1356	-234	-53
11998432	-1348	-203	-46
11998760	-1328	-244	-63
11999088	-1381	-365	-66
11999416	-1569	-461	-27
11999744	-1856	-511	-6
12000072	-2154	-554	0
12000400	-2329	-718	-23
12000728	-2214	-992	-228
12001056	-2406	-1348	-709
12001384	-2242	-1599	-855
12001712	-2179	-1687	-774
12002040	-1994	-1815	-732
12002368	-1758	-2233	-759
12002696	-1784	-2693	-639
12003024	-2319	-3147	-419
12003352	-3425	-3853	-285
12003680	-4610	-5120	-255
12004008	-5932	-6379	-413
12004336	-6971	-7414	-513
12004664	-7347	-9072	-287
12004992	-8804	-8919	-328
12005320	-10493	-6639	-333
12005648	-12028	-6203	225
12005976	-12287	-7267	605
12006304	-12030	-7299	1054
12006632	-11317	-7810	1571
12006960	-11152	-8647	2054
12007288	-11429	-8539	1746
12007616	-12322	-8774	1357
12007944	-13552	-9039	1009
12008272	-14972	-9394	818
12008600	-16096	-9547	970
12008928	-17161	-9113	1546
12009256	-17876	-8041	1967
12009584	-17746	-6714	2011
12009912	-16422	-5599	2031
12010240	-14422	-4575	2043
12010568	-12168	-3586	2011
12010896	-10315	-2281	2115
12011224	-8927	-751	1914
12011552	-7772	993	1804
12011880	-6275	1849	2511
12012208	-3069	2593	3868
12012536	5550	5300	5158
12012864	-6652	10019	9067
12013192	-6526	-6856	-1529
12013520	-9150	-5683	-3180
12013848	-10768	2144	-1777
12014176	-8383	6318	477
12014504	-5708	3517	1611
12014832	-2883	3124	1941
12015160	-1174	2724	1477
12015488	-1780	1950	597
12015816	-2364	2189	108
12016144	-3013	918	-184
12016472	-4564	81	-59
12016800	-6600	424	198
12017128	-7421	261	59
12017456	-7386	24	2
12017784	-6336	-514	175
12018112	-5121	-315	277
12018440	-3723	-400	265
12018768	-3109	-622	92
12019096	-2531	-390	66
12019424	-2201	-194	-132
12019752	-1853	-347	-103
12020080	-1608	-516	-153
12020408	-1697	-579	-205
12020736	-1907	-594	-186
12021064	-1933	-708	-174
12021392	-1971	-815	-190
12021720	-1931	-916	-271
12022048	-1786	-925	-493
12022376	-1303	-947	-406
12022704	-688	-1716	-545
12023032	-772	-1897	-756
12023360	-583	-1616	-790
12023688	-44	-1521	-855
12024016	573	-1603	-668
12024344	807	-1274	-646
12024672	1001	-1093	-727
12025000	1294	-1082	-756
12025328	1278	-1079	-742
12025656	1108	-911	-719
12025984	1093	-706	-614
12026312	1342	-429	-602
12026640	1850	-428	-525
12026968	2089	-563	-517
12027296	2580	-308	-319
12027624	3315	20	-257
12027952	3466	118	-81
12028280	3118	145	165
12028608	2621	210	177
12028936	2145	111	276
12029264	1777	127	470
12029592	1059	-16	552
12029920	969	19	652
12030248	1277	208	874
12030576	2046	467	1154
12030904	2627	559	1400
12031232	3124	933	1523
12031560	3427	1121	1603
12031888	3486	1161	1599
12032216	3309	1222	1562
12032544	3103	1441	1500
12032872	2844	1504	1551
12033200	2635	1491	1646
12033528	2413	1249	1607
12033856	2271	1063	1629
12034184	1997	994	1457
12034512	1607	621	1306
12034840	1147	479	1208
12035168	680	345	1085
12035496	321	263	839
12035824	55	174	552
12036152	-35	47	246
12036480	-74	-126	-15
12036808	-248	-701	-44
12037136	-860	-1604	20
12037464	-1834	-2846	-138
12037792	-2886	-3874	-359
12038120	-4200	-4190	-422
12038448	-5673	-4327	-350
12038776	-6869	-4407	-399
12039104	-7199	-4671	-656
12039432	-7308	-4976	-759
12039760	-7158	-5377	-667
12040088	-7079	-5786	-726
12040416	-7335	-6167	-814
12040744	-7989	-6511	-884
12041072	-8938	-6739	-881
12041400	-10075	-6742	-808
12041728	-11045	-6379	-517
12042056	-11561	-5939	-191
12042384	-11333	-5560	-47
12042712	-10278	-5122	50
12043040	-8556	-4168	156
12043368	-6757	-2701	64
12043696	-5139	-1836	-240
12044024	-3574	-1765	-447
12044352	-2273	-1960	-277
12044680	-1873	-2393	-70
12045008	-1955	-2896	413
12045336	-3001	-3202	962
12045664	-3248	-2498	1647
12045992	-2444	-1754	2474
12046320	-3784	-1993	2546
12046648	-6190	-4294	1155
12046976	-6200	-3668	585
12047304	-5897	-2220	605
12047632	-5045	-1726	649
12047960	-3246	-2231	1350
12048288	-1827	-2317	1541
12048616	-1454	-2752	1388
12048944	-1748	-3118	988
12049272	-2550	-3694	734
12049600	-3269	-4602	496
12049928	-4193	-5309	156
12050256	-4780	-5844	-188
12050584	-5460	-6246	-474
12050912	-5971	-6801	-693
12051240	-6255	-8202	-849
12051568	-6027	-10769	-1443
12051896	-5780	-11308	-1532
12052224	-6470	-10538	-995
12052552	-8230	-10010	-1856
12052880	-10028	-9851	-1847
12053208	-10463	-9055	-1976
12053536	-10140	-7689	-2468
12053864	-10099	-6987	-2965
12054192	-10472	-7424	-3382
12054520	-11280	-8226	-2582
12054848	-12923	-8004	-1096
12055176	-13502	-8965	-459
12055504	-12908	-11690	-866
12055832	-14941	-11107	-1765
12056160	-15519	-8488	-1810
12056488	-15255	-7431	-850
12056816	-16344	-6151	950
12057144	-16850	-4917	1548
12057472	-16032	-4770	2248
12057800	-14970	-5146	3173
12058128	-14027	-5326	4087
12058456	-12819	-5812	4782
12058784	-11792	-6239	5542
12059112	-11151	-6638	6372
12059440	-10537	-7737	7119
12059768	-10542	-8684	7996
12060096	-10735	-9004	9002
12060424	-11070	-9288	9897
12060752	-11623	-9722	10799
12061080	-11881	-9946	11734
12061408	-12193	-10037	12494
12061736	-11968	-10230	13158
12062064	-11613	-10113	13657
12062392	-11046	-9783	14085
12062720	-10139	-9744	14543
12063048	-9957	-9198	15047
12063376	-10076	-8796	15238
12063704	-9679	-8416	15477
12064032	-10356	-7615	15626
12064360	-9546	-7672	16033
12064688	-9577	-7377	16035
12065016	-9475	-6599	16165
12065344	-9263	-6085	15977
12065672	-8516	-6135	15771
12066000	-7412	-6108	15260
12066328	-6434	-5923	14474
12066656	-5432	-5618	13547
12066984	-3712	-6206	13171
12067312	-2487	-6737	13032
12067640	-1852	-6591	12859
12067968	-1853	-6931	12022
12068296	-2392	-6346	11687
12068624	-3206	-5248	11155
12068952	-4425	-3971	10524
12069280	-4805	-2938	9223
12069608	-4651	-2639	7841
12069936	-4425	-2468	6488
12070264	-4051	-2087	4854
12070592	-4229	-1620	3290
12070920	-4773	-894	1737
12071248	-5632	-528	224
12071576	-6431	121	-1122
12071904	-7027	708	-2131
12072232	-7524	1114	-3117
12072560	-7555	1437	-3992
12072888	-7184	1842	-4621
12073216	-1986	4305	-4803
12073544	1406	4247	-1493
12073872	-6560	-807	-2901
12074200	-12613	4425	-8139
12074528	-11754	3581	-10376
12074856	-11282	4557	-8466
12075184	-6257	4260	-5848
12075512	-3658	4154	-5327
12075840	-3246	4476	-5876
12076168	-3949	5381	-6758
12076496	-2431	6963	-6415
12076824	-2008	6196	-6535
12077152	-1346	5724	-5869
12077480	-1703	3778	-4704
12077808	-2827	2237	-2941
12078136	-2858	2908	-2067
12078464	-2149	2462	-2330
12078792	-1087	2061	-2981
12079120	-404	1330	-3330
12079448	-1208	972	-3069
12079776	-2833	1300	-2959
12080104	-3686	1173	-2682
12080432	-3768	813	-2567
12080760	-3092	1090	-2639
12081088	-2135	1319	-2707
12081416	-1579	1281	-2629
12081744	-1304	919	-2512
12082072	-1049	807	-2366
12082400	-816	940	-2292
12082728	-877	934	-2286
12083056	-1182	1070	-2212
12083384	-1130	1103	-2140
12083712	-777	1020	-1947
12084040	-609	998	-1661
12084368	-338	772	-1435
12084696	-246	586	-1098
12085024	79	731	-849
12085352	452	713	-718
12085680	747	548	-690
12086008	864	365	-796
12086336	826	199	-633
12086664	770	489	-667
12086992	553	375	-617
12087320	542	258	-524
12087648	464	200	-439
12087976	269	217	-453
12088304	131	-65	-329
12088632	139	-105	-260
12088960	160	34	-166
12089288	275	38	-49
12089616	314	5	60
12089944	325	80	121
12090272	278	27	181
12090600	133	-37	271
12090928	-82	177	368
12091256	-102	258	488
12091584	-93	311	556
12091912	-90	342	597
12092240	-100	369	617
12092568	-139	444	657
12092896	-199	454	650
12093224	-317	501	617
12093552	-388	443	639
12093880	-404	368	650
12094208	-424	397	613
12094536	-446	346	587
12094864	-473	327	555
12095192	-464	259	512
12095520	-432	250	424
12095848	-411	214	377
12096176	-401	121	380
12096504	-496	51	362
12096832	-614	-38	338
12097160	-747	-189	304
12097488	-903	-237	290
12097816	-1036	-264	259
12098144	-1040	-275	219
12098472	-944	-235	276
12098800	-869	-280	356
12099128	-739	-430	462
12099456	-628	-493	517
12099784	-518	-491	609
12100112	-403	-502	721
12100440	-262	-565	901
12100768	-170	-570	1117
12101096	-92	-623	1262
12101424	-201	-701	1460
12101752	-207	-761	1493
12102080	-104	-807	1577
12102408	68	-818	1666
12102736	436	-762	1829
12103064	879	-716	1834
12103392	1316	-642	1812
12103720	1742	-676	1842
12104048	2100	-725	1800
12104376	2316	-587	1838
12104704	2241	-492	1916
12105032	2113	-384	1897
12105360	2066	-229	1976
12105688	2015	-44	1911
12106016	2143	121	1931
12106344	2325	90	1967
12106672	2425	-102	2079
12107000	2434	-307	2197
12107328	2401	-376	2349
12107656	2299	-644	2469
12107984	2440	-856	2618
12108312	2675	-1119	2682
12108640	2862	-1568	2843
12108968	2902	-1704	3072
12109296	2809	-2391	3512
12109624	2282	-3652	4045
12109952	1757	-4932	4791
12110280	770	-5636	5343
12110608	789	-5845	5724
12110936	708	-6198	5868
12111264	1531	-6208	5768
12111592	2827	-6037	5962
12111920	5186	-3744	6201
12112248	4793	-1951	6126
12112576	6058	-1002	5397
12112904	8535	-1023	5438
12113232	11366	-356	5054
12113560	13588	-112	4393
12113888	16657	-865	4236
12114216	20862	-412	5087
12114544	23187	1558	4051
12114872	24502	2106	-686
12115200	26471	2306	-5627
12115528	24745	2685	-8208
12115856	19116	1272	-9150
12116184	12556	1305	-8915
12116512	7711	612	-7396
12116840	4628	14	-6310
12117168	3467	-531	-7465
12117496	4148	531	-9134
12117824	5748	1460	-9540
12118152	6788	2434	-10529
12118480	7165	3470	-11273
12118808	7044	3992	-11564
12119136	7148	4176	-12046
12119464	7548	4468	-12250
12119792	7781	3885	-12319
12120120	7566	3524	-12211
12120448	7758	3075	-12283
12120776	7627	2486	-12828
12121104	7223	1711	-13091
12121432	6304	878	-13086
12121760	5143	431	-12804
12122088	3773	62	-12837
12122416	2911	-429	-12700
12122744	2396	-547	-12545
12123072	2293	-324	-12306
12123400	2522	-286	-11729
12123728	2813	-414	-11473
12124056	3166	-636	-11035
12124384	3520	-1043	-10373
12124712	3546	-1604	-9850
12125040	3343	-2005	-9411
12125368	2975	-2290	-8868
12125696	2359	-2359	-8270
12126024	2072	-2214	-7586
12126352	1791	-1978	-6829
12126680	1898	-1458	-6317
12127008	2071	-1181	-5683
12127336	2154	-713	-5140
12127664	2534	-419	-4563
12127992	2761	-497	-3875
12128320	3910	-8	-3332
12128648	4852	-153	-2569
12128976	4892	-395	-1632
12129304	4611	-528	-515
12129632	4393	-593	904
12129960	3846	-388	2833
12130288	2926	-81	5116
12130616	1312	48	7345
12130944	-479	561	8273
12131272	-2622	1838	8008
12131600	-2267	3094	5341
12131928	889	4027	3400
12132256	2424	4227	2922
12132584	3819	4959	2715
12132912	4404	6018	3018
12133240	4376	6389	2756
12133568	3993	5489	2164
12133896	3401	4652	1850
12134224	2929	4136	1758
12134552	2078	3728	1859
12134880	1505	3042	1712
12135208	1218	2392	1698
12135536	670	1728	1667
12135864	-102	1649	1602
12136192	-964	1403	1550
12136520	-1808	1532	1566
12136848	-2407	1902	1498
12137176	-2013	1900	1412
12137504	-1770	1885	1222
12137832	-1583	1637	1113
12138160	-1681	1219	1067
12138488	-1979	1043	897
12138816	-2258	898	775
12139144	-2246	672	706
12139472	-1952	569	807
12139800	-1337	441	921
12140128	-684	413	1025
12140456	-61	517	1098
12140784	580	735	1201
12141112	1090	694	1344
12141440	1203	518	1465
12141768	966	317	1517
12142096	405	77	1420
12142424	-340	-141	1334
12142752	-550	-277	1182
12143080	-613	-436	1057
12143408	-361	-282	843
12143736	-285	-225	676
12144064	-267	-287	493
12144392	-279	-313	329
12144720	-440	-296	165
12145048	-635	-416	88
12145376	-687	-462	24
12145704	-663	-434	-30
12146032	-528	-406	-126
12146360	-442	-441	-131
12146688	-362	-359	-109
12147016	-186	-304	-120
12147344	44	-234	-119
12147672	271	-207	-98
12148000	505	-133	-89
12148328	567	-108	-50
12148656	652	-115	14
12148984	718	14	10
12149312	693	-62	78
12149640	793	-113	134
12149968	751	-74	127
12150296	637	-132	157
12150624	438	-89	195
12150952	290	-53	270
12151280	207	8	311
12151608	175	-8	352
12151936	239	0	351
12152264	317	42	341
12152592	406	39	300
12152920	430	39	310
12153248	390	62	323
12153576	293	71	320
12153904	190	87	322
12154232	137	133	318
12154560	174	154	311
12154888	178	164	284
12155216	165	142	280
12155544	163	120	243
12155872	79	112	221
12156200	7	122	198
12156528	-37	128	188
12156856	-54	142	148
12157184	-66	147	120
12157512	-54	182	98
12157840	-88	163	80
12158168	-149	150	75
12158496	-186	121	70
12158824	-202	123	44
12159152	-184	158	40
12159480	-128	176	25
12159808	-60	186	26
12160136	8	215	1
12160464	19	179	-8
12160792	-20	177	4
12161120	-112	137	-18
12161448	-188	109	-26
12161776	-259	100	-58
12162104	-315	99	-81
12162432	-380	98	-93
12162760	-421	114	-64
12163088	-449	124	-98
12163416	-425	138	-99
12163744	-402	142	-105
12164072	-337	107	-98
12164400	-320	123	-99
12164728	-285	131	-102
12165056	-285	145	-92
12165384	-281	125	-105
12165712	-294	131	-75
12166040	-296	122	-60
12166368	-286	114	-65
12166696	-257	140	-37
12167024	-245	127	-29
12167352	-223	109	-17
12167680	-211	103	-8
12168008	-199	120	-4
12168336	-162	102	7
12168664	-164	104	5
12168992	-166	93	1
12169320	-180	85	1
12169648	-172	111	-13
12169976	-184	120	-25
12170304	-205	121	-34
12170632	-271	126	-57
12170960	-320	114	-67
12171288	-386	92	-108
12171616	-435	101	-120
12171944	-406	157	-131
12172272	-369	184	-127
12172600	-325	172	-138
12172928	-312	127	-156
12173256	-297	109	-157
12173584	-253	85	-163
12173912	-168	126	-158
12174240	-99	151	-126
12174568	94	129	-101
12174896	354	88	-145
12175224	742	32	-216
12175552	1249	113	-345
12175880	1620	212	-461
12176208	1931	256	-497
12176536	2020	149	-487
12176864	1999	168	-393
12177192	1982	170	-333
12177520	2025	52	-340
12177848	2155	-102	-320
12178176	2127	-204	-273
12178504	1921	-323	-239
12178832	1692	-388	-265
12179160	1574	-438	-308
12179488	1590	-520	-287
12179816	1650	-741	-244
12180144	1617	-918	-221
12180472	1448	-1024	-172
12180800	1181	-1139	-131
12181128	914	-1265	-102
12181456	672	-1456	-62
12181784	402	-1518	-49
12182112	195	-1566	-55
12182440	167	-1488	-17
12182768	176	-1323	-38
12183096	295	-1152	-61
12183424	409	-985	-48
12183752	533	-875	-20
12184080	690	-684	6
12184408	608	-346	-163
12184736	448	199	-318
12185064	468	484	-435
12185392	399	835	-708
12185720	417	2022	-1036
12186048	1088	3132	-1400
12186376	1503	3877	-1508
12186704	1786	4425	-1860
12187032	1730	4878	-2167
12187360	1450	5255	-2151
12187688	371	5258	-1647
12188016	-1301	5389	-1126
12188344	-2939	5033	-648
12188672	-4518	4978	-305
12189000	-5731	4736	38
12189328	-6655	4563	296
12189656	-7021	4714	556
12189984	-6849	4584	921
12190312	-6392	4342	1242
12190640	-5564	4302	1549
12190968	-4619	4350	1881
12191296	-3786	4499	2294
12191624	-2660	4474	2804
12191952	-1395	4447	3101
12192280	-252	3951	3574
12192608	711	3267	4300
12192936	1060	2720	5069
12193264	1224	2013	5863
12193592	1234	1111	6497
12193920	1274	-128	6952
12194248	1676	-1323	6480
12194576	1454	-1994	4443
12194904	-2283	-1287	930
12195232	-5046	199	-486
12195560	-3590	812	1435
12195888	-921	447	2928
12196216	-395	-202	2239
12196544	-721	263	1077
12196872	-250	502	1140
12197200	-3	981	1485
12197528	557	1108	1212
12197856	1204	1230	1005
12198184	1388	1147	859
12198512	1737	990	756
12198840	1962	787	853
12199168	1624	608	912
12199496	422	549	884
12199824	-1069	339	884
12200152	-2232	220	960
12200480	-2757	77	944
12200808	-2284	84	875
12201136	-1197	338	736
12201464	-139	488	625
12201792	911	585	494
12202120	1713	504	364
12202448	1945	505	319
12202776	1625	432	291
12203104	1071	307	281
12203432	445	120	357
12203760	7	-42	352
12204088	-217	12	307
12204416	-114	97	308
12204744	210	211	309
12205072	617	337	257
12205400	902	295	189
12205728	994	247	230
12206056	382	101	353
12206384	-618	-67	464
12206712	-1540	-148	654
12207040	-2038	-162	905
12207368	-1910	-175	971
12207696	-1301	-94	1061
12208024	-353	-87	1059
12208352	716	52	953
12208680	1569	145	840
12209008	1926	145	864
12209336	1921	114	923
12209664	1674	94	960
12209992	1268	24	1056
12210320	771	2	1071
12210648	512	-29	1102
12210976	330	-73	1120
12211304	245	-112	1170
12211632	203	-140	1173
12211960	269	-97	1156
12212288	447	-105	1162
12212616	490	-146	1193
12212944	547	-134	1175
12213272	594	-111	1161
12213600	626	-123	1207
12213928	652	-146	1188
12214256	742	-86	1155
12214584	777	-65	1171
12214912	803	-88	1122
12215240	820	-91	1109
12215568	758	-78	1110
12215896	641	-93	1104
12216224	574	-49	1160
12216552	372	-109	1164
12216880	115	-125	1181
12217208	10	-137	1108
12217536	-34	-153	1025
12217864	-149	-126	920
12218192	-160	-127	855
12218520	-130	-60	830
12218848	-46	7	744
12219176	232	85	706
12219504	583	140	631
12219832	849	176	589
12220160	1067	171	535
12220488	1092	125	525
12220816	1085	83	483
12221144	1001	62	473
12221472	868	26	478
12221800	815	115	454
12222128	793	99	376
12222456	732	87	284
12222784	635	98	211
12223112	467	56	135
12223440	246	5	113
12223768	2	-10	112
12224096	-176	-1	90
12224424	-292	-15	47
12224752	-290	18	31
12225080	-270	66	-23
12225408	-243	82	-90
12225736	-294	62	-170
12226064	-351	45	-240
12226392	-413	43	-269
12226720	-453	79	-276
12227048	-536	98	-350
12227376	-537	100	-432
12227704	-509	123	-502
12228032	-420	144	-559
12228360	-395	153	-599
12228688	-413	145	-637
12229016	-501	177	-637
12229344	-626	130	-678
12229672	-707	131	-717
12230000	-777	140	-738
12230328	-841	141	-774
12230656	-849	188	-787
12230984	-906	179	-805
12231312	-954	179	-826
12231640	-926	241	-868
12231968	-853	276	-892
12232296	-735	314	-995
12232624	-644	379	-1009
12232952	-619	341	-1035
12233280	-536	384	-1018
12233608	-391	520	-1047
12233936	-307	561	-1117
12234264	-264	477	-1239
12234592	-156	556	-1256
12234920	-139	510	-1272
12235248	-164	528	-1297
12235576	-177	535	-1333
12235904	-242	476	-1359
12236232	-189	491	-1370
12236560	-113	515	-1381
12236888	-62	494	-1407
12237216	-66	480	-1447
12237544	-133	498	-1435
12237872	-213	434	-1437
12238200	-314	449	-1435
12238528	-429	432	-1443
12238856	-535	386	-1446
12239184	-613	400	-1454
12239512	-553	384	-1466
12239840	-418	388	-1464
12240168	-249	407	-1462
12240496	-157	425	-1473
12240824	-34	437	-1435
12241152	49	426	-1374
12241480	38	411	-1307
12241808	-45	360	-1271
12242136	-167	272	-1257
12242464	-260	234	-1249
12242792	-396	197	-1246
12243120	-480	200	-1197
12243448	-537	240	-1170
12243776	-493	262	-1180
12244104	-305	235	-1204
12244432	-127	409	-1155
12244760	58	428	-1132
12245088	168	403	-1070
12245416	158	376	-989
12245744	20	337	-896
12246072	-237	274	-803
12246400	-385	240	-759
12246728	-393	220	-766
12247056	-325	246	-737
12247384	-279	193	-723
12247712	-95	289	-657
12248040	-66	267	-618
12248368	-39	220	-620
12248696	-42	190	-600
12249024	-164	157	-543
12249352	-382	135	-501
12249680	-598	94	-426
12250008	-813	56	-398
12250336	-946	14	-413
12250664	-855	11	-464
12250992	-604	75	-503
12251320	-352	139	-546
12251648	-116	163	-579
12251976	-60	168	-554
12252304	-106	121	-535
12252632	-259	116	-522
12252960	-396	66	-495
12253288	-454	23	-464
12253616	-461	37	-431
12253944	-445	32	-400
12254272	-405	50	-342
12254600	-468	29	-293
12254928	-586	-27	-214
12255256	-740	-56	-173
12255584	-890	-132	-167
12255912	-1039	-149	-141
12256240	-1091	-145	-136
12256568	-974	-117	-178
12256896	-708	-36	-179
12257224	-492	23	-176
12257552	-401	31	-151
12257880	-427	10	-159
12258208	-390	31	-141
12258536	-361	35	-137
12258864	-345	26	-144
12259192	-280	25	-149
12259520	-238	33	-120
12259848	-318	17	-119
12260176	-353	5	-94
12260504	-285	34	-115
12260832	-171	68	-135
12261160	-36	79	-126
12261488	5	73	-105
12261816	-51	61	-84
12262144	-94	87	-85
12262472	-115	113	-59
12262800	-95	99	-48
12263128	-70	117	-42
12263456	-55	114	-43
12263784	-5	120	-5
12264112	195	119	-37
12264440	502	136	-103
12264768	811	190	-153
12265096	881	166	-169
12265424	743	138	-146
12265752	497	99	-172
12266080	381	90	-205
12266408	371	124	-228
12266736	452	113	-238
12267064	592	160	-256
12267392	839	134	-236
12267720	1133	69	-224
12268048	1190	83	-213
12268376	1051	88	-163
12268704	861	83	-108
12269032	647	120	-77
12269360	474	140	8
12269688	285	149	62
12270016	558	-63	238
12270344	476	54	347
12270672	437	331	536
12271000	-42	-84	409
12271328	-952	-94	233
12271656	-1215	-24	221
12271984	-956	-69	259
12272312	-408	45	155
12272640	277	174	150
12272968	680	218	161
12273296	734	249	216
12273624	494	168	291
12273952	107	99	358
12274280	-203	57	398
12274608	-198	56	362
12274936	29	98	287
12275264	205	148	183
12275592	261	147	113
12275920	156	79	65
12276248	-53	25	56
12276576	-268	-2	60
12276904	-366	6	46
12277232	-289	29	-4
12277560	-90	42	-39
12277888	112	61	-94
12278216	194	66	-164
12278544	161	67	-169
12278872	37	52	-180
12279200	-81	52	-226
12279528	-73	63	-264
12279856	-14	91	-298
12280184	29	91	-332
12280512	114	104	-386
12280840	239	125	-435
12281168	335	157	-464
12281496	393	180	-561
12281824	353	178	-675
12282152	528	316	-854
12282480	749	501	-992
12282808	679	553	-1216
12283136	452	505	-1466
12283464	267	533	-1666
12283792	-15	537	-1950
12284120	-335	426	-2427
12284448	-671	603	-2435
12284776	-745	777	-2585
12285104	-716	884	-2684
12285432	-810	863	-3007
12285760	-939	886	-3316
12286088	-965	736	-3361
12286416	-1141	480	-3573
12286744	-1310	509	-3518
12287072	-1641	363	-3185
12287400	-2365	-238	-3043
12287728	-3035	-745	-3062
12288056	-3445	-1022	-2898
12288384	-3724	-1505	-2691
12288712	-4004	-1910	-2532
12289040	-3808	-2131	-2194
12289368	-3061	-2305	-1971
12289696	-1905	-2454	-1498
12290024	-374	-2523	-1127
12290352	721	-2794	-826
12290680	1178	-2895	-505
12291008	908	-3069	-288
12291336	162	-3322	-3
12291664	-1015	-3393	317
12291992	-2008	-3372	669
12292320	-2560	-3357	1110
12292648	-2648	-3412	1544
12292976	-2195	-3324	1846
12293304	-1564	-2944	2056
12293632	-804	-2572	2133
12293960	274	-2138	2397
12294288	1109	-1467	2315
12294616	294	-1436	1908
12294944	535	-155	1977
12295272	989	976	2425
12295600	760	451	2609
12295928	1718	861	2761
12296256	3794	1863	3281
12296584	6175	1755	3702
12296912	5630	1095	2993
12297240	4796	962	2645
12297568	3062	393	2196
12297896	1591	-64	1989
12298224	460	-169	1917
12298552	-562	-48	1776
12298880	-1314	280	1644
12299208	-1869	249	1697
12299536	-2149	403	1794
12299864	-2047	565	1775
12300192	-1650	562	1874
12300520	-989	744	1621
12300848	-378	799	1364
12301176	78	943	1200
12301504	136	949	1048
12301832	-162	916	895
12302160	-632	771	895
12302488	-1249	600	781
12302816	-1853	530	702
12303144	-2291	434	656
12303472	-2513	465	585
12303800	-2228	531	530
12304128	-1765	617	482
12304456	-1250	640	387
12304784	-778	647	271
12305112	-562	612	217
12305440	-656	458	223
12305768	-898	352	217
12306096	-1155	274	161
12306424	-1205	314	160
12306752	-1117	211	144
12307080	-883	237	112
12307408	-561	201	115
12307736	-330	165	92
12308064	-192	96	84
12308392	-114	30	63
12308720	-1	-11	69
12309048	118	-28	77
12309376	261	52	87
12309704	435	46	40
12310032	598	11	-18
12310360	627	-12	-51
12310688	605	-104	-106
12311016	513	-187	-132
12311344	370	-263	-155
12311672	229	-290	-175
12312000	160	-329	-223
12312328	149	-401	-243
12312656	160	-421	-270
12312984	40	-474	-290
12313312	-99	-505	-284
12313640	-225	-497	-275
12313968	-254	-452	-286
12314296	-173	-427	-304
12314624	-22	-438	-260
12314952	150	-418	-241
12315280	338	-413	-221
12315608	551	-365	-171
12315936	722	-315	-119
12316264	897	-287	-108
12316592	1043	-255	-139
12316920	1204	-245	-178
12317248	1260	-246	-186
12317576	1226	-249	-224
12317904	1197	-211	-268
12318232	1212	-215	-303
12318560	1204	-166	-317
12318888	1165	-143	-323
12319216	1066	-148	-356
12319544	933	-201	-417
12319872	673	-234	-411
12320200	440	-225	-443
12320528	219	-283	-492
12320856	12	-286	-502
12321184	-103	-268	-511
12321512	-99	-267	-572
12321840	-30	-283	-592
12322168	102	-211	-626
12322496	290	-164	-641
12322824	414	-135	-630
12323152	540	-94	-602
12323480	602	-74	-555
12323808	618	-67	-502
12324136	618	-33	-452
12324464	603	-50	-440
12324792	549	-70	-404
12325120	439	-83	-366
12325448	372	-100	-315
12325776	301	-130	-293
12326104	239	-121	-290
12326432	178	-116	-294
12326760	155	-103	-305
12327088	138	-61	-294
12327416	187	-31	-294
12327744	227	-15	-302
12328072	287	16	-298
12328400	325	52	-284
12328728	359	48	-264
12329056	379	53	-236
12329384	411	63	-214
12329712	400	60	-183
12330040	411	47	-172
12330368	418	50	-143
12330696	384	60	-126
12331024	346	49	-133
12331352	293	61	-128
12331680	269	55	-105
12332008	249	80	-111
12332336	325	118	-107
12332664	374	112	-95
12332992	413	133	-122
12333320	438	148	-82
12333648	418	145	-94
12333976	422	148	-94
12334304	403	160	-109
12334632	359	179	-90
12334960	291	143	-91
12335288	210	150	-65
12335616	113	159	-28
12335944	28	139	-15
12336272	-33	140	11
12336600	-58	146	14
12336928	-68	151	12
12337256	-69	162	20
12337584	-88	164	19
12337912	-93	173	38
12338240	-63	178	-2
12338568	-52	199	8
12338896	-48	209	11
12339224	-33	189	7
12339552	-46	193	18
12339880	-61	196	1
12340208	-91	195	-28
12340536	-89	196	-18
12340864	-104	198	-20
12341192	-107	204	-19
12341520	-130	211	-14
12341848	-140	189	-20
12342176	-151	206	-21
12342504	-137	207	-17
12342832	-125	209	-17
12343160	-127	209	-21
12343488	-116	218	-28
12343816	-119	224	-28
12344144	-153	209	-3
12344472	-204	202	-20
12344800	-237	212	-5
12345128	-282	197	-12
12345456	-300	192	5
12345784	-348	193	7
12346112	-374	192	20
12346440	-374	189	24
12346768	-379	194	27
12347096	-331	207	16
12347424	-287	216	40
12347752	-242	196	41
12348080	-263	194	52
12348408	-282	178	63
12348736	-295	180	73
12349064	-305	197	89
12349392	-313	201	87
12349720	-298	177	89
12350048	-300	184	99
12350376	-319	181	93
12350704	-337	183	97
12351032	-359	169	106
12351360	-394	172	108
12351688	-394	167	101
12352016	-381	164	101
12352344	-365	170	103
12352672	-365	153	103
12353000	-354	157	105
12353328	-357	151	102
12353656	-340	149	82
12353984	-344	151	70
12354312	-340	148	80
12354640	-339	170	74
12354968	-328	147	58
12355296	-309	161	43
12355624	-285	164	39
12355952	-266	156	49
12356280	-293	156	55
12356608	-275	149	53
12356936	-240	169	29
12357264	-236	168	36
12357592	-228	165	29
12357920	-212	186	19
12358248	-228	179	6
12358576	-245	177	19
12358904	-269	169	14
12359232	-255	182	18
12359560	-265	204	14
12359888	-237	215	8
12360216	-218	200	15
12360544	-216	196	13
12360872	-196	203	6
12361200	-175	194	-6
12361528	-172	191	-10
12361856	-157	190	-15
12362184	-149	183	-21
12362512	-126	187	-10
12362840	-133	187	-23
12363168	-93	191	-31
12363496	-72	181	-41
12363824	-64	186	-33
12364152	-47	194	-19
12364480	-73	188	-20
12364808	-80	181	-24
12365136	-75	188	-17
12365464	-73	171	-13
12365792	-69	198	-9
12366120	-59	195	-24
12366448	-75	187	-20
12366776	-55	184	-29
12367104	-65	175	-28
12367432	-69	169	-25
12367760	-53	173	-21
12368088	-53	185	-30
12368416	-35	186	-11
12368744	-7	183	-19
12369072	1	187	-26
12369400	5	184	-31
12369728	18	175	-37
12370056	5	168	-20
12370384	-19	155	-18
12370712	-31	170	-8
12371040	-34	157	-20
12371368	-31	161	-11
12371696	-34	160	-20
12372024	-37	171	-25
12372352	-37	157	-30
12372680	-23	164	-25
12373008	-34	144	-15
12373336	-33	154	-21
12373664	-30	151	-13
12373992	-32	141	-20
12374320	-52	139	-18
12374648	-67	140	-14
12374976	-87	147	-20
12375304	-116	151	-15
12375632	-110	145	-20
12375960	-111	165	-23
12376288	-91	156	-25
12376616	-99	157	-31
12376944	-103	142	-26
12377272	-96	148	-34
12377600	-83	149	-42
12377928	-70	147	-43
12378256	-43	154	-52
12378584	-30	160	-54
12378912	-17	150	-53
12379240	-11	157	-43
12379568	-3	158	-47
12379896	33	161	-40
12380224	45	154	-39
12380552	26	160	-48
12380880	50	156	-48
12381208	47	166	-57
12381536	42	170	-40
12381864	40	160	-43
12382192	33	156	-60
12382520	43	161	-60
12382848	70	167	-53
12383176	66	167	-59
12383504	85	168	-53
12383832	56	144	-56
12384160	48	145	-35
12384488	62	154	-36
12384816	72	146	-42
12385144	80	147	-47
12385472	73	151	-42
12385800	44	147	-35
12386128	44	138	-38
12386456	58	144	-43
12386784	59	145	-55
12387112	66	146	-52
12387440	79	125	-49
12387768	73	134	-46
12388096	53	138	-28
12388424	34	130	-52
12388752	6	114	-29
12389080	-19	134	-34
12389408	-19	109	-42
12389736	-8	129	-46
12390064	-14	116	-46
12390392	-11	125	-48
12390720	14	116	-60
12391048	-7	110	-52
12391376	-5	106	-53
12391704	-17	105	-42
12392032	-20	113	-60
12392360	-27	110	-46
12392688	-47	98	-45
12393016	-72	106	-46
12393344	-91	85	-40
12393672	-103	103	-39
12394000	-124	84	-35
12394328	-102	93	-36
12394656	-107	98	-23
12394984	-109	100	-27
12395312	-85	114	-27
12395640	-86	99	-24
12395968	-79	102	-31
12396296	-70	108	-31
12396624	-88	98	-25
12396952	-93	91	-11
12397280	-115	97	-25
12397608	-110	95	-19
12397936	-141	92	-16
12398264	-120	88	-21
12398592	-111	118	-15
12398920	-74	101	-22
12399248	-86	96	-30
12399576	-91	103	-19
12399904	-89	105	-25
12400232	-86	105	-16
12400560	-83	99	-31
12400888	-95	110	-20
12401216	-90	104	-29
12401544	-90	90	-10
12401872	-104	97	2
12402200	-105	94	-8
12402528	-108	92	-11
12402856	-103	102	-4
12403184	-78	92	-5
12403512	-98	105	-8
12403840	-87	89	-6
12404168	-110	101	2
12404496	-115	92	8
12404824	-95	89	-2
12405152	-58	99	18
12405480	-29	98	11
12405808	-21	105	12
12406136	-15	95	14
12406464	-19	89	17
12406792	-22	88	23
12407120	-35	88	18
12407448	-42	95	17
12407776	-65	86	13
12408104	-106	74	15
12408432	-146	87	16
12408760	-169	74	10
12409088	-189	75	12
12409416	-196	79	11
12409744	-213	92	14
12410072	-222	90	9
12410400	-242	95	-10
12410728	-243	106	0
12411056	-226	89	-3
12411384	-206	106	-19
12411712	-192	93	-13
12412040	-166	110	-28
12412368	-140	114	-33
12412696	-132	118	-32
12413024	-123	129	-39
12413352	-131	107	-46
12413680	-115	128	-43
12414008	-126	121	-35
12414336	-133	131	-46
12414664	-134	125	-39
12414992	-138	132	-55
12415320	-118	141	-57
12415648	-148	141	-58
12415976	-141	151	-59
12416304	-167	149	-67
12416632	-157	146	-54
12416960	-159	156	-71
12417288	-154	153	-63
12417616	-139	155	-63
12417944	-128	150	-61
12418272	-126	156	-55
12418600	-128	152	-52
12418928	-136	158	-47
12419256	-139	141	-49
12419584	-136	154	-42
12419912	-142	142	-38
12420240	-143	128	-39
12420568	-152	142	-27
12420896	-126	145	-29
12421224	-110	136	-17
12421552	-110	152	-14
12421880	-69	151	-3
12422208	-56	152	-19
12422536	-55	157	-3
12422864	-22	158	-6
12423192	-23	160	-4
12423520	-29	147	4
12423848	-40	160	3
12424176	-24	160	-7
12424504	4	154	-12
12424832	14	166	-15
12425160	16	165	-17
12425488	14	169	-22
12425816	24	162	-23
12426144	34	135	-13
12426472	36	139	-12
12426800	17	141	-1
12427128	29	123	-10
12427456	44	122	7
12427784	24	160	26
12428112	37	130	29
12428440	55	114	23
12428768	71	120	23
12429096	94	122	9
12429424	129	110	-3
12429752	182	102	15
12430080	227	85	36
12430408	278	72	102
12430736	283	82	235
12431064	250	49	255
12431392	222	-28	166
12431720	124	-136	-128
12432048	158	-317	-476
12432376	13	-82	-409
12432704	-33	-106	-283
12433032	222	-101	-60
12433360	266	91	101
12433688	236	113	128
12434016	58	67	89
12434344	-40	182	133
12434672	62	303	240
12435000	-73	116	219
12435328	-401	-131	-53
12435656	-719	-119	-192
12435984	-963	-211	-324
12436312	-1065	-227	-529
12436640	-985	-150	-717
12436968	-871	-35	-919
12437296	-544	178	-1098
12437624	-396	195	-1283
12437952	-175	446	-1621
12438280	92	673	-1983
12438608	232	940	-2300
12438936	499	1281	-2673
12439264	592	1579	-2942
12439592	421	1806	-3017
12439920	308	1900	-3112
12440248	-247	1853	-3223
12440576	-943	1948	-3596
12440904	-1761	1928	-3746
12441232	-2200	1595	-3819
12441560	-1923	1608	-3632
12441888	-960	1774	-3710
12442216	164	2103	-3916
12442544	1403	1997	-3802
12442872	2260	1918	-3822
12443200	2724	1645	-3406
12443528	2583	1512	-3394
12443856	1719	1393	-3735
12444184	150	1553	-4075
12444512	-995	1001	-4026
12444840	-1118	861	-3665
12445168	-1220	606	-3421
12445496	-1204	654	-3332
12445824	-1429	488	-3279
12446152	-1559	464	-3147
12446480	-1574	803	-3012
12446808	-1086	807	-3160
12447136	-740	657	-3366
12447464	-912	624	-3321
12447792	-1215	937	-3097
12448120	-780	1233	-2656
12448448	-860	1546	-2366
12448776	-631	1635	-2495
12449104	-884	1308	-1667
12449432	-1137	1320	-1170
12449760	-688	1103	-767
12450088	-323	956	-184
12450416	-46	449	635
12450744	-128	-392	1458
12451072	-310	-823	2399
12451400	-378	-1207	3108
12451728	-481	-955	3856
12452056	-141	-274	4894
12452384	1032	-446	5752
12452712	2248	-438	6315
12453040	2643	-1562	6123
12453368	4383	-3794	4009
12453696	4238	-4188	2668
12454024	3542	-3461	2359
12454352	3944	-2262	3095
12454680	4714	-1500	4776
12455008	5734	-1616	6026
12455336	5927	-1776	6432
12455664	5194	-3016	6693
12455992	6079	-4573	6759
12456320	6502	-4028	7966
12456648	4891	-3140	8944
12456976	734	-2836	7950
12457304	-3478	-2613	5105
12457632	-5226	-1680	2088
12457960	-4730	-633	414
12458288	-3260	243	-628
12458616	-1665	696	-995
12458944	-808	1032	-1536
12459272	-1162	908	-2169
12459600	-2487	625	-2453
12459928	-2675	-51	-2744
12460256	-2754	-134	-2767
12460584	-2783	-296	-2896
12460912	-2539	-205	-3441
12461240	-2189	-38	-3920
12461568	-1784	267	-3990
12461896	-797	68	-3920
12462224	415	-730	-5392
12462552	-568	483	-7147
12462880	-6223	3288	-12695
12463208	-7191	9461	-13344
12463536	-3104	6859	-7324
12463864	3720	-1004	-1013
12464192	2807	-1781	528
12464520	-1886	4570	609
12464848	-3242	2526	190
12465176	-3269	-280	-272
12465504	-4701	-1259	-2729
12465832	-4349	-972	-2888
12466160	-4634	-3397	-2294
12466488	-4817	-4354	-1707
12466816	-3284	-1453	223
12467144	444	-605	2338
12467472	3462	-40	3044
12467800	6377	-1808	6119
12468128	6713	1675	5501
12468456	5589	412	4994
12468784	4202	264	5707
12469112	3591	-699	4505
12469440	3806	-489	4300
12469768	3587	-698	4035
12470096	3531	-1263	4329
12470424	3390	-1675	4344
12470752	2529	-1561	3779
12471080	1870	-627	2773
12471408	653	-223	3446
12471736	-267	-55	3007
12472064	-141	-336	2652
12472392	35	-83	2231
12472720	105	-431	2069
12473048	465	-1014	1878
12473376	653	-602	1466
12473704	737	-285	1254
12474032	462	-130	1179
12474360	-583	-126	1099
12474688	-1196	-417	1092
12475016	-1216	214	997
12475344	-918	63	735
12475672	-273	-45	351
12476000	484	148	193
12476328	1171	231	101
12476656	1485	276	-133
12476984	1696	337	-138
12477312	1615	285	-113
12477640	1271	284	-17
12477968	769	284	171
12478296	313	223	358
12478624	89	341	526
12478952	61	444	633
12479280	323	483	701
12479608	752	696	516
12479936	1136	774	653
12480264	1076	568	415
12480592	1051	781	325
12480920	697	769	322
12481248	508	550	-42
12481576	-342	341	-138
12481904	-729	404	-62
12482232	-740	299	-193
12482560	-774	253	-305
12482888	-602	308	-374
12483216	-311	444	-411
12483544	-94	479	-480
12483872	49	560	-438
12484200	110	587	-408
12484528	162	524	-352
12484856	176	553	-289
12485184	31	495	-295
12485512	-129	454	-272
12485840	-355	418	-245
12486168	-632	360	-226
12486496	-879	316	-196
12486824	-1037	225	-237
12487152	-1133	320	-202
12487480	-1113	309	-211
12487808	-1061	229	-164
12488136	-891	234	-151
12488464	-777	226	-227
12488792	-698	264	-299
12489120	-652	242	-324
12489448	-627	238	-401
12489776	-620	199	-362
12490104	-578	178	-299
12490432	-287	147	-284
12490760	85	118	-223
12491088	506	187	-211
12491416	801	211	-230
12491744	1091	239	-253
12492072	1175	243	-269
12492400	1159	203	-276
12492728	1001	133	-263
12493056	844	82	-288
12493384	671	93	-285
12493712	480	105	-281
12494040	341	43	-341
12494368	256	89	-336
12494696	181	71	-334
12495024	79	87	-326
12495352	-50	111	-328
12495680	-135	105	-337
12496008	-137	115	-291
12496336	-147	150	-301
12496664	-151	137	-266
12496992	-159	149	-280
12497320	-208	144	-295
12497648	-159	187	-290
12497976	-165	168	-299
12498304	-142	208	-322
12498632	-128	169	-345
12498960	-170	216	-355
12499288	-202	195	-363
12499616	-232	194	-372
12499944	-286	185	-396
12500272	-325	204	-418
12500600	-339	199	-426
12500928	-362	200	-426
12501256	-314	174	-432
12501584	-322	178	-438
12501912	-362	178	-451
12502240	-436	171	-448
12502568	-556	110	-412
