Time Stamp	Gyroscope X	Gyroscope Y	Gyroscope Z
RAW	RAW	RAW	RAW
no units	no units	no units	no units
3797530	-121	136	-94
3797858	-124	119	-89
3798186	-116	104	-83
3798514	-110	108	-92
3798842	-94	111	-84
3799170	-74	116	-71
3799498	-74	114	-79
3799826	-90	115	-80
3800154	-103	121	-74
3800482	-111	104	-59
3800810	-127	110	-69
3801138	-107	119	-64
3801466	-109	119	-64
3801794	-98	114	-60
3802122	-90	125	-52
3802450	-78	116	-58
3802778	-84	122	-63
3803106	-68	113	-60
3803434	-76	109	-59
3803762	-55	120	-41
3804090	-53	113	-43
3804418	-43	110	-40
3804746	-65	122	-33
3805074	-53	99	-31
3805402	-67	110	-33
3805730	-77	119	-47
3806058	-77	105	-31
3806386	-75	104	-34
3806714	-82	107	-38
3807042	-81	104	-40
3807370	-73	92	-38
3807698	-75	93	-40
3808026	-75	101	-51
3808354	-85	94	-44
3808682	-99	90	-52
3809010	-88	87	-57
3809338	-90	91	-57
3809666	-87	94	-66
3809994	-97	102	-61
3810322	-89	93	-54
3810650	-110	104	-66
3810978	-87	105	-56
3811306	-73	99	-48
3811634	-67	105	-44
3811962	-71	115	-46
3812290	-75	112	-37
3812618	-68	99	-28
3812946	-81	116	-25
3813274	-91	114	-16
3813602	-87	108	-33
3813930	-88	119	-10
3814258	-92	117	-17
3814586	-99	125	-12
3814914	-111	127	-25
3815242	-129	120	-32
3815570	-129	128	-30
3815898	-135	117	-48
3816226	-148	126	-47
3816554	-155	121	-52
3816882	-128	101	-61
3817210	-128	120	-59
3817538	-140	122	-75
3817866	-137	109	-75
3818194	-124	105	-68
3818522	-116	111	-79
3818850	-99	97	-77
3819178	-106	92	-62
3819506	-88	80	-74
3819834	-66	89	-70
3820162	-48	74	-63
3820490	-38	83	-56
3820818	-23	75	-64
3821146	-28	75	-67
3821474	-24	81	-63
3821802	-45	77	-58
3822130	-42	93	-50
3822458	-27	74	-64
3822786	-25	78	-64
3823114	-20	74	-67
3823442	-27	73	-57
3823770	-22	85	-50
3824098	-38	95	-48
3824426	-47	93	-50
3824754	-24	87	-45
3825082	-27	86	-54
3825410	-26	97	-46
3825738	-41	99	-39
3826066	-51	104	-34
3826394	-61	117	-28
3826722	-80	128	-45
3827050	-67	122	-27
3827378	-62	127	-16
3827706	-68	127	-11
3828034	-56	110	-9
3828362	-46	133	-1
3828690	-66	150	-11
3829018	-67	166	5
3829346	-75	155	6
3829674	-91	164	13
3830002	-105	157	13
3830330	-142	140	1
3830658	-145	156	4
3830986	-138	156	-4
3831314	-110	145	3
3831642	-114	160	10
3831970	-114	154	-9
3832298	-101	143	-7
3832626	-129	114	-9
3832954	-136	116	-6
3833282	-166	130	-11
3833610	-162	138	-13
3833938	-159	142	1
3834266	-131	125	-17
3834594	-100	155	-3
3834922	-92	113	-17
3835250	-48	136	-10
3835578	-26	156	14
3835906	20	123	49
3836234	11	123	39
3836562	27	130	65
3836890	84	156	88
3837218	112	186	103
3837546	113	206	112
3837874	93	223	76
3838202	78	171	59
3838530	33	165	74
3838858	11	181	67
3839186	-10	203	45
3839514	-35	180	26
3839842	-56	136	31
3840170	-55	133	33
3840498	-28	178	18
3840826	20	182	0
3841154	35	169	5
3841482	42	150	0
3841810	32	173	5
3842138	32	180	26
3842466	16	176	9
3842794	-2	185	4
3843122	-11	198	26
3843450	-37	218	23
3843778	-71	177	14
3844106	-87	183	12
3844434	-83	191	8
3844762	-117	200	2
3845090	-88	170	-22
3845418	-89	190	-30
3845746	-75	162	-33
3846074	-79	177	-28
3846402	-66	159	-42
3846730	-69	169	-33
3847058	-65	151	-34
3847386	-85	150	-49
3847714	-97	155	-52
3848042	-102	145	-43
3848370	-109	141	-45
3848698	-105	152	-38
3849026	-110	139	-39
3849354	-133	141	-36
3849682	-119	159	-54
3850010	-125	172	-41
3850338	-127	174	-37
3850666	-118	168	-38
3850994	-111	161	-36
3851322	-105	174	-12
3851650	-104	174	-16
3851978	-71	147	-31
3852306	-64	142	0
3852634	-55	150	0
3852962	-67	142	-4
3853290	-56	140	11
3853618	-57	168	16
3853946	-61	184	7
3854274	-35	183	25
3854602	-65	136	16
3854930	-63	153	17
3855258	-68	153	3
3855586	-44	185	29
3855914	-45	200	28
3856242	-73	146	11
3856570	-74	177	34
3856898	-79	177	47
3857226	-70	197	46
3857554	-56	187	42
3857882	0	241	40
3858210	-68	171	29
3858538	-87	171	54
3858866	-102	194	59
3859194	-82	197	42
3859522	-75	192	43
3859850	-106	179	44
3860178	-140	189	41
3860506	-155	177	37
3860834	-105	147	16
3861162	-48	144	14
3861490	-10	128	18
3861818	-15	132	10
3862146	-13	163	13
3862474	-25	157	11
3862802	-12	158	20
3863130	-9	142	3
3863458	1	127	15
3863786	6	139	18
3864114	-12	168	11
3864442	-49	152	6
3864770	-34	141	4
3865098	-51	128	10
3865426	-54	152	-2
3865754	-66	142	0
3866082	-72	147	-5
3866410	-61	145	5
3866738	-57	149	-5
3867066	-49	133	-5
3867394	-17	136	-6
3867722	-24	134	-9
3868050	-41	122	-19
3868378	-46	127	-7
3868706	-70	129	8
3869034	-69	127	-2
3869362	-59	120	-1
3869690	-54	110	1
3870018	-49	133	4
3870346	-41	130	7
3870674	-24	137	3
3871002	-38	135	6
3871330	-27	128	2
3871658	-22	116	11
3871986	-19	127	10
3872314	-13	119	11
3872642	-7	124	16
3872970	-18	121	3
3873298	-9	120	19
3873626	-28	124	26
3873954	-34	135	41
3874282	-29	136	40
3874610	-15	125	39
3874938	-21	111	36
3875266	-23	111	26
3875594	-52	102	32
3875922	-50	140	34
3876250	-81	117	26
3876578	-70	106	11
3876906	-86	114	14
3877234	-81	110	17
3877562	-51	119	20
3877890	-60	96	20
3878218	-24	123	32
3878546	-78	113	24
3878874	-82	114	15
3879202	-97	99	18
3879530	-93	89	42
3879858	-62	127	43
3880186	-45	104	35
3880514	-47	136	32
3880842	-61	115	32
3881170	-66	99	44
3881498	-60	110	41
3881826	-57	116	37
3882154	-53	115	33
3882482	-70	107	39
3882810	-70	110	39
3883138	-66	121	45
3883466	-56	126	45
3883794	-45	138	34
3884122	-33	159	42
3884450	-49	171	38
3884778	-48	156	44
3885106	-64	164	35
3885434	-71	173	17
3885762	-80	162	24
3886090	-89	164	28
3886418	-113	167	14
3886746	-114	150	8
3887074	-102	146	20
3887402	-106	155	7
3887730	-85	157	-7
3888058	-78	149	2
3888386	-87	155	-9
3888714	-69	162	-9
3889042	-65	136	-7
3889370	-66	114	-25
3889698	-44	163	-33
3890026	-53	141	-16
3890354	-41	150	-22
3890682	-24	155	-25
3891010	-32	148	-21
3891338	-28	153	-20
3891666	-30	168	-13
3891994	-35	163	-32
3892322	-28	175	-33
3892650	-15	152	-31
3892978	-28	159	-31
3893306	-31	179	-29
3893634	-39	180	-33
3893962	-39	170	-45
3894290	-35	166	-30
3894618	-58	156	-34
3894946	-66	163	-42
3895274	-42	146	-41
3895602	-38	146	-49
3895930	-58	149	-39
3896258	-41	150	-54
3896586	-54	145	-42
3896914	-32	151	-39
3897242	-35	146	-39
3897570	-17	143	-41
3897898	-25	161	-43
3898226	-28	156	-28
3898554	-31	146	-31
3898882	-42	161	-32
3899210	-47	158	-29
3899538	-50	166	-25
3899866	-37	166	-33
3900194	-24	154	-35
3900522	-23	170	-44
3900850	-20	154	-53
3901178	-33	155	-38
3901506	-58	160	-46
3901834	-51	167	-49
3902162	-57	146	-53
3902490	-39	152	-45
3902818	-51	148	-55
3903146	-34	158	-54
3903474	-65	140	-54
3903802	-70	146	-37
3904130	-66	163	-43
3904458	-71	147	-46
3904786	-62	147	-47
3905114	-41	157	-49
3905442	-53	152	-38
3905770	-54	159	-35
3906098	-45	156	-20
3906426	-46	145	-33
3906754	-40	147	-20
3907082	-45	142	-30
3907410	-70	153	-20
3907738	-51	153	-15
3908066	-75	160	-19
3908394	-48	168	-15
3908722	-65	153	-12
3909050	-66	160	-10
3909378	-57	133	-11
3909706	-30	137	-21
3910034	-28	146	-8
3910362	-27	139	4
3910690	-29	128	-18
3911018	-11	132	-15
3911346	17	110	-14
3911674	23	122	-16
3912002	35	112	-16
3912330	16	113	-22
3912658	9	132	-14
3912986	-22	115	-4
3913314	-53	127	-17
3913642	-37	136	-25
3913970	-10	124	-31
3914298	-19	134	-33
3914626	-34	126	-35
3914954	-74	134	-29
3915282	-111	131	-25
3915610	-164	153	-14
3915938	-168	155	-36
3916266	-163	166	-24
3916594	-154	151	-21
3916922	-148	130	-31
3917250	-131	139	-36
3917578	-131	142	-37
3917906	-168	140	-31
3918234	-208	161	-26
3918562	-222	171	-22
3918890	-231	159	-29
3919218	-230	155	-24
3919546	-203	161	-22
3919874	-159	158	-28
3920202	-148	151	-33
3920530	-121	142	-33
3920858	-117	143	-30
3921186	-123	127	-25
3921514	-120	138	-41
3921842	-121	124	-31
3922170	-125	129	-29
3922498	-118	98	-42
3922826	-103	100	-35
3923154	-98	115	-40
3923482	-86	105	-40
3923810	-56	101	-43
3924138	-54	94	-40
3924466	-61	108	-42
3924794	-62	93	-40
3925122	-52	88	-28
3925450	-40	108	-57
3925778	-20	100	-40
3926106	4	106	-41
3926434	21	111	-42
3926762	28	118	-43
3927090	31	106	-43
3927418	34	110	-43
3927746	19	124	-46
3928074	14	114	-40
3928402	15	115	-44
3928730	16	138	-49
3929058	2	135	-43
3929386	-3	122	-46
3929714	-20	129	-46
3930042	-29	142	-36
3930370	-42	142	-49
3930698	-42	157	-48
3931026	-29	140	-49
3931354	-35	144	-32
3931682	-41	144	-55
3932010	-52	130	-42
3932338	-49	138	-52
3932666	-56	138	-51
3932994	-72	149	-51
3933322	-84	147	-53
3933650	-86	164	-56
3933978	-104	164	-46
3934306	-113	162	-48
3934634	-120	172	-52
3934962	-126	173	-47
3935290	-133	187	-43
3935618	-143	181	-51
3935946	-141	180	-38
3936274	-150	191	-55
3936602	-151	179	-46
3936930	-130	175	-43
3937258	-140	172	-53
3937586	-134	169	-33
3937914	-154	179	-52
3938242	-147	179	-54
3938570	-133	176	-67
3938898	-114	174	-48
3939226	-108	178	-45
3939554	-110	170	-57
3939882	-104	174	-42
3940210	-87	172	-66
3940538	-94	146	-59
3940866	-55	145	-55
3941194	-22	148	-53
3941522	5	136	-47
3941850	27	134	-46
3942178	23	131	-27
3942506	33	150	-16
3942834	12	141	-19
3943162	32	149	-3
3943490	33	140	9
3943818	46	138	15
3944146	46	139	15
3944474	49	155	28
3944802	50	152	18
3945130	37	155	24
3945458	31	150	25
3945786	28	153	24
3946114	19	146	17
3946442	-3	152	22
3946770	-11	149	18
3947098	6	139	17
3947426	3	141	17
3947754	7	144	25
3948082	15	139	25
3948410	-17	158	18
3948738	-40	160	15
3949066	-49	160	20
3949394	-78	166	27
3949722	-69	159	13
3950050	-60	156	35
3950378	-60	155	34
3950706	-74	185	30
3951034	-66	160	22
3951362	-58	167	25
3951690	-81	179	24
3952018	-72	158	28
3952346	-69	146	26
3952674	-64	156	28
3953002	-54	158	16
3953330	-61	158	9
3953658	-64	173	18
3953986	-58	175	15
3954314	-85	171	9
3954642	-65	177	9
3954970	-63	152	5
3955298	-64	163	0
3955626	-62	164	-2
3955954	-46	168	-3
3956282	-59	155	1
3956610	-54	141	-4
3956938	-55	145	8
3957266	-38	153	2
3957594	-28	151	17
3957922	-48	170	9
3958250	-60	161	1
3958578	-43	168	8
3958906	-44	162	-1
3959234	-42	164	20
3959562	-46	159	10
3959890	-46	164	9
3960218	-48	164	18
3960546	-56	143	5
3960874	-50	145	7
3961202	-45	151	-6
3961530	-48	156	-10
3961858	-31	156	2
3962186	-32	149	4
3962514	-43	153	0
3962842	-27	156	1
3963170	-16	143	-8
3963498	-33	145	11
3963826	-51	164	2
3964154	-70	160	8
3964482	-58	145	8
3964810	-35	145	4
3965138	-35	143	3
3965466	-35	158	-2
3965794	-34	153	1
3966122	-52	142	3
3966450	-49	153	9
3966778	-65	160	-3
3967106	-45	142	12
3967434	-45	157	1
3967762	-33	159	8
3968090	-40	149	6
3968418	-31	158	11
3968746	-30	142	-10
3969074	-46	150	5
3969402	-55	162	-4
3969730	-82	128	1
3970058	-52	146	7
3970386	-68	134	2
3970714	-48	140	-6
3971042	-43	145	-2
3971370	-26	146	3
3971698	-40	154	3
3972026	-41	164	7
3972354	-36	163	7
3972682	-21	141	14
3973010	-17	170	6
3973338	-35	150	-9
3973666	-53	165	2
3973994	-57	164	-3
3974322	-77	151	5
3974650	-86	144	-5
3974978	-99	145	-2
3975306	-103	139	-7
3975634	-72	147	-7
3975962	-52	155	1
3976290	-27	141	-8
3976618	-6	151	-5
3976946	-16	144	0
3977274	-13	143	9
3977602	-27	132	8
3977930	-44	141	23
3978258	-42	146	31
3978586	-47	144	24
3978914	-49	148	32
3979242	55	250	38
3979570	36	129	6
3979898	19	202	2
3980226	-7	155	2
3980554	-24	186	-5
3980882	4	168	11
3981210	-12	175	2
3981538	-13	161	4
3981866	-30	157	-8
3982194	-33	182	-3
3982522	-40	158	-9
3982850	-63	155	-10
3983178	-74	161	-5
3983506	-78	178	-8
3983834	-75	159	-13
3984162	-91	186	-28
3984490	-79	173	-20
3984818	-58	183	-14
3985146	-49	167	-23
3985474	-34	164	-17
3985802	-45	172	-18
3986130	-50	167	-9
3986458	-72	170	-2
3986786	-105	174	-14
3987114	-106	154	-6
3987442	-108	153	-16
3987770	-96	168	-19
3988098	-82	156	-16
3988426	-58	157	-38
3988754	-33	155	-22
3989082	-23	160	-15
3989410	-27	158	-11
3989738	-23	159	-11
3990066	-34	165	-10
3990394	-37	156	-5
3990722	-30	176	-7
3991050	-38	168	-9
3991378	-30	162	-3
3991706	-38	166	-13
3992034	-46	168	-5
3992362	-39	161	-13
3992690	-28	153	-3
3993018	-40	167	-18
3993346	-30	143	-15
3993674	-24	153	-5
3994002	-24	148	0
3994330	-41	166	-9
3994658	-46	155	-7
3994986	-45	155	2
3995314	-38	159	-13
3995642	-48	166	-5
3995970	-57	158	-9
3996298	-45	161	-13
3996626	-67	138	-13
3996954	-62	144	7
3997282	-78	154	-9
3997610	-95	143	4
3997938	-92	136	-15
3998266	-79	147	3
3998594	-82	152	-9
3998922	-53	145	-6
3999250	-64	144	-14
3999578	-54	141	-32
3999906	-33	142	-32
4000234	-45	140	-23
4000562	-47	131	-28
4000890	-64	128	-30
4001218	-60	131	-23
4001546	-73	134	-13
4001874	-73	119	-37
4002202	-66	119	-18
4002530	-81	131	-24
4002858	-68	143	-28
4003186	-52	142	-33
4003514	-69	128	-29
4003842	-59	137	-32
4004170	-69	126	-23
4004498	-71	144	-25
4004826	-63	145	-32
4005154	-52	151	-28
4005482	-32	131	-26
4005810	-40	154	-24
4006138	-46	138	-25
4006466	-60	144	-21
4006794	-47	145	-28
4007122	-54	145	-32
4007450	-49	130	-17
4007778	-59	134	-21
4008106	-23	127	-18
4008434	-19	147	-19
4008762	-1	139	-24
4009090	11	134	-12
4009418	-18	141	-14
4009746	-40	161	-25
4010074	-52	129	-25
4010402	-53	138	-11
4010730	-54	137	-14
4011058	-22	138	-22
4011386	-11	132	-13
4011714	-9	141	-23
4012042	-8	141	-9
4012370	-29	155	-22
4012698	-52	137	-7
4013026	-69	146	-1
4013354	-68	131	-15
4013682	-76	136	-9
4014010	-75	137	-8
4014338	-62	125	-10
4014666	-78	135	-16
4014994	-82	132	-20
4015322	-79	134	-24
4015650	-88	150	-7
4015978	-78	141	-12
4016306	-70	132	-12
4016634	-54	129	-7
4016962	-41	143	-4
4017290	-50	144	-4
4017618	-45	146	3
4017946	-67	158	-1
4018274	-57	159	0
4018602	-55	151	-3
4018930	-24	150	-6
4019258	-35	152	-2
4019586	-44	162	0
4019914	-63	151	9
4020242	-65	154	5
4020570	-58	154	-2
4020898	-40	152	0
4021226	-26	137	17
4021554	-34	130	5
4021882	-36	144	0
4022210	-61	144	3
4022538	-77	140	-5
4022866	-64	147	11
4023194	-55	161	0
4023522	-73	161	4
4023850	-56	154	-4
4024178	-36	143	1
4024506	-28	146	6
4024834	-34	149	-15
4025162	-24	151	-3
4025490	-32	167	-6
4025818	-39	153	-5
4026146	-49	153	-4
4026474	-60	147	-9
4026802	-62	144	-29
4027130	-72	142	-35
4027458	-49	140	-31
4027786	-45	144	-36
4028114	-48	131	-58
4028442	-66	126	-42
4028770	-49	121	-55
4029098	-59	109	-64
4029426	-47	117	-57
4029754	-21	125	-43
4030082	-19	122	-35
4030410	-25	129	-40
4030738	-42	121	-37
4031066	-66	123	-35
4031394	-73	128	-38
4031722	-92	143	-32
4032050	-86	140	-33
4032378	-66	140	-39
4032706	-43	154	-34
4033034	-43	150	-31
4033362	-38	154	-31
4033690	-43	145	-48
4034018	-39	142	-51
4034346	-80	147	-48
4034674	-91	133	-47
4035002	-94	131	-51
4035330	-112	138	-59
4035658	-108	125	-49
4035986	-111	119	-62
4036314	-113	120	-53
4036642	-123	122	-55
4036970	-111	106	-64
4037298	-112	126	-66
4037626	-98	116	-59
4037954	-102	104	-63
4038282	-91	107	-54
4038610	-87	95	-61
4038938	-86	104	-49
4039266	-104	99	-64
4039594	-118	118	-46
4039922	-122	122	-46
4040250	-118	121	-55
4040578	-129	126	-60
4040906	-130	129	-47
4041234	-110	118	-69
4041562	-88	110	-69
4041890	-72	125	-51
4042218	-75	105	-51
4042546	-64	102	-46
4042874	-36	117	-52
4043202	-16	106	-47
4043530	19	83	-32
4043858	44	77	-40
4044186	50	85	-35
4044514	52	90	-22
4044842	62	101	-23
4045170	77	95	-13
4045498	100	123	-17
4045826	127	107	-21
4046154	122	110	-21
4046482	145	112	-26
4046810	126	101	-17
4047138	101	121	-21
4047466	57	120	-14
4047794	35	117	-24
4048122	15	131	-20
4048450	-21	136	-18
4048778	-40	168	-13
4049106	-36	151	-6
4049434	-37	129	-20
4049762	15	107	-34
4050090	13	122	-48
4050418	30	119	-50
4050746	4	130	-53
4051074	-53	97	-50
4051402	-81	122	-40
4051730	-131	94	-51
4052058	-168	120	-50
4052386	-165	99	-59
4052714	-162	156	-44
4053042	-160	120	-60
4053370	-159	119	-59
4053698	-152	113	-46
4054026	-153	137	-48
4054354	-164	139	-61
4054682	-183	131	-58
4055010	-205	105	-55
4055338	-254	54	-52
4055666	-228	126	-59
4055994	-334	89	-79
4056322	-365	72	-76
4056650	-360	84	-79
4056978	-371	44	-93
4057306	-340	60	-117
4057634	-279	97	-107
4057962	-271	107	-115
4058290	-293	79	-118
4058618	-280	52	-122
4058946	-294	72	-108
4059274	-294	95	-109
4059602	-297	97	-114
4059930	-337	81	-115
4060258	-351	87	-121
4060586	-389	108	-116
4060914	-382	136	-121
4061242	-349	159	-111
4061570	-318	187	-117
4061898	-240	180	-126
4062226	-177	173	-137
4062554	-113	197	-150
4062882	-106	187	-143
4063210	-102	183	-135
4063538	-128	215	-136
4063866	-153	200	-119
4064194	-157	214	-113
4064522	-140	200	-121
4064850	-108	197	-117
4065178	-69	214	-110
4065506	-24	183	-105
4065834	-4	195	-113
4066162	4	227	-113
4066490	32	199	-96
4066818	56	200	-98
4067146	75	217	-82
4067474	90	228	-87
4067802	101	207	-93
4068130	94	218	-96
4068458	83	236	-119
4068786	72	191	-138
4069114	8	213	-166
4069442	-23	229	-196
4069770	-1	358	-252
4070098	-121	208	-287
4070426	-120	358	-328
4070754	-98	253	-372
4071082	-328	202	-390
4071410	-533	266	-364
4071738	-821	305	-363
4072066	-994	330	-364
4072394	-1094	330	-398
4072722	-1033	419	-449
4073050	-819	386	-563
4073378	-367	150	-638
4073706	-293	85	-523
4074034	-197	195	-689
4074362	-387	372	-748
4074690	-574	326	-804
4075018	-757	165	-901
4075346	-893	193	-1019
4075674	-948	276	-1035
4076002	-860	286	-956
4076330	-750	212	-899
4076658	-718	167	-969
4076986	-754	169	-1054
4077314	-784	139	-1085
4077642	-827	141	-1057
4077970	-987	128	-1067
4078298	-1192	169	-1004
4078626	-1416	114	-899
4078954	-1638	110	-921
4079282	-1869	123	-791
4079610	-2010	72	-702
4079938	-2194	100	-584
4080266	-2378	42	-456
4080594	-2587	-62	-377
4080922	-2818	-37	-304
4081250	-2998	-72	-241
4081578	-3214	-130	-239
4081906	-3288	-127	-218
4082234	-3299	-174	-139
4082562	-3338	-220	-118
4082890	-3368	-303	-128
4083218	-3481	-310	-82
4083546	-3506	-365	-72
4083874	-3642	-394	-56
4084202	-3737	-408	-43
4084530	-3841	-448	-45
4084858	-3980	-444	5
4085186	-4129	-441	35
4085514	-4224	-457	51
4085842	-4389	-455	100
4086170	-4485	-524	148
4086498	-4560	-565	127
4086826	-4586	-573	87
4087154	-4516	-700	58
4087482	-4417	-773	115
4087810	-4355	-828	187
4088138	-4445	-845	198
4088466	-4629	-943	305
4088794	-4932	-972	399
4089122	-5412	-874	412
4089450	-5858	-598	323
4089778	-6298	-416	214
4090106	-6512	-273	245
4090434	-7170	225	224
4090762	-7875	676	237
4091090	-8373	912	208
4091418	-8596	1043	262
4091746	-8689	1246	287
4092074	-8484	1335	396
4092402	-8062	1476	571
4092730	-7421	1663	810
4093058	-6928	1686	1126
4093386	-6656	1858	1743
4093714	-6807	2271	2494
4094042	-7713	2933	3195
4094370	-9046	3830	3684
4094698	-12084	4511	3981
4095026	-12529	4435	3897
4095354	-12095	4054	3860
4095682	-11068	3145	3902
4096010	-9817	2843	3914
4096338	-8510	2719	3758
4096666	-7340	2517	3484
4096994	-6382	2278	3374
4097322	-5628	2221	3207
4097650	-5278	2328	3000
4097978	-5100	2432	2804
4098306	-5066	2230	2282
4098634	-4649	2073	2265
4098962	-4164	1841	1803
4099290	-3493	1710	1346
4099618	-2700	1367	750
4099946	-1653	987	238
4100274	-580	604	-282
4100602	313	473	-719
4100930	1026	326	-1085
4101258	1636	149	-1375
4101586	2115	83	-1597
4101914	2460	86	-1825
4102242	2726	-42	-1989
4102570	3059	-123	-2052
4102898	3226	-394	-2235
4103226	2866	-234	-2496
4103554	2817	103	-2471
4103882	2350	961	-2276
4104210	1808	1150	-2033
4104538	1493	768	-1715
4104866	1015	893	-1320
4105194	699	1154	-841
4105522	317	1453	-403
4105850	-14	1361	-358
4106178	116	1211	-460
4106506	660	1093	-490
4106834	1233	913	-460
4107162	1762	1194	-543
4107490	2189	1239	-628
4107818	2092	1347	-644
4108146	1488	1511	-640
4108474	775	1554	-670
4108802	516	1496	-630
4109130	589	1389	-644
4109458	498	1441	-557
4109786	452	1763	-495
4110114	537	1765	-405
4110442	646	1467	-377
4110770	848	1481	-330
4111098	857	1413	-283
4111426	856	1308	-207
4111754	881	1231	-192
4112082	822	1187	-209
4112410	645	1177	-180
4112738	471	1149	-175
4113066	444	1127	-151
4113394	433	959	-99
4113722	502	925	-69
4114050	562	801	-9
4114378	601	686	18
4114706	721	625	30
4115034	635	679	31
4115362	538	709	54
4115690	457	639	56
4116018	355	511	49
4116346	356	460	81
4116674	416	419	66
4117002	521	350	66
4117330	699	318	104
4117658	780	291	117
4117986	758	224	161
4118314	644	225	173
4118642	492	189	210
4118970	362	126	204
4119298	308	142	213
4119626	246	158	221
4119954	199	119	225
4120282	179	104	207
4120610	185	91	216
4120938	190	123	225
4121266	164	157	210
4121594	84	178	219
4121922	37	218	215
4122250	22	171	190
4122578	46	52	194
4122906	142	-11	178
4123234	258	-20	178
4123562	363	-129	148
4123890	336	-39	156
4124218	313	-152	142
4124546	183	-50	147
4124874	171	130	131
4125202	197	9	147
4125530	243	-84	211
4125858	180	-101	297
4126186	102	-136	338
4126514	-117	-89	324
4126842	-203	-40	303
4127170	-221	-116	311
4127498	-227	-60	311
4127826	-225	-16	308
4128154	-219	-86	310
4128482	-261	-4	298
4128810	-248	57	314
4129138	-237	-21	299
4129466	-222	98	309
4129794	-233	171	276
4130122	-257	152	218
4130450	-466	270	127
4130778	-884	757	1
4131106	-848	883	-120
4131434	-458	478	-153
4131762	185	-14	-57
4132090	273	-26	-30
4132418	335	-173	-27
4132746	374	-182	-63
4133074	451	-247	-97
4133402	686	-419	-79
4133730	802	-225	-147
4134058	1075	-362	-145
4134386	1170	-575	-139
4134714	1234	-522	-130
4135042	1174	-698	10
4135370	1473	-1020	125
4135698	1613	-732	-3
4136026	1962	-793	-31
4136354	2604	-1004	-28
4136682	3122	-977	-43
4137010	3332	-732	-5
4137338	3024	-325	-45
4137666	2128	94	-101
4137994	1031	423	-129
4138322	-1	587	-40
4138650	-732	704	48
4138978	-1384	913	91
4139306	-1563	1061	213
4139634	-1523	961	285
4139962	-1387	481	334
4140290	-1061	20	325
4140618	-582	-55	235
4140946	-182	-112	226
4141274	194	-77	227
4141602	439	-47	29
4141930	510	24	40
4142258	181	97	58
4142586	-218	-61	31
4142914	-462	35	-28
4143242	-343	-71	-14
4143570	-177	-302	-95
4143898	139	-92	-104
4144226	372	-312	-76
4144554	414	-166	-113
4144882	265	-165	-157
4145210	85	-114	-180
4145538	-66	32	-167
4145866	-350	78	-143
4146194	-576	181	-136
4146522	-729	221	-136
4146850	-800	233	-153
4147178	-795	164	-135
4147506	-792	189	-168
4147834	-622	111	-208
4148162	-419	86	-217
4148490	-288	126	-226
4148818	-187	67	-234
4149146	-167	97	-237
4149474	-179	130	-239
4149802	-220	196	-219
4150130	-283	227	-192
4150458	-312	162	-221
4150786	-262	133	-197
4151114	-128	169	-167
4151442	-1	106	-177
4151770	85	122	-139
4152098	134	130	-129
4152426	79	104	-107
4152754	28	153	-85
4153082	-33	151	-28
4153410	-51	110	17
4153738	-22	85	111
4154066	76	221	211
4154394	211	81	222
4154722	216	6	238
4155050	24	225	244
4155378	-229	337	174
4155706	-507	84	121
4156034	-300	2	185
4156362	-357	118	129
4156690	-415	173	88
4157018	-476	136	140
4157346	-585	93	128
4157674	-582	95	85
4158002	-408	86	99
4158330	-301	177	28
4158658	-253	258	8
4158986	-215	279	36
4159314	-234	210	35
4159642	-212	175	10
4159970	-80	171	-2
4160298	113	131	24
4160626	289	134	34
4160954	478	141	39
4161282	518	135	43
4161610	502	172	86
4161938	476	223	110
4162266	510	242	126
4162594	552	221	135
4162922	608	254	146
4163250	663	268	139
4163578	669	235	121
4163906	671	256	104
4164234	647	254	94
4164562	596	226	67
4164890	508	159	42
4165218	488	198	37
4165546	471	178	24
4165874	391	119	17
4166202	422	-3	43
4166530	444	-6	54
4166858	394	63	41
4167186	282	44	17
4167514	381	7	19
4167842	474	23	7
4168170	616	151	-34
4168498	849	-27	-41
4168826	1287	-136	-123
4169154	1394	-199	-127
4169482	1183	-179	-111
4169810	757	-75	-73
4170138	131	-70	-41
4170466	-465	147	-2
4170794	-889	148	11
4171122	-1027	108	35
4171450	-968	87	47
4171778	-812	75	41
4172106	-682	34	-3
4172434	-599	47	12
4172762	-748	179	-3
4173090	-758	189	10
4173418	-881	158	18
4173746	-1011	223	23
4174074	-1091	344	24
4174402	-1157	363	39
4174730	-1101	276	-5
4175058	-974	193	-37
4175386	-778	193	-87
4175714	-513	201	-104
4176042	-291	151	-131
4176370	-71	149	-158
4176698	107	148	-159
4177026	249	152	-159
4177354	386	188	-173
4177682	499	209	-200
4178010	629	108	-183
4178338	711	27	-74
4178666	661	67	-12
4178994	440	139	27
4179322	169	151	40
4179650	-57	99	71
4179978	-329	-5	61
4180306	-381	67	36
4180634	-384	80	55
4180962	-452	41	45
4181290	-465	41	36
4181618	-529	28	29
4181946	-565	68	16
4182274	-629	51	4
4182602	-622	79	6
4182930	-568	78	7
4183258	-505	46	2
4183586	-409	48	10
4183914	-306	49	18
4184242	-248	63	5
4184570	-148	-1	-5
4184898	-129	28	-2
4185226	-139	41	36
4185554	-177	5	56
4185882	-227	48	47
4186210	-237	51	71
4186538	-236	51	92
4186866	-217	70	97
4187194	-189	84	95
4187522	-135	95	115
4187850	-131	117	113
4188178	-127	117	113
4188506	-68	94	99
4188834	-11	106	94
4189162	48	48	91
4189490	122	40	77
4189818	185	39	65
4190146	184	39	63
4190474	159	76	75
4190802	125	56	71
4191130	86	68	76
4191458	45	99	85
4191786	31	86	89
4192114	23	90	88
4192442	49	77	72
4192770	81	99	61
4193098	95	100	56
4193426	115	49	34
4193754	150	71	27
4194082	154	84	27
4194410	159	89	21
4194738	154	89	18
4195066	147	62	11
4195394	132	64	-6
4195722	123	58	-15
4196050	103	47	-6
4196378	74	51	-30
4196706	67	63	-21
4197034	38	57	-34
4197362	26	61	-28
4197690	25	70	-36
4198018	42	70	-38
4198346	34	75	-30
4198674	4	73	-45
4199002	-22	85	-22
4199330	-30	95	-27
4199658	-55	101	-35
4199986	-41	91	-19
4200314	-65	104	-14
4200642	-62	96	-8
4200970	-63	100	-17
4201298	-93	84	-8
4201626	-89	107	5
4201954	-108	113	-1
4202282	-104	97	12
4202610	-151	100	13
4202938	-171	113	9
4203266	-204	111	-15
4203594	-205	108	-22
4203922	-221	134	-7
4204250	-226	123	-3
4204578	-231	136	-6
4204906	-254	149	-8
4205234	-265	160	-13
4205562	-276	163	-18
4205890	-304	177	-17
4206218	-281	166	-10
4206546	-270	165	-17
4206874	-273	158	-10
4207202	-241	162	-22
4207530	-205	156	-12
4207858	-186	149	-22
4208186	-193	168	-16
4208514	-222	159	-14
4208842	-235	156	-10
4209170	-237	175	-10
4209498	-215	165	-25
4209826	-176	170	-7
4210154	-122	152	-19
4210482	-96	149	-36
4210810	-71	139	-33
4211138	-45	126	-33
4211466	-49	130	-26
4211794	-40	117	-30
4212122	-28	116	-26
4212450	-37	121	-37
4212778	-58	74	-30
4213106	-162	-56	-27
4213434	-7	-126	-35
4213762	-20	-17	-180
4214090	-75	160	-236
4214418	75	151	-161
4214746	243	36	-43
4215074	188	143	20
4215402	154	120	42
4215730	20	47	149
4216058	111	25	199
4216386	216	128	279
4216714	347	388	452
4217042	225	228	497
4217370	89	274	542
4217698	28	189	548
4218026	71	233	612
4218354	-3	248	653
4218682	-197	230	692
4219010	-953	725	755
4219338	-813	1019	1235
4219666	-776	353	1466
4219994	-839	315	1401
4220322	-996	585	1465
4220650	-1102	913	1650
4220978	-1201	1119	1746
4221306	-1325	1383	1959
4221634	-1483	1897	2265
4221962	-1563	2305	2672
4222290	-1585	2439	3208
4222618	-1532	2619	3795
4222946	-572	2588	4512
4223274	-115	2140	5097
4223602	-29	2026	5264
4223930	7	2070	5017
4224258	85	2220	4660
4224586	-394	2250	4288
4224914	-785	2162	4095
4225242	-915	1718	3933
4225570	-590	1609	4133
4225898	-13	1497	4529
4226226	793	1344	4786
4226554	1166	1170	4511
4226882	1790	1788	4512
4227210	2565	703	4368
4227538	2459	-211	4825
4227866	2529	342	5133
4228194	1911	865	5468
4228522	594	1257	5376
4228850	-131	1586	5468
4229178	-725	1998	5456
4229506	-630	2176	5523
4229834	-391	1828	5187
4230162	-267	1827	4700
4230490	-332	2042	3960
4230818	-192	2627	2893
4231146	166	2436	1922
4231474	536	2560	700
4231802	757	3447	-929
4232130	2230	3242	-1348
4232458	2295	2703	-3505
4232786	1971	123	-4362
4233114	2464	649	-5492
4233442	1019	1756	-6049
4233770	-655	2084	-6204
4234098	-3485	745	-7244
4234426	-5901	-1663	-8230
4234754	-7752	-3875	-8135
4235082	-8388	-4674	-8616
4235410	-7540	-5519	-9129
4235738	-9168	-7579	-9757
4236066	-7348	-9088	-10212
4236394	-6123	-9794	-9792
4236722	-7185	-8183	-8944
4237050	-7845	-5065	-9929
4237378	-3373	-2585	-6723
4237706	2918	-2560	817
4238034	1892	1086	5732
4238362	-2529	2807	5058
4238690	-1903	2259	5047
4239018	-3111	2242	4836
4239346	-4527	3225	3750
4239674	-4981	1334	2144
4240002	-3856	68	728
4240330	-2961	255	-1482
4240658	-2110	-229	-2361
4240986	-474	-1514	-3033
4241314	1833	-2768	-4056
4241642	2624	-3495	-3922
4241970	3309	-3594	-3412
4242298	3504	-3013	-2202
4242626	3183	-2845	-1645
4242954	2976	-2531	-1122
4243282	3211	-2224	-737
4243610	4419	-2436	-142
4243938	4960	-2174	440
4244266	5870	-2377	2024
4244594	8404	-4833	4947
4244922	8804	3657	2927
4245250	9726	4218	9430
4245578	10725	11725	23083
4245906	-55	25446	18457
4246234	-2771	-3194	5396
4246562	-4122	-5753	-583
4246890	-1186	4912	3299
4247218	-412	8127	1921
4247546	4635	8817	4234
4247874	3112	3004	4906
4248202	-1515	3848	-778
4248530	-1276	-535	-3491
4248858	-3000	14787	-1037
4249186	576	-4135	-1420
4249514	5059	-20810	3277
4249842	5802	-4705	4598
4250170	10910	-3150	1523
4250498	9838	-4136	-4248
4250826	4519	1195	-2236
4251154	-3310	4970	-2185
4251482	-7072	3298	-6817
4251810	-7018	1333	-7274
4252138	-5090	-1648	-6784
4252466	-3047	-2998	-6459
4252794	-809	-4072	-5875
4253122	800	-3647	-5105
4253450	2631	-2877	-5789
4253778	3123	-2755	-5682
4254106	2284	-3048	-5147
4254434	836	-2848	-4845
4254762	-226	-2318	-4589
4255090	-422	-2191	-4595
4255418	961	-1572	-4149
4255746	898	-865	-3349
4256074	1119	-750	-2590
4256402	391	-486	-2556
4256730	522	25	-2365
4257058	-23	244	-2164
4257386	-707	-393	-1764
4257714	-479	-49	-1586
4258042	-874	-232	-1351
4258370	-1014	-283	-1148
4258698	-1263	-211	-1069
4259026	-1318	-45	-1124
4259354	-1354	-133	-1031
4259682	-1333	-130	-997
4260010	-1114	0	-1038
4260338	-520	180	-983
4260666	-130	24	-991
4260994	109	-92	-954
4261322	326	-95	-655
4261650	358	86	-692
4261978	460	108	-508
4262306	567	84	-437
4262634	593	-56	-331
4262962	611	-82	-241
4263290	650	-60	-122
4263618	473	-9	-119
4263946	183	-91	-80
4264274	-97	107	-18
4264602	-307	276	52
4264930	-499	196	107
4265258	-614	149	132
4265586	-700	102	198
4265914	-858	142	202
4266242	-987	158	211
4266570	-1017	211	256
4266898	-1046	350	219
4267226	-1018	344	147
4267554	-904	258	134
4267882	-792	156	164
4268210	-643	56	145
4268538	-518	-97	93
4268866	-608	-159	65
4269194	-626	-102	76
4269522	-662	-144	139
4269850	-607	-146	154
4270178	-505	-87	173
4270506	-376	-51	195
4270834	-360	-28	221
4271162	-427	18	223
4271490	-570	85	222
4271818	-633	162	215
4272146	-695	188	249
4272474	-665	209	250
4272802	-550	210	231
4273130	-392	239	198
4273458	-272	165	165
4273786	-94	121	155
4274114	-2	161	136
4274442	50	146	162
4274770	48	196	170
4275098	-16	247	170
4275426	-54	205	171
4275754	-72	280	172
4276082	-123	313	165
4276410	-210	303	154
4276738	-228	247	171
4277066	-287	232	163
4277394	-336	255	151
4277722	-315	198	146
4278050	-302	155	185
4278378	-329	185	167
4278706	-329	178	165
4279034	-313	169	166
4279362	-281	118	192
4279690	-244	116	198
4280018	-193	122	213
4280346	-182	95	210
4280674	-181	112	215
4281002	-211	129	226
4281330	-261	150	213
4281658	-342	191	209
4281986	-371	158	189
4282314	-399	180	191
4282642	-408	157	191
4282970	-380	152	216
4283298	-367	180	207
4283626	-344	126	209
4283954	-298	151	215
4284282	-268	117	222
4284610	-206	110	210
4284938	-125	109	211
4285266	-108	138	220
4285594	-146	141	197
4285922	-176	126	187
4286250	-192	129	164
4286578	-246	148	150
4286906	-275	145	118
4287234	-255	109	102
4287562	-203	59	116
4287890	-199	133	66
4288218	-176	112	51
4288546	-146	129	50
4288874	-125	129	50
4289202	-136	111	55
4289530	-119	109	44
4289858	-125	84	49
4290186	-123	100	48
4290514	-140	103	27
4290842	-172	120	16
4291170	-168	95	-3
4291498	-169	77	-10
4291826	-205	114	-15
4292154	-221	109	-12
4292482	-256	132	-19
4292810	-290	112	-30
4293138	-323	114	-26
4293466	-329	99	-27
4293794	-310	98	-30
4294122	-284	112	-6
4294450	-274	118	-12
4294778	-265	130	-4
4295106	-249	133	-4
4295434	-222	98	4
4295762	-209	92	-6
4296090	-206	64	-18
4296418	-195	58	-18
4296746	-189	48	-4
4297074	-194	66	12
4297402	-174	51	9
4297730	-176	65	4
4298058	-136	-7	22
4298386	-188	34	45
4298714	-156	77	35
4299042	-127	44	62
4299370	-97	55	67
4299698	-74	60	89
4300026	-41	76	105
4300354	-5	61	118
4300682	-8	72	130
4301010	-11	106	125
4301338	0	157	108
4301666	-1	134	82
4301994	-2	164	56
4302322	-36	143	39
4302650	-51	129	28
4302978	-107	110	17
4303306	-151	122	-2
4303634	-158	124	-11
4303962	-146	129	-8
4304290	-115	119	-12
4304618	-73	136	-25
4304946	-44	132	-32
4305274	-52	120	-21
4305602	-81	108	6
4305930	-84	124	-10
4306258	-122	150	-21
4306586	-131	147	-48
4306914	-150	153	-65
4307242	-147	158	-60
4307570	-150	148	-52
4307898	-163	119	-46
4308226	-165	136	-56
4308554	-192	140	-77
4308882	-166	113	-85
4309210	-127	105	-80
4309538	-96	108	-65
4309866	-88	117	-73
4310194	-68	106	-76
4310522	-11	103	-51
4310850	40	64	-58
4311178	57	87	-34
4311506	61	141	-25
4311834	17	137	-17
4312162	-16	121	-1
4312490	-39	136	-5
4312818	-78	146	-20
4313146	-97	164	-27
4313474	-93	143	-35
4313802	-75	146	-24
4314130	-76	153	-47
4314458	-76	155	-51
4314786	-64	144	-45
4315114	-89	147	-36
4315442	-109	137	-39
4315770	-92	138	-39
4316098	-70	139	-41
4316426	-56	153	-38
4316754	-47	153	-33
4317082	-46	150	-31
4317410	-49	148	-35
4317738	-44	132	-32
4318066	-64	138	-35
4318394	-69	150	-27
4318722	-102	142	-13
4319050	-112	134	-24
4319378	-129	146	-33
4319706	-99	158	-41
4320034	-102	146	-29
4320362	-70	152	-40
4320690	-75	153	-33
4321018	-57	114	-30
4321346	-89	153	-28
4321674	-101	161	-32
4322002	-92	137	-38
4322330	-86	156	-33
4322658	-72	163	-22
4322986	-67	141	-20
4323314	-66	155	-24
4323642	-89	149	-37
4323970	-78	154	-32
4324298	-75	146	-37
4324626	-85	135	-45
4324954	-83	144	-35
4325282	-98	126	-53
4325610	-97	133	-42
4325938	-102	136	-45
4326266	-89	137	-44
4326594	-64	127	-42
4326922	-40	127	-54
4327250	-34	147	-62
4327578	-48	140	-62
4327906	-44	123	-68
4328234	-67	124	-67
4328562	-81	117	-64
4328890	-63	101	-28
4329218	-99	154	-66
4329546	-59	161	-67
4329874	-43	133	-72
4330202	-12	136	-72
4330530	-27	143	-40
4330858	-22	139	-53
4331186	-13	124	-55
4331514	-35	132	-52
4331842	-49	129	-37
4332170	-48	131	-32
4332498	-62	138	-28
4332826	-67	129	-20
4333154	-84	158	-28
4333482	-98	149	-27
4333810	-118	139	-21
4334138	-139	148	-14
4334466	-132	150	-19
4334794	-119	157	-11
4335122	-120	159	-20
4335450	-117	135	-17
4335778	-88	132	-19
4336106	-83	142	-21
4336434	-72	139	-22
4336762	-65	136	-17
4337090	-59	149	-4
4337418	-65	156	-17
4337746	-38	144	-20
4338074	-45	136	6
4338402	-63	147	-2
4338730	-62	131	10
4339058	-60	135	-8
4339386	-56	143	5
4339714	-36	171	8
4340042	-14	150	10
4340370	-4	150	-1
4340698	-9	149	2
4341026	8	132	8
4341354	-10	149	12
4341682	-29	139	4
4342010	-44	132	-1
4342338	-66	125	0
4342666	-61	129	-3
4342994	-76	122	1
4343322	-56	112	-12
4343650	-63	120	-2
4343978	-62	133	5
4344306	-53	128	7
4344634	-63	135	3
4344962	-45	126	21
4345290	-49	141	25
4345618	-45	152	18
4345946	-47	136	25
4346274	-50	146	36
4346602	-51	125	26
4346930	-52	145	34
4347258	-51	118	35
4347586	-48	144	42
4347914	-33	141	39
4348242	-13	141	38
4348570	-22	162	41
4348898	-17	150	43
4349226	-11	154	37
4349554	-5	159	47
4349882	-2	146	30
4350210	6	154	34
4350538	13	136	34
4350866	12	124	36
4351194	-11	136	39
4351522	-28	128	46
4351850	-40	124	32
4352178	-44	135	35
4352506	-6	109	40
4352834	11	134	34
4353162	35	138	43
4353490	37	121	55
4353818	27	134	55
4354146	33	138	66
4354474	16	130	75
4354802	-14	132	86
4355130	-7	122	68
4355458	-27	99	92
4355786	-48	132	120
4356114	-70	73	125
4356442	-85	35	138
4356770	-123	183	150
4357098	-184	200	151
4357426	-214	210	150
4357754	-228	212	159
4358082	-302	266	106
4358410	-246	259	87
4358738	-14	672	59
4359066	98	281	-10
4359394	229	280	-43
4359722	257	392	-113
4360050	274	379	-166
4360378	313	427	-221
4360706	293	477	-269
4361034	283	491	-328
4361362	318	520	-383
4361690	341	521	-416
4362018	372	506	-456
4362346	412	539	-472
4362674	460	563	-487
4363002	538	595	-517
4363330	590	641	-518
4363658	586	763	-521
4363986	627	765	-561
4364314	646	786	-548
4364642	595	869	-541
4364970	526	972	-623
4365298	513	1007	-706
4365626	439	988	-751
4365954	472	886	-733
4366282	525	686	-699
4366610	597	686	-702
4366938	542	716	-731
4367266	369	730	-744
4367594	122	686	-704
4367922	-172	658	-628
4368250	-399	516	-618
4368578	-399	462	-620
4368906	-131	357	-658
4369234	294	266	-649
4369562	534	303	-541
4369890	454	262	-447
4370218	286	385	-385
4370546	16	437	-321
4370874	-166	310	-293
4371202	-140	291	-308
4371530	58	142	-284
4371858	318	43	-247
4372186	476	9	-231
4372514	384	59	-163
4372842	142	74	-100
4373170	-160	90	-44
4373498	-512	147	18
4373826	-803	75	76
4374154	-953	99	104
4374482	-917	13	139
4374810	-753	-123	174
4375138	-548	-114	211
4375466	-330	-159	252
4375794	-278	-215	289
4376122	-155	-188	372
4376450	-19	-247	395
4376778	129	-391	393
4377106	317	-142	414
4377434	433	-296	466
4377762	494	-565	514
4378090	534	-454	607
4378418	507	-563	752
4378746	431	-530	994
4379074	144	-433	1289
4379402	73	-349	1529
4379730	-182	-46	1790
4380058	-493	116	2090
4380386	-703	182	2325
4380714	-781	308	2557
4381042	-632	332	2749
4381370	-513	256	2866
4381698	-527	171	2937
4382026	-326	532	2937
4382354	-553	1063	2967
4382682	-781	1397	2878
4383010	-937	1710	2639
4383338	-703	1815	2534
4383666	-443	1784	2563
4383994	-164	1906	2487
4384322	-82	2434	2429
4384650	-347	2938	2286
4384978	-254	2905	2326
4385306	-449	3329	2406
4385634	-428	4059	2506
4385962	-752	4266	2476
4386290	-449	3672	1928
4386618	167	3070	1301
4386946	1017	2706	798
4387274	1658	2729	276
4387602	1911	2741	-355
4387930	2026	819	-1634
4388258	2444	-273	-2450
4388586	3004	-1224	-3406
4388914	3745	-1879	-4109
4389242	4484	-2542	-4813
4389570	5100	-2742	-4959
4389898	5189	-3177	-5030
4390226	5107	-3125	-4670
4390554	4610	-2772	-4025
4390882	3818	-2717	-2854
4391210	2611	-1871	-1228
4391538	1007	-661	-825
4391866	-1250	467	-1081
4392194	-3399	1391	-1847
4392522	-4601	995	-2520
4392850	-3946	-222	-2327
4393178	-2491	-952	-1816
4393506	-1115	-595	-1587
4393834	-113	-42	-1716
4394162	646	-265	-1889
4394490	1255	-994	-1888
4394818	1187	-685	-1935
4395146	926	-356	-1911
4395474	739	-442	-1840
4395802	884	-247	-1718
4396130	1002	-472	-1752
4396458	1379	-634	-1698
4396786	1609	-508	-1593
4397114	1540	-180	-1384
4397442	1135	-11	-1079
4397770	676	17	-741
4398098	40	149	-396
4398426	-556	261	-101
4398754	-943	312	114
4399082	-1079	360	242
4399410	-1006	411	310
4399738	-931	509	378
4400066	-720	644	379
4400394	-537	555	226
4400722	-314	453	37
4401050	-74	335	-122
4401378	184	234	-192
4401706	287	254	-209
4402034	284	265	-232
4402362	183	253	-226
4402690	99	254	-212
4403018	31	241	-160
4403346	-45	208	-109
4403674	-39	201	-45
4404002	-62	201	6
4404330	-87	243	44
4404658	-145	273	90
4404986	-176	286	132
4405314	-225	305	123
4405642	-205	288	106
4405970	-157	287	69
4406298	-82	225	28
4406626	12	139	-3
4406954	85	221	-50
4407282	58	223	-73
4407610	29	208	-78
4407938	-27	189	-91
4408266	-63	162	-93
4408594	-96	138	-92
4408922	-24	118	-101
4409250	27	132	-102
4409578	64	154	-100
4409906	57	169	-96
4410234	-20	239	-112
4410562	-137	302	-120
4410890	-313	328	-147
4411218	-398	336	-216
4411546	-406	307	-276
4411874	-365	312	-288
4412202	-271	340	-244
4412530	-392	291	-259
4412858	-545	342	-274
4413186	-743	356	-247
4413514	-1002	386	-250
4413842	-1219	365	-261
4414170	-943	371	-318
4414498	-509	203	-285
4414826	-534	177	-240
4415154	-390	313	-185
4415482	-407	309	-204
4415810	-242	251	-203
4416138	-108	214	-189
4416466	1	214	-229
4416794	84	200	-296
4417122	433	178	-372
4417450	654	193	-454
4417778	888	248	-483
4418106	1130	258	-486
4418434	1230	222	-511
4418762	1342	183	-449
4419090	1271	188	-452
4419418	1292	211	-372
4419746	1136	11	-251
4420074	1023	215	-174
4420402	691	247	-96
4420730	302	334	-23
4421058	-104	325	47
4421386	-380	312	107
4421714	-640	308	190
4422042	-1012	343	260
4422370	-1200	385	312
4422698	-1499	356	346
4423026	-1651	255	404
4423354	-1638	190	426
4423682	-1520	138	446
4424010	-1432	194	413
4424338	-1198	178	419
4424666	-1039	138	454
4424994	-944	162	471
4425322	-836	123	499
4425650	-829	30	528
4425978	-766	-51	549
4426306	-609	-62	589
4426634	-443	-124	646
4426962	-332	-137	697
4427290	-311	-131	752
4427618	-351	-123	816
4427946	-379	-191	851
4428274	-379	-207	902
4428602	-297	-316	966
4428930	-137	-375	974
4429258	48	-403	1024
4429586	202	-444	1011
4429914	198	-453	1053
4430242	58	-476	1115
4430570	-134	-465	1147
4430898	-269	-508	1184
4431226	-265	-599	1230
4431554	-195	-660	1290
4431882	-85	-743	1332
4432210	7	-798	1374
4432538	41	-842	1397
4432866	-23	-918	1436
4433194	-73	-987	1481
4433522	-124	-1037	1522
4433850	-114	-1129	1561
4434178	-76	-1198	1633
4434506	-136	-1263	1674
4434834	-103	-1280	1725
4435162	-113	-1324	1787
4435490	-187	-1275	1827
4435818	-330	-1374	1856
4436146	-499	-1505	1853
4436474	-657	-1725	1849
4436802	-886	-1453	1880
4437130	-1306	-1101	1925
4437458	-1580	-1177	1953
4437786	-1978	-1043	2148
4438114	-2224	-498	2573
4438442	-2509	-389	2922
4438770	-3307	-263	3376
4439098	-4259	270	3946
4439426	-5506	936	4532
4439754	-6655	1720	5141
4440082	-7719	2740	5885
4440410	-8891	3846	6330
4440738	-10128	4887	6625
4441066	-11121	5438	6801
4441394	-11918	5113	6621
4441722	-11918	4712	6068
4442050	-11015	4112	5778
4442378	-9169	3659	5180
4442706	-6725	2719	4534
4443034	-3580	1192	4199
4443362	-731	-1442	3208
4443690	2214	-3263	2412
4444018	3581	-3768	1584
4444346	4144	-5581	491
4444674	3957	-6068	234
4445002	2921	-5037	37
4445330	345	-5191	-505
4445658	-2124	-5771	-1051
4445986	-4111	-6496	-1605
4446314	-4295	-7164	-1930
4446642	-3613	-6889	-3096
4446970	-2657	-7503	-3587
4447298	-919	-7308	-4061
4447626	437	-7641	-4385
4447954	1952	-7909	-4576
4448282	2674	-7407	-4897
4448610	3368	-6943	-5048
4448938	4023	-6503	-4772
4449266	4497	-6687	-4440
4449594	5874	-6212	-2588
4449922	6843	-4974	-180
4450250	8278	-4792	2708
4450578	8418	-1153	3013
4450906	7003	3621	1765
4451234	5600	4259	293
4451562	1197	2876	-1352
4451890	-4874	3534	-500
4452218	-8060	5562	1079
4452546	-8818	6775	1520
4452874	-8602	5858	383
4453202	-6875	3901	462
4453530	-5296	4718	1125
4453858	-4139	5230	1110
4454186	-3112	3219	935
4454514	-2578	1946	338
4454842	-1562	990	273
4455170	-207	-159	488
4455498	2098	-1188	263
4455826	4322	-1656	140
4456154	4177	-87	-54
4456482	6040	2011	802
4456810	3570	1965	780
4457138	1066	2061	478
4457466	-1919	1762	84
4457794	-3301	1095	-315
4458122	-2709	873	-561
4458450	-1141	481	-761
4458778	-98	-176	-909
4459106	1022	-699	-771
4459434	978	-129	-740
4459762	567	-265	-784
4460090	223	-237	-740
4460418	-35	-282	-742
4460746	-109	-227	-700
4461074	-233	-269	-886
4461402	-69	-321	-908
4461730	-22	-357	-989
4462058	-35	-414	-1007
4462386	-288	-558	-986
4462714	-430	-605	-971
4463042	-512	-458	-931
4463370	-461	-371	-862
4463698	-386	-455	-778
4464026	-313	-572	-753
4464354	-86	-732	-635
4464682	-26	-946	-512
4465010	96	-1207	-402
4465338	330	-1168	-285
4465666	208	-905	-208
4465994	764	-812	31
4466322	836	-580	343
4466650	844	-295	709
4466978	496	40	936
4467306	508	84	1233
4467634	661	233	1523
4467962	1339	119	1951
4468290	2167	61	2416
4468618	3290	-331	2822
4468946	4573	-1154	3037
4469274	5980	-1714	3284
4469602	7099	-2146	3588
4469930	8008	-2466	4063
4470258	8307	-3215	4199
4470586	8634	-3708	4239
4470914	9345	-4554	4017
4471242	10633	-5568	3646
4471570	12277	-6240	3206
4471898	13834	-7202	2714
4472226	15275	-7934	2273
4472554	16216	-8320	1780
4472882	16985	-8618	1373
4473210	17251	-8422	1155
4473538	16992	-8034	924
4473866	16624	-7192	608
4474194	16318	-5449	53
4474522	15271	-4202	-567
4474850	12994	-3004	-1235
4475178	10749	-1024	-1657
4475506	7529	368	-2374
4475834	5696	1711	-2696
4476162	2182	2520	-3054
4476490	-66	2093	-2968
4476818	-1044	1989	-3234
4477146	-1044	2248	-2746
4477474	365	1806	-1888
4477802	2439	-1102	-615
4478130	6762	-3215	237
4478458	10724	-665	577
4478786	12103	1008	1014
4479114	9723	1274	875
4479442	4933	3192	709
4479770	114	1834	673
4480098	-1913	112	-767
4480426	1656	55	-736
4480754	4300	-398	180
4481082	5985	602	718
4481410	6477	1418	1059
4481738	5372	834	745
4482066	4725	-94	505
4482394	4291	-220	321
4482722	4574	-77	442
4483050	5381	-382	552
4483378	6371	-1133	511
4483706	6571	-1286	786
4484034	6593	-322	950
4484362	6119	-336	1092
4484690	5122	-178	1022
4485018	4114	-147	753
4485346	3040	-115	582
4485674	2041	170	466
4486002	1219	232	512
4486330	585	540	327
4486658	160	500	271
4486986	-78	373	421
4487314	-410	142	433
4487642	-611	107	440
4487970	-794	106	525
4488298	-2826	-1759	1458
4488626	217	601	-283
4488954	-494	2470	750
4489282	-592	1416	238
4489610	-981	-991	857
4489938	-530	-790	956
4490266	-57	-38	1208
4490594	-24	51	1236
4490922	-563	14	1176
4491250	-1105	339	1111
4491578	-1628	575	902
4491906	-1806	507	801
4492234	-1904	522	685
4492562	-2048	580	615
4492890	-2212	93	644
4493218	-2273	293	881
4493546	-2247	-118	878
4493874	-1999	-219	886
4494202	-1987	-629	989
4494530	-2043	-1451	872
4494858	-2544	-1613	869
4495186	-3214	-1263	863
4495514	-3257	-337	889
4495842	-3711	-1180	1703
4496170	-3234	-1584	2366
4496498	-2527	-1656	3003
4496826	-1723	-2015	4066
4497154	-1164	-2126	4901
4497482	-986	-1998	5602
4497810	-1188	-1868	6460
4498138	-1884	-2105	7160
4498466	-1948	-2834	8015
4498794	-1329	-1853	9420
4499122	1406	-1432	8991
4499450	-1808	-1830	7529
4499778	4209	-1	10090
4500106	2287	-2249	9710
4500434	3552	-1975	8465
4500762	5622	2168	6341
4501090	6090	-857	2108
4501418	7111	-6296	-1368
4501746	9286	-4050	-3576
4502074	11874	867	-5436
4502402	9447	403	-7415
4502730	5500	-3340	-10330
4503058	1868	-2797	-12365
4503386	-812	-2913	-14181
4503714	-376	-2339	-15813
4504042	-1180	-4445	-16578
4504370	-987	-5893	-17173
4504698	2370	-5608	-16888
4505026	4329	-3245	-17693
4505354	5035	-5067	-17659
4505682	6066	-7525	-17790
4506010	7491	-8596	-17341
4506338	8679	-9870	-17636
4506666	9420	-12328	-18486
4506994	10614	-13196	-18502
4507322	10201	-14209	-18075
4507650	9103	-15239	-18086
4507978	8777	-15488	-18412
4508306	8481	-15909	-18418
4508634	8305	-15917	-17565
4508962	8456	-14615	-16044
4509290	8809	-13901	-14657
4509618	9987	-13764	-12962
4509946	11524	-12366	-11189
4510274	12558	-11083	-8689
4510602	13304	-9900	-6031
4510930	13619	-7327	-2886
4511258	13809	-3844	-16
4511586	13559	-1041	3838
4511914	12222	2513	6342
4512242	10345	5954	8583
4512570	8635	10405	9562
4512898	9090	9061	6823
4513226	4393	5239	5024
4513554	753	5303	4996
4513882	1580	3263	5932
4514210	1963	4223	6205
4514538	1430	4324	5411
4514866	1774	2303	3657
4515194	2172	1835	2581
4515522	1826	3974	2808
4515850	1877	3489	2874
4516178	652	3359	2500
4516506	-187	3102	1818
4516834	-419	2446	1730
4517162	433	2076	2104
4517490	711	1561	2359
4517818	1104	1560	2320
4518146	760	1572	2127
4518474	692	1796	2057
4518802	1098	1840	2158
4519130	633	1627	2219
4519458	1117	1891	2258
4519786	1026	1354	2269
4520114	-183	-1560	2378
4520442	2081	901	2664
4520770	1359	659	2036
4521098	1487	695	1655
4521426	1044	1350	1502
4521754	1163	1235	1021
4522082	-169	1021	724
4522410	-1091	508	587
4522738	-1666	602	596
4523066	-1858	897	619
4523394	-1744	441	588
4523722	-1055	610	575
4524050	366	992	598
4524378	398	1168	308
4524706	551	589	340
4525034	635	11	268
4525362	601	-643	252
4525690	305	-676	206
4526018	984	-1059	224
4526346	1550	-1627	370
4526674	2056	-1937	469
4527002	2478	-2339	417
4527330	2752	-2638	362
4527658	2711	-2233	346
4527986	2005	-1925	358
4528314	1609	-1504	255
4528642	57	-1187	247
4528970	-985	-1459	155
4529298	-1867	-1542	-127
4529626	-2394	-1426	-424
4529954	-2593	-1279	-744
4530282	-2493	-981	-1020
4530610	-1839	-1144	-1251
4530938	-899	-1881	-1383
4531266	-404	-2336	-1675
4531594	-177	-2943	-2309
4531922	-307	-4165	-3894
4532250	-911	-4137	-4742
4532578	-2359	-4170	-5553
4532906	-3715	-4928	-6622
4533234	-5338	-5360	-7865
4533562	-7045	-6232	-8761
4533890	-8955	-7690	-10010
4534218	-10766	-8070	-10615
4534546	-12106	-6393	-11936
4534874	-14110	-5364	-12381
4535202	-16593	-2543	-12249
4535530	-19714	1144	-12019
4535858	-22467	-810	-9524
4536186	-23400	-473	-5220
4536514	-18444	3244	1517
4536842	-15033	-943	4890
4537170	-8944	-2667	10472
4537498	-4786	-2338	14404
4537826	-3728	262	17419
4538154	-5293	3577	18239
4538482	-5238	7157	18997
4538810	-4039	9486	19203
4539138	-3779	8092	18354
4539466	-3212	6692	16754
4539794	-5267	6604	14275
4540122	-6525	8334	13059
4540450	-8072	10564	11793
4540778	-10131	12471	11069
4541106	-12155	14193	10806
4541434	-14788	17344	10608
4541762	-21207	17326	9618
4542090	-23500	14776	9178
4542418	-25321	12522	8107
4542746	-25888	10956	7333
4543074	-26197	10945	6984
4543402	-26372	11520	6719
4543730	-27045	10992	6819
4544058	-27199	10853	6544
4544386	-26998	11061	6798
4544714	-26316	11183	7127
4545042	-25255	10154	6822
4545370	-24133	8514	6397
4545698	-22109	9321	6013
4546026	-20245	8171	5872
4546354	-19297	7310	5793
4546682	-19137	7751	5409
4547010	-19369	8869	5542
4547338	-19841	9738	5191
4547666	-19788	10262	4079
4547994	-20076	10035	3788
4548322	-19974	9747	3037
4548650	-19999	9748	2674
4548978	-19070	9688	2762
4549306	-18678	9727	2817
4549634	-18643	10882	2734
4549962	-18269	11265	2930
4550290	-17888	11087	2795
4550618	-17487	11491	2375
4550946	-16393	11781	1495
4551274	-16753	12076	144
4551602	-15846	10381	-1551
4551930	-15169	6925	-4124
4552258	-14679	4950	-6999
4552586	-13032	1270	-8659
4552914	-2798	-3690	-5256
4553242	3470	30	-867
4553570	6280	5497	610
4553898	3733	8179	1818
4554226	2698	6822	1883
4554554	1093	477	1147
4554882	-382	-850	397
4555210	1547	4346	383
4555538	1222	6780	1215
4555866	-1517	5423	1286
4556194	-3868	2845	803
4556522	-3734	1914	713
4556850	-2740	2740	845
4557178	-1904	3571	701
4557506	-1526	2732	487
4557834	-550	2548	811
4558162	-321	2166	1381
4558490	766	1977	1037
4558818	731	2311	1162
4559146	648	1887	1243
4559474	708	2161	1115
4559802	663	2147	1026
4560130	512	1709	938
4560458	109	1493	985
4560786	97	1415	1033
4561114	-102	986	1316
4561442	-17	259	1372
4561770	531	-191	1407
4562098	846	-437	1336
4562426	593	-546	1213
4562754	436	-480	1130
4563082	210	-452	1067
4563410	-255	-325	881
4563738	-827	-459	520
4564066	-1054	-947	321
4564394	-869	-778	208
4564722	-692	-971	167
4565050	-540	-1197	150
4565378	-481	-1398	132
4565706	-359	-1788	95
4566034	-176	-2103	74
4566362	-219	-2004	76
4566690	-82	-1754	-3
4567018	276	-1983	-110
4567346	431	-2029	-153
4567674	381	-2118	-309
4568002	325	-2433	-560
4568330	130	-2797	-707
4568658	-92	-3311	-883
4568986	-243	-3296	-1107
4569314	-519	-3364	-1313
4569642	-813	-3422	-1550
4569970	-1057	-3370	-1783
4570298	-993	-3798	-2142
4570626	168	-4365	-2283
4570954	762	-4726	-2273
4571282	-257	-4247	-2602
4571610	-1667	-3757	-3023
4571938	-3149	-3855	-3439
4572266	-4586	-4198	-3985
4572594	-5375	-4613	-4524
4572922	-5787	-4762	-4534
4573250	-5597	-4186	-4090
4573578	-6010	-3181	-4254
4573906	-6368	-2255	-4741
4574234	-7282	-1050	-4254
4574562	-9425	1001	-3913
4574890	-14553	4631	-2784
4575218	-15258	11461	-2462
4575546	-17024	12493	-745
4575874	-18568	10662	1211
4576202	-18516	10894	3458
4576530	-16936	11671	4906
4576858	-14862	11026	5962
4577186	-12258	11036	6366
4577514	-10275	11613	6410
4577842	-8521	12482	6047
4578170	-7196	12757	5326
4578498	-7041	11222	4676
4578826	-6470	11292	4637
4579154	-6409	9539	3370
4579482	-5923	9232	3428
4579810	-5744	8925	3269
4580138	-5705	7932	2709
4580466	-5086	7274	2089
4580794	-4329	6461	1316
4581122	-4243	5220	535
4581450	-3704	4511	-166
4581778	-3201	4214	-761
4582106	-2797	3979	-1160
4582434	-2570	3971	-1355
4582762	-2577	4256	-1437
4583090	-2917	4423	-1446
4583418	-3500	4141	-1722
4583746	-3835	3865	-1524
4584074	-3953	3259	-1529
4584402	-3857	2633	-1442
4584730	-3578	1964	-1320
4585058	-3320	1769	-1222
4585386	-2617	1267	-954
4585714	-1906	1031	-568
4586042	-1717	1192	-239
4586370	-1772	1178	28
4586698	-1588	1138	443
4587026	-1266	1070	737
4587354	-1207	830	928
4587682	-857	587	1221
4588010	-364	383	1310
4588338	233	120	1337
4588666	651	3	1296
4588994	995	29	1191
4589322	1476	-262	1199
4589650	1670	-370	1227
4589978	1640	-238	1235
4590306	1501	69	1270
4590634	1426	147	1435
4590962	576	627	1518
4591290	249	1085	1749
4591618	-276	1150	1975
4591946	-345	890	2350
4592274	-282	694	2803
4592602	-261	312	3003
4592930	-435	399	3122
4593258	-26	-123	3141
4593586	669	-758	3109
4593914	1364	-460	3053
4594242	2122	-687	3071
4594570	2364	-710	2988
4594898	2558	-416	3045
4595226	1108	1615	3088
4595554	1396	5358	3523
4595882	2224	1453	4357
4596210	690	-4481	4786
4596538	1675	-836	3784
4596866	2107	-335	3297
4597194	3206	-2104	3369
4597522	3604	493	2877
4597850	3560	2733	3172
4598178	2708	988	3405
4598506	2533	-164	3389
4598834	3981	-504	3589
4599162	5188	-637	3607
4599490	5995	-547	3537
4599818	5339	-529	3396
4600146	4067	-383	3452
4600474	2379	6	3383
4600802	1181	71	3178
4601130	1361	-300	3699
4601458	1065	609	2952
4601786	583	321	3093
4602114	713	50	3085
4602442	172	710	3217
4602770	-680	1481	3191
4603098	-1476	1893	3130
4603426	-2101	1815	3039
4603754	-1938	1372	3160
4604082	-1605	1292	2928
4604410	-1367	1212	2977
4604738	-1419	1302	2907
4605066	-1760	1431	2705
4605394	-2362	2003	2573
4605722	-979	1123	3354
4606050	-3206	4183	1692
4606378	-3995	3366	1692
4606706	-4846	2250	1711
4607034	-5320	2903	1664
4607362	-5773	3534	1591
4607690	-6230	3094	1802
4608018	-6722	1599	1567
4608346	-7028	907	1909
4608674	-7398	1346	2081
4609002	-7740	1540	2571
4609330	-8746	728	2532
4609658	-10257	-831	2656
4609986	-11167	-1559	2342
4610314	-11230	-2743	3175
4610642	-10100	-6284	3917
4610970	-7457	-6446	4600
4611298	-2765	-5753	4579
4611626	-70	-2342	5015
4611954	-179	1473	6471
4612282	-2890	3007	5879
4612610	-6374	724	5569
4612938	-4973	-1145	4736
4613266	-3474	-974	3429
4613594	-1871	-1669	2231
4613922	212	-1461	-378
4614250	251	-2001	-4023
4614578	1692	-2938	-6821
4614906	3810	-2389	-9086
4615234	4436	-1359	-9560
4615562	1453	-481	-10099
4615890	-2894	-516	-10970
4616218	-6312	-112	-11262
4616546	-7551	1467	-10109
4616874	-5950	2937	-8830
4617202	-4491	4658	-8559
4617530	-6979	2987	-7260
4617858	-7632	2444	-5301
4618186	-9677	905	-2960
4618514	-7239	2579	-233
4618842	-6478	3019	1660
4619170	-6446	659	1664
4619498	-5216	-1667	35
4619826	-2697	-4873	-3280
4620154	-145	-5593	-2416
4620482	2711	-2078	-453
4620810	5311	-643	503
4621138	5279	-2426	274
4621466	4271	-4431	24
4621794	3847	-3513	175
4622122	5124	-919	-258
4622450	6450	-2031	313
4622778	6205	-1817	1294
4623106	5329	-918	1875
4623434	4042	-1175	2023
4623762	3238	-507	2255
4624090	2863	-108	2448
4624418	3269	-310	2727
4624746	3430	-472	3045
4625074	4373	-654	3386
4625402	5132	-1132	3525
4625730	5895	-1340	3600
4626058	6655	-1625	3808
4626386	7213	-2294	3883
4626714	7749	-2613	3929
4627042	8141	-3138	3851
4627370	8389	-3369	3857
4627698	8591	-3717	3730
4628026	8685	-4425	3467
4628354	8736	-4692	3067
4628682	8874	-5234	2555
4629010	9030	-5732	2068
4629338	9336	-6254	1348
4629666	9363	-7369	276
4629994	9689	-8345	-912
4630322	10245	-9152	-1764
4630650	10793	-9467	-2084
4630978	10718	-9049	-1656
4631306	10889	-8666	-1116
4631634	11234	-8583	-563
4631962	11556	-8193	-305
4632290	12982	-7410	256
4632618	13690	-6839	-7
4632946	13053	-5984	-1129
4633274	10148	-5621	-2427
4633602	7578	-4247	-3064
4633930	4566	-1918	-3118
4634258	1772	-967	-3012
4634586	-12	-189	-3354
4634914	-1507	-263	-3738
4635242	-1313	-520	-3765
4635570	-268	-743	-3394
4635898	2075	-2009	-2779
4636226	2042	-3046	-2154
4636554	3453	-2468	-693
4636882	4665	-1527	38
4637210	5907	-2676	178
4637538	6251	-185	1387
4637866	5385	2114	1834
4638194	1267	-102	859
4638522	-2783	-58	4
4638850	-1986	-1167	-1185
4639178	-91	-2071	-827
4639506	1636	-1711	-313
4639834	2150	-1393	-131
4640162	1819	-1742	-229
4640490	1347	-1625	-342
4640818	1162	-1574	-542
4641146	1029	-1830	-577
4641474	1112	-2477	-263
4641802	1561	-2637	-128
4642130	1424	-2660	-3
4642458	914	-2257	15
4642786	1028	-1986	89
4643114	342	-1688	50
4643442	307	-1449	44
4643770	-235	-1873	484
4644098	-585	-2392	642
4644426	-662	-2972	832
4644754	-581	-3160	981
4645082	-338	-3367	827
4645410	-226	-3674	674
4645738	202	-4016	416
4646066	424	-4685	193
4646394	399	-5006	-171
4646722	400	-4955	-436
4647050	790	-4833	-629
4647378	1057	-4910	-713
4647706	1650	-4989	-708
4648034	2760	-5161	-913
4648362	4420	-5270	-1022
4648690	6407	-5915	-1099
4649018	8866	-6963	-1178
4649346	9790	-4907	-1243
4649674	8522	-2206	-785
4650002	4679	-2332	-561
4650330	1083	-1664	-1092
4650658	-1791	-1057	-1134
4650986	-2432	-323	-795
4651314	-3105	7	-528
4651642	-3626	-21	-176
4651970	-2866	-2	-417
4652298	-2368	-60	-1
4652626	-2402	-162	-48
4652954	-2617	-592	-218
4653282	-2495	-1155	-612
4653610	-1379	-1776	-710
4653938	-143	-2206	-570
4654266	1121	-2078	-83
4654594	1989	-1292	498
4654922	1378	-1154	926
4655250	350	-1148	1289
4655578	-708	-1333	1559
4655906	-1843	-1996	1831
4656234	-1749	-1562	1654
4656562	-983	-1152	1844
4656890	-540	-1559	2187
4657218	-412	-2360	2586
4657546	-44	-2773	3077
4657874	282	-2496	3737
4658202	515	-2468	4822
4658530	558	-2460	5936
4658858	677	-2448	6880
4659186	1109	-2586	7898
4659514	1258	-2256	9225
4659842	1801	-1851	10213
4660170	1599	-1111	10903
4660498	3572	-571	11250
4660826	3165	-3336	10680
4661154	1815	-8457	11650
4661482	6426	-9735	10665
4661810	9071	-5048	8439
4662138	11643	-2404	8437
4662466	14229	-2759	8085
4662794	16698	-2020	7755
4663122	13682	-994	5895
4663450	10940	1113	2602
4663778	10586	-1925	-756
4664106	10737	-3413	-3126
4664434	10397	-657	-4742
4664762	9928	1637	-6974
4665090	8533	1859	-9205
4665418	6084	-286	-10713
4665746	2625	-1605	-12922
4666074	1592	-2198	-14387
4666402	-1379	-2135	-16071
4666730	-4313	-5237	-18062
4667058	-3358	-6723	-19738
4667386	-2026	-7700	-21255
4667714	765	-7951	-21856
4668042	3542	-9191	-22578
4668370	6855	-10910	-24659
4668698	9408	-12075	-24229
4669026	11491	-13358	-25442
4669354	13394	-14600	-26086
4669682	14499	-14930	-25508
4670010	12822	-15330	-25455
4670338	10346	-17144	-24621
4670666	7619	-17269	-21860
4670994	6435	-15042	-19156
4671322	6522	-14048	-16125
4671650	7787	-12921	-12884
4671978	9812	-9947	-9432
4672306	9515	-8961	-7283
4672634	9238	-7399	-5023
4672962	9616	-4490	-2752
4673290	11073	-2500	251
4673618	11149	1064	2917
4673946	11604	2629	6059
4674274	11246	6694	9343
4674602	5114	10530	8968
4674930	3416	7815	5051
4675258	1038	6061	2880
4675586	-771	5747	3986
4675914	595	4969	6405
4676242	309	4061	6725
4676570	1005	2864	5365
4676898	2388	1503	4134
4677226	3153	837	4056
4677554	3778	446	3999
4677882	2674	955	2752
4678210	1067	1541	2001
4678538	147	2258	1709
4678866	-313	1723	1767
4679194	108	950	987
4679522	105	630	1498
4679850	329	-243	1545
4680178	689	-648	1672
4680506	486	162	1909
4680834	-182	1402	1974
4681162	-1396	2063	2240
4681490	-2106	2145	2276
4681818	-2364	2700	2394
4682146	-2410	2941	2307
4682474	-2781	3185	2242
4682802	-3185	3750	2311
4683130	-4012	4639	2230
4683458	-4769	5440	2155
4683786	-5682	5630	1847
4684114	-6516	6939	1526
4684442	-7365	7595	1177
4684770	-8050	8299	1066
4685098	-8791	8745	1006
4685426	-9282	9513	1177
4685754	-9503	10122	1335
4686082	-9333	10301	1466
4686410	-8653	10159	1651
4686738	-7499	10070	2218
4687066	-6174	9289	2857
4687394	-4518	7945	3313
4687722	-3066	6513	3375
4688050	-1538	4710	2997
4688378	-235	2805	2041
4688706	336	139	969
4689034	1700	-2153	1038
4689362	2529	-2017	1788
4689690	3331	495	2660
4690018	3276	7510	2040
4690346	5619	12757	430
4690674	2901	-6256	856
4691002	2902	-5331	2275
4691330	1337	3290	3019
4691658	-3808	7034	2959
4691986	-5719	-226	595
4692314	-3716	203	524
4692642	-2197	1520	1192
4692970	-827	1970	1808
4693298	-943	2690	1931
4693626	-1297	3122	1802
4693954	-1299	2668	1754
4694282	-1972	1588	1780
4694610	-1905	932	1900
4694938	-1773	828	1981
4695266	-1163	1245	2056
4695594	-753	836	2024
4695922	-492	1016	1942
4696250	-386	1180	2047
4696578	-286	1133	2193
4696906	-280	1102	2448
4697234	-681	1146	2671
4697562	-1337	1262	2820
4697890	-2054	1227	2720
4698218	-2479	1400	2594
4698546	-2712	1637	2475
4698874	-2653	1886	2409
4699202	-2616	2006	2377
4699530	-2492	1877	2380
4699858	-2652	2027	2389
4700186	-3183	2352	2386
4700514	-3448	2507	2339
4700842	-3072	2158	2137
4701170	-3118	2155	2030
4701498	-3114	1678	1880
4701826	-3147	1474	1915
4702154	-3509	1422	2185
4702482	-3776	1038	2399
4702810	-3990	815	2580
4703138	-4217	911	2730
4703466	-4390	966	2705
4703794	-4469	1287	2638
4704122	-4439	1511	2429
4704450	-4101	1025	2342
4704778	-3497	396	2300
4705106	-2941	-67	2178
4705434	-2444	-391	1879
4705762	-1392	-1587	1478
4706090	98	-3117	1227
4706418	1308	-2785	762
4706746	1417	-1858	513
4707074	884	-1483	349
4707402	-662	-973	252
4707730	-2708	-347	85
4708058	-4929	-257	-298
4708386	-6800	-797	-148
4708714	-7219	-1452	-173
4709042	-6714	-1669	195
4709370	-4607	-1945	406
4709698	-2846	-2021	518
4710026	-1536	-2136	182
4710354	781	-2695	670
4710682	2228	-2637	851
4711010	3281	-2303	1191
4711338	3352	-1703	1660
4711666	2463	-1136	2124
4711994	589	-734	2568
4712322	-1081	-359	3130
4712650	-2135	-125	3813
4712978	-2781	239	4735
4713306	-2636	122	5963
4713634	-1782	27	7095
4713962	-818	3	8504
4714290	45	77	10192
4714618	-111	29	11635
4714946	2239	1843	12984
4715274	850	746	11368
4715602	-347	-379	13506
4715930	745	-3658	13300
4716258	3076	-3024	12203
4716586	2832	364	11486
4716914	4676	1918	11808
4717242	6348	3139	11192
4717570	6169	4829	9908
4717898	6940	2750	7425
4718226	6330	2204	2852
4718554	5065	4353	-234
4718882	3670	1908	-3831
4719210	4149	351	-6493
4719538	3093	3188	-9366
4719866	1883	2842	-11171
4720194	1898	1589	-11311
4720522	3781	2147	-14028
4720850	3404	582	-16869
4721178	3374	-544	-18169
4721506	2931	-1435	-19450
4721834	3238	-1772	-20629
4722162	3744	-2640	-21438
4722490	3831	-3853	-21722
4722818	3530	-4180	-22102
4723146	2926	-6338	-22274
4723474	2933	-8856	-22003
4723802	3428	-10554	-21840
4724130	3709	-12035	-21504
4724458	3528	-13188	-21497
4724786	3141	-14474	-21950
4725114	3045	-15427	-22337
4725442	3394	-15488	-22883
4725770	4422	-14940	-24357
4726098	5401	-14258	-25265
4726426	6409	-13656	-24683
4726754	7555	-13359	-21831
4727082	9908	-12979	-18808
4727410	11329	-12126	-16090
4727738	12078	-10108	-11846
4728066	13466	-8105	-8017
4728394	14852	-9512	-5059
4728722	13376	-9784	-2420
4729050	7005	3174	1239
4729378	7213	17344	6232
4729706	3439	23988	11698
4730034	8118	19374	11210
4730362	4270	-4981	11552
4730690	-1100	-5935	9843
4731018	5626	9251	8999
4731346	3539	6549	6974
4731674	4541	361	6493
4732002	3428	6342	7170
4732330	2749	11010	7367
4732658	4347	7449	7172
4732986	2874	737	5378
4733314	2263	2226	4604
4733642	2609	1666	4177
4733970	2662	1267	3911
4734298	2420	1725	3579
4734626	2615	1060	2981
4734954	2596	1327	2402
4735282	1650	1343	2109
4735610	576	1066	1946
4735938	-171	1020	1996
4736266	-412	491	1949
4736594	-181	132	1749
4736922	166	620	1644
4737250	553	796	1392
4737578	79	1013	1286
4737906	-88	756	1333
4738234	337	192	1332
4738562	882	222	1227
4738890	-438	155	638
4739218	2112	333	1205
4739546	962	-199	679
4739874	1340	316	713
4740202	856	234	579
4740530	655	115	388
4740858	425	-191	59
4741186	316	-505	-178
4741514	250	-944	208
4741842	436	-1035	-465
4742170	833	-835	-533
4742498	403	-1110	-401
4742826	14	-1567	-628
4743154	-223	-1577	-884
4743482	-213	-1097	-1054
4743810	-181	-848	-1209
4744138	-285	-823	-1329
4744466	-652	-676	-1434
4744794	-1160	-795	-1614
4745122	-1315	-755	-1577
4745450	-1574	-872	-1527
4745778	-1774	-1054	-1419
4746106	-1777	-1371	-1241
4746434	-1533	-1227	-1110
4746762	-81	-1442	-641
4747090	1178	-1848	-298
4747418	2467	-2132	251
4747746	3391	-2667	888
4748074	4038	-3517	1514
4748402	4257	-3673	1921
4748730	4972	-3840	2215
4749058	6419	-4351	2668
4749386	8146	-5389	3095
4749714	9579	-6644	3246
4750042	11251	-7790	3455
4750370	13243	-9546	3593
4750698	15668	-12538	4053
4751026	18083	-14782	4362
4751354	20764	-15234	3871
4751682	23686	-13855	4077
4752010	25275	-14091	3985
4752338	25794	-15314	3954
4752666	25823	-14619	3803
4752994	24571	-14043	3889
4753322	23078	-14148	3482
4753650	21644	-15008	2324
4753978	20638	-14128	1160
4754306	20082	-13290	299
4754634	20597	-12617	-185
4754962	20378	-11768	-830
4755290	20106	-10838	-754
4755618	19500	-10017	-535
4755946	18832	-8666	-410
4756274	18697	-7363	-739
4756602	17621	-6233	-2014
4756930	16136	-5150	-2538
4757258	13614	-3569	-2820
4757586	11723	-1781	-2791
4757914	9244	-810	-2989
4758242	7586	-490	-3343
4758570	6739	-36	-3662
4758898	6024	1182	-3589
4759226	4707	1883	-3406
4759554	2890	1749	-2810
4759882	2750	-917	-1775
4760210	4034	-3061	-723
4760538	7675	-5076	60
4760866	12784	-1818	733
4761194	14676	646	1777
4761522	11750	171	1652
4761850	8430	-1056	720
4762178	4708	471	-228
4762506	820	-246	-541
4762834	1499	-860	-785
4763162	1459	-429	-437
4763490	2506	-765	-153
4763818	3408	-333	-29
4764146	3968	-445	49
4764474	4323	-567	159
4764802	4275	194	404
4765130	3059	409	497
4765458	1585	184	262
4765786	313	167	296
4766114	-478	458	220
4766442	-238	-73	399
4766770	691	-723	603
4767098	1751	-993	930
4767426	2406	-1461	1290
4767754	2258	-1251	1436
4768082	1527	-975	1452
4768410	784	-1136	1363
4768738	28	-1516	1381
4769066	-92	-1831	1575
4769394	235	-2340	1726
4769722	1052	-2681	1922
4770050	1720	-3384	2218
4770378	2263	-4372	2614
4770706	3181	-5102	2634
4771034	4620	-5913	2678
4771362	5511	-5968	2847
4771690	5736	-5641	2931
4772018	5367	-5471	2792
4772346	4590	-5126	2495
4772674	3716	-4653	2280
4773002	2550	-4464	1733
4773330	1208	-4284	1999
4773658	628	-5115	217
4773986	912	-3339	330
4774314	702	-3110	-242
4774642	488	-3364	-599
4774970	203	-4166	-757
4775298	183	-4743	-870
4775626	23	-4923	-1004
4775954	-463	-4711	-837
4776282	-896	-5218	-746
4776610	-666	-5760	16
4776938	313	-6678	792
4777266	1591	-7445	1951
4777594	2366	-8904	2543
4777922	3398	-10080	3633
4778250	5503	-10454	4100
4778578	6909	-10818	4397
4778906	7573	-11455	4606
4779234	7671	-11810	4512
4779562	7942	-12518	4896
4779890	7330	-11712	4555
4780218	6474	-10795	4635
4780546	2513	-7249	4439
4780874	1899	-3594	4906
4781202	5603	-6918	6459
4781530	8429	-6889	6948
4781858	10715	-1152	6850
4782186	12438	-740	6658
4782514	12520	-964	4247
4782842	15504	-3121	1363
4783170	17357	357	-1307
4783498	15937	425	-2748
4783826	11818	-1061	-6315
4784154	8032	-1419	-8200
4784482	6002	278	-9312
4784810	2577	-1121	-11060
4785138	750	-3203	-12725
4785466	761	-4522	-14194
4785794	-2648	-10335	-14024
4786122	5609	-7683	-16932
4786450	5317	-6927	-18374
4786778	7054	-10066	-19108
4787106	8209	-10917	-19324
4787434	9971	-10572	-19379
4787762	11778	-12235	-19841
4788090	11734	-14854	-20446
4788418	13477	-16663	-21335
4788746	15996	-18173	-22455
4789074	19144	-18059	-23267
4789402	21225	-18374	-23212
4789730	20992	-19565	-21390
4790058	20962	-20600	-19578
4790386	18403	-21050	-17117
4790714	16063	-19558	-14938
4791042	16063	-13749	-12763
4791370	15580	-9936	-9315
4791698	14345	-8543	-6260
4792026	12687	-6971	-3454
4792354	11153	-4110	-60
4792682	9894	-181	2929
4793010	7704	4374	5277
4793338	6223	7699	8225
4793666	6039	10867	9959
4793994	3900	13779	7671
4794322	2640	12428	4185
4794650	1965	7342	3785
4794978	3277	5810	6321
4795306	4337	5505	7548
4795634	4603	4435	7073
4795962	5907	1827	5498
4796290	4938	97	4373
4796618	4423	201	3575
4796946	3449	963	3448
4797274	1662	2319	3031
4797602	254	3623	2022
4797930	578	2517	1817
4798258	874	1887	2271
4798586	994	1303	2852
4798914	1165	931	3325
4799242	1328	317	3530
4799570	1368	310	3421
4799898	2101	829	2900
4800226	2712	767	2522
4800554	3093	979	2454
4800882	1456	-203	1963
4801210	2548	1666	1827
4801538	1598	1379	1472
4801866	1470	762	1486
4802194	672	656	1645
4802522	337	1387	1706
4802850	182	1721	1650
4803178	-256	1068	1443
4803506	-533	572	1380
4803834	-661	612	1062
4804162	-323	479	926
4804490	-715	65	919
4804818	-145	-235	425
4805146	497	994	224
4805474	164	832	335
4805802	20	180	350
4806130	-193	583	154
4806458	-129	469	-94
4806786	-132	380	-341
4807114	182	720	-516
4807442	270	583	-586
4807770	267	176	-569
4808098	110	-50	-457
4808426	-151	-205	-426
4808754	-379	-428	-357
4809082	-416	-610	-322
4809410	-585	-747	-422
4809738	-421	-849	-506
4810066	-251	-837	-688
4810394	9	-654	-655
4810722	149	-528	-639
4811050	150	-568	-592
4811378	-98	-517	-641
4811706	-192	-738	-737
4812034	-51	-1107	-830
4812362	351	-1252	-918
4812690	746	-1453	-986
4813018	841	-1495	-1127
4813346	588	-1633	-1362
4813674	56	-1869	-1678
4814002	-516	-1958	-2126
4814330	-948	-2213	-2627
4814658	-1110	-2557	-3226
4814986	-1174	-2615	-3749
4815314	-1351	-2864	-4338
4815642	-1765	-3405	-5175
4815970	-2284	-4088	-5901
4816298	-3216	-4962	-6659
4816626	-4119	-5654	-7529
4816954	-4717	-5663	-8586
4817282	-5650	-5159	-9507
4817610	-7134	-5110	-10233
4817938	-9055	-4855	-10474
4818266	-11195	-4073	-10700
4818594	-14167	-3419	-10864
4818922	-16393	-2637	-10268
4819250	-17703	-1809	-8175
4819578	-15444	712	670
4819906	-13399	679	5231
4820234	-13391	2577	8077
4820562	-13926	4431	9544
4820890	-14817	4568	10245
4821218	-15326	4466	10769
4821546	-15114	4249	10837
4821874	-14130	3821	11003
4822202	-12625	3477	10932
4822530	-11290	2614	11045
4822858	-9887	1861	10905
4823186	-9542	780	10296
4823514	-9356	2542	10456
4823842	-9977	1009	9604
4824170	-9728	2017	9385
4824498	-10293	1809	8301
4824826	-10206	2633	7656
4825154	-11307	2342	6597
4825482	-12018	1504	5923
4825810	-12262	1444	5343
4826138	-12409	1432	4752
4826466	-12207	1482	4354
4826794	-12420	1410	3886
4827122	-12882	1520	3530
4827450	-13719	1737	3047
4827778	-14279	1875	2668
4828106	-14521	1812	2424
4828434	-14774	1884	2255
4828762	-14564	1978	2262
4829090	-14514	2404	2275
4829418	-15020	2713	2362
4829746	-14807	2926	2375
4830074	-14759	3515	2558
4830402	-15041	4252	2491
4830730	-15156	4723	2469
4831058	-15727	6212	2432
4831386	-16314	7619	2401
4831714	-16428	8189	2691
4832042	-16839	9268	3074
4832370	-17197	11000	3558
4832698	-16974	11819	4036
4833026	-17266	12104	4709
4833354	-18658	13482	5328
4833682	-19195	16077	5582
4834010	-17854	17531	4890
4834338	-12627	9660	4926
4834666	-10058	6365	4988
4834994	-7625	7732	3974
4835322	-4893	7036	3948
4835650	-4732	6397	4493
4835978	-3860	6883	5495
4836306	-4646	6600	6522
4836634	-4585	5142	6788
4836962	-4111	4947	6798
4837290	-1899	5438	6716
4837618	121	5158	6669
4837946	872	5777	6428
4838274	1699	7316	6070
4838602	313	7467	4888
4838930	-250	5960	5319
4839258	-857	4177	5364
4839586	-1151	3237	5339
4839914	-1037	2715	5296
4840242	-274	2070	4842
4840570	875	2384	4374
4840898	-389	2339	4221
4841226	419	1855	4200
4841554	1075	2440	4350
4841882	1127	2833	4456
4842210	461	3162	4295
4842538	-1072	3201	3833
4842866	-2378	2990	3328
4843194	-3255	2408	3260
4843522	-3549	1835	3350
4843850	-3275	1445	3407
4844178	-2902	1550	3556
4844506	-2625	1535	3546
4844834	-2419	1617	3470
4845162	-1988	1508	3355
4845490	-1614	1748	3296
4845818	-1623	1789	3101
4846146	-1371	1377	2961
4846474	-1313	1126	2905
4846802	-997	1125	2707
4847130	-570	1214	2439
4847458	-786	1320	2104
4847786	-1089	1396	1922
4848114	-1990	1290	1732
4848442	-2604	1394	1672
4848770	-3219	1514	1848
4849098	-4167	1314	1573
4849426	-4566	2144	1339
4849754	-5193	1833	1270
4850082	-5641	971	1276
4850410	-5782	513	1254
4850738	-6060	145	1407
4851066	-6380	-105	1704
4851394	-6452	136	1525
4851722	-6162	410	1633
4852050	-6697	1210	1652
4852378	-7412	307	1843
4852706	-7280	-978	2164
4853034	-6573	-2324	2839
4853362	-5598	-2965	3422
4853690	-4285	-2450	3641
4854018	-2838	-1974	3704
4854346	-1232	-967	4007
4854674	99	-174	3617
4855002	122	-1110	3034
4855330	588	-1269	2281
4855658	-134	-1711	1258
4855986	-535	-2424	-1746
4856314	961	-3672	-3745
4856642	3240	-5957	-5473
4856970	5552	-5625	-6349
4857298	7131	-4320	-6667
4857626	7448	-3911	-5726
4857954	5682	-2982	-3693
4858282	3170	-1587	-1586
4858610	771	300	-1026
4858938	-1280	1142	-1627
4859266	-2996	147	-2319
4859594	-3405	1407	-1870
4859922	-4350	1286	-1794
4860250	-5670	278	-1531
4860578	-6816	496	-1060
4860906	-7428	513	-708
4861234	-7390	44	-488
4861562	-6015	-1266	259
4861890	-4725	-834	-31
4862218	-2111	-195	-98
4862546	142	-416	227
4862874	1703	-788	376
4863202	2618	-600	653
4863530	3147	-891	890
4863858	3221	-575	1152
4864186	3298	-518	1373
4864514	3061	-291	1608
4864842	2872	-13	1802
4865170	3398	175	2077
4865498	2827	8	2288
4865826	3152	-159	2630
4866154	3388	35	2734
4866482	3770	-224	2704
4866810	4267	-812	2953
4867138	4806	-747	3075
4867466	5182	-1035	2980
4867794	5224	-1165	2759
4868122	5136	-1536	2468
4868450	5109	-1667	2144
4868778	4987	-1696	1760
4869106	4944	-2015	1359
4869434	5373	-2780	943
4869762	5779	-4078	521
4870090	6583	-4205	158
4870418	7567	-4406	-76
4870746	8512	-4125	141
4871074	8917	-3454	139
4871402	9085	-3027	-145
4871730	9664	-2460	-529
4872058	8326	-2694	-1360
4872386	7078	-2926	-1854
4872714	6410	-2573	-2478
4873042	4362	-2629	-2491
4873370	2784	-3035	-2502
4873698	1939	-3088	-2281
4874026	2424	-2278	-2587
4874354	3170	-2040	-2473
4874682	3810	-2028	-2078
4875010	4229	-3097	-1192
4875338	4011	-2551	-1163
4875666	3990	-2155	-823
4875994	3634	-1220	-764
4876322	3033	-1483	-634
4876650	2377	-1292	-600
4876978	1768	-1058	-685
4877306	1785	-987	-728
4877634	2176	-1423	-531
4877962	2766	-1855	-458
4878290	3509	-2364	-409
4878618	4208	-2296	-457
4878946	4042	-1956	-683
4879274	3333	-1701	-910
4879602	2393	-1674	-1168
4879930	1688	-1725	-1331
4880258	1079	-1926	-1380
4880586	1034	-2112	-810
4880914	1841	-2801	-344
4881242	3043	-3126	-12
4881570	3161	-3155	91
4881898	2604	-1998	188
4882226	753	-799	-40
4882554	-1336	-447	-445
4882882	-2166	-767	-400
4883210	-1540	-2291	-559
4883538	-962	-2596	-87
4883866	-44	-2438	184
4884194	432	-2346	185
4884522	445	-2397	211
4884850	535	-2569	237
4885178	543	-2923	272
4885506	264	-3142	312
4885834	-15	-3453	361
4886162	-214	-3429	186
4886490	-56	-3584	77
4886818	520	-3543	79
4887146	1033	-3345	26
4887474	1224	-3084	-106
4887802	1182	-2674	-270
4888130	714	-2460	-578
4888458	412	-2493	-997
4888786	14	-2124	-1298
4889114	-158	-1319	-1239
4889442	-604	-1457	-1176
4889770	-1080	-1431	-1122
4890098	-1070	-1071	-1005
4890426	-859	-1066	-784
4890754	-583	-1237	-543
4891082	-181	-1161	-529
4891410	165	-1085	-488
4891738	258	-1052	-574
4892066	128	-671	-536
4892394	-234	-350	-489
4892722	-702	107	-514
4893050	-1224	402	-566
4893378	-1878	-54	-371
4893706	-2484	303	-499
4894034	-2537	37	-375
4894362	-2674	-320	-225
4894690	-2478	-940	-157
4895018	-2097	-1331	51
4895346	-2117	-1726	299
4895674	-2662	-1579	294
4896002	-3480	-1375	372
4896330	-3732	-1071	626
4896658	-4161	-1520	1159
4896986	-4720	-2401	1816
4897314	-4415	-1554	1925
4897642	-3883	-743	2234
4897970	-3404	-852	2833
4898298	-3397	-1360	3053
4898626	-3514	-1318	3489
4898954	-3739	-754	4470
4899282	-4091	-513	5524
4899610	-4475	-300	6472
4899938	-4453	-148	7418
4900266	-3961	-1	8421
4900594	-3450	231	9381
4900922	-2450	814	10070
4901250	-2265	953	10342
4901578	-1479	-2590	11210
4901906	-1740	-6472	11850
4902234	612	-7971	9640
4902562	6057	-3302	10019
4902890	10562	386	8649
4903218	14994	-501	8512
4903546	15637	1696	8241
4903874	14163	3620	5872
4904202	13011	3880	2979
4904530	10901	1083	-852
4904858	11309	2726	-3350
4905186	9685	5251	-6354
4905514	7844	7184	-9583
4905842	5049	6091	-12217
4906170	3118	3987	-13990
4906498	998	1845	-16000
4906826	-685	-178	-17095
4907154	1761	2966	-19555
4907482	322	-2061	-20725
4907810	1809	-3981	-22046
4908138	4717	-4026	-22343
4908466	7433	-4750	-22822
4908794	9349	-6219	-24143
4909122	10894	-8237	-25111
4909450	11877	-10101	-25529
4909778	12171	-12786	-27010
4910106	12531	-13749	-28138
4910434	12179	-13328	-29047
4910762	9679	-13902	-29534
4911090	8624	-12775	-27836
4911418	9193	-11506	-24371
4911746	11236	-11437	-19322
4912074	11931	-11337	-14224
4912402	12148	-10949	-9907
4912730	14772	-10409	-6707
4913058	18021	-10406	-4627
4913386	19468	-5883	-2023
4913714	10579	612	2509
4914042	2238	15370	5997
4914370	4622	28269	12013
4914698	9344	16349	11177
4915026	3300	-9166	10587
4915354	1221	-8412	8919
4915682	6312	4384	7282
4916010	4054	3229	6198
4916338	4430	-563	4908
4916666	5051	2721	5652
4916994	5651	9909	6249
4917322	5127	6520	5735
4917650	3337	336	4136
4917978	1583	-651	3611
4918306	574	1632	3527
4918634	458	2095	3227
4918962	446	1533	2081
4919290	92	2207	1919
4919618	239	1534	1895
4919946	-304	1166	2143
4920274	-505	2003	1996
4920602	-1857	1911	2150
4920930	-2340	1537	2574
4921258	-1872	1942	2739
4921586	-1659	2248	3207
4921914	-1598	2126	3810
4922242	-763	2141	3968
4922570	-105	2253	4639
4922898	3	2017	4559
4923226	-401	969	4205
4923554	151	1894	4624
4923882	-251	1278	4009
4924210	427	1623	4078
4924538	-322	3102	4442
4924866	-1172	3902	4125
4925194	-2390	4909	3661
4925522	-3611	5364	3146
4925850	-4399	5428	2490
4926178	-4669	5451	2234
4926506	-4462	5334	2340
4926834	-4118	5558	2431
4927162	-3676	5664	2416
4927490	-3261	5733	2320
4927818	-2065	4851	3218
4928146	-1765	3481	4444
4928474	-1058	1309	5274
4928802	-610	-392	5697
4929130	1855	-977	4740
4929458	4987	-62	4340
4929786	7259	2881	4035
4930114	6518	3831	3416
4930442	5561	3113	2670
4930770	3376	2249	2994
4931098	949	3264	3228
4931426	-1767	3503	2988
4931754	-1583	1580	2112
4932082	-1401	626	1825
4932410	427	-940	1752
4932738	2176	-561	1796
4933066	2886	688	1973
4933394	2340	2062	2161
4933722	1180	2570	1859
4934050	195	2307	1404
4934378	-548	1625	1134
4934706	-754	1101	1206
4935034	-143	1099	1226
4935362	448	1202	1344
4935690	780	1012	1357
4936018	617	782	1452
4936346	-24	782	1607
4936674	-531	922	1725
4937002	-994	1086	1730
4937330	-1205	1631	1807
4937658	-1268	1958	1818
4937986	-1392	2330	1759
4938314	-1686	2566	1801
4938642	-2229	2837	1724
4938970	-2677	3223	1729
4939298	-2703	2836	1758
4939626	-2526	2555	1816
4939954	-2699	2537	1931
4940282	-1862	1945	1765
4940610	-1475	2135	1801
4940938	-1897	2038	1711
4941266	-2068	2035	1462
4941594	-2700	2479	1389
4941922	-3286	2560	1396
4942250	-4021	2812	1412
4942578	-5078	3147	1371
4942906	-5782	3350	1288
4943234	-6080	3033	1216
4943562	-6270	2681	1245
4943890	-6048	2490	1290
4944218	-6516	2420	1780
4944546	-6014	1291	1488
4944874	-6246	1165	1705
4945202	-5149	1877	1587
4945530	-5225	1447	1849
4945858	-5333	-616	1714
4946186	-5096	-2588	1766
4946514	-3943	-2607	2176
4946842	-3473	-1703	2381
4947170	-2760	-1232	2330
4947498	-2684	-1525	2437
4947826	-3199	-2760	2717
4948154	-3741	-3557	2973
4948482	-3124	-2798	3309
4948810	-1868	-1633	4296
4949138	-2125	-1301	4870
4949466	-2331	-955	5158
4949794	-2795	-674	5272
4950122	-2988	-734	4720
4950450	-2880	-1128	4430
4950778	-2598	-918	4263
4951106	-2284	-666	4118
4951434	-2080	-521	4090
4951762	-2641	-678	4149
4952090	-1642	-717	4455
4952418	-1405	-644	4566
4952746	-701	-694	5097
4953074	332	-863	5718
4953402	1225	-1288	5933
4953730	1508	-1045	5963
4954058	2017	-918	5817
4954386	2745	-1342	5619
4954714	3662	-1584	5425
4955042	3502	-1329	5036
4955370	3216	-675	4746
4955698	2680	-170	4516
4956026	2826	-918	4198
4956354	2045	-752	3450
4956682	1269	823	2285
4957010	592	1071	989
4957338	-1484	-677	104
4957666	122	530	-1340
4957994	-1123	-146	-2407
4958322	-864	-1050	-3278
4958650	-161	-1497	-4217
4958978	-144	-1830	-5218
4959306	-209	-2082	-6455
4959634	126	-2593	-7581
4959962	682	-3161	-8667
4960290	1499	-3679	-9687
4960618	2499	-4700	-10576
4960946	3583	-5353	-11588
4961274	4214	-6281	-12713
4961602	5458	-6348	-13319
4961930	5917	-6972	-14242
4962258	6579	-7509	-14911
4962586	7245	-8079	-15499
4962914	7563	-8699	-16109
4963242	7925	-9401	-16825
4963570	8886	-9900	-17451
4963898	9711	-11633	-18111
4964226	10038	-12248	-18643
4964554	10123	-12721	-19097
4964882	10200	-13193	-19202
4965210	9959	-13900	-19419
4965538	9925	-14366	-19698
4965866	9988	-14362	-19736
4966194	10438	-14754	-19746
4966522	10966	-15018	-18883
4966850	11223	-14251	-17749
4967178	11441	-12546	-16299
4967506	12346	-11828	-14459
4967834	13050	-10849	-12176
4968162	13280	-9021	-9634
4968490	12643	-8175	-6931
4968818	12382	-7344	-4191
4969146	13747	-6230	-1357
4969474	13928	-5528	1388
4969802	13373	-3169	3226
4970130	11191	-330	3914
4970458	8446	1914	4242
4970786	-9382	9806	4626
4971114	-3953	32767	4994
4971442	-6035	20797	7108
4971770	-9185	9807	14767
4972098	-8393	1292	12384
4972426	-80	4834	8957
4972754	1984	9095	7378
4973082	2717	6958	5811
4973410	1125	6924	5860
4973738	2265	11859	6305
4974066	-320	12291	7377
4974394	-1243	4810	7638
4974722	4156	633	7551
4975050	8900	1177	6170
4975378	12285	658	6444
4975706	11740	-417	7165
4976034	10257	-1264	5934
4976362	7621	13	5657
4976690	4276	572	4582
4977018	1580	526	3960
4977346	-205	831	4018
4977674	673	-1416	2391
4978002	557	2026	2528
4978330	3231	-1138	2137
4978658	3679	887	2620
4978986	3243	833	2726
4979314	2318	-195	2315
4979642	903	-1034	1891
4979970	-377	-933	1944
4980298	2171	-524	559
4980626	375	2715	850
4980954	-104	1478	352
4981282	-714	-328	228
4981610	-1072	72	279
4981938	-1103	513	175
4982266	-1245	-90	-67
4982594	-1204	-318	-95
4982922	-1084	101	-208
4983250	-1162	487	-469
4983578	-1350	550	-653
4983906	-1614	533	-814
4984234	-1794	329	-859
4984562	-1698	710	-1010
4984890	-1642	1174	-985
4985218	-1751	767	-1031
4985546	-1528	650	-990
4985874	-971	780	-946
4986202	-780	584	-867
4986530	-604	401	-762
4986858	-490	304	-765
4987186	-710	203	-839
4987514	-732	-11	-906
4987842	-722	-176	-893
4988170	-605	-112	-893
4988498	-454	-39	-842
4988826	-602	-19	-935
4989154	-575	11	-947
4989482	-553	-166	-968
4989810	-554	-420	-1011
4990138	-347	-502	-1050
4990466	-138	-613	-1046
4990794	91	-514	-980
4991122	167	-649	-941
4991450	134	-783	-985
4991778	19	-947	-1031
4992106	-250	-1110	-1097
4992434	-135	-1361	-1117
4992762	-251	-1463	-1171
4993090	-178	-1576	-1165
4993418	-114	-1892	-1123
4993746	0	-2042	-1016
4994074	101	-2130	-936
4994402	-70	-2322	-755
4994730	-150	-2579	-703
4995058	5	-2920	-785
4995386	462	-3175	-854
4995714	1217	-3082	-953
4996042	2037	-3086	-993
4996370	2626	-3127	-1100
4996698	3671	-3261	-1118
4997026	4884	-3441	-961
4997354	5956	-3848	-782
4997682	6645	-3766	-554
4998010	6933	-3453	-504
4998338	7080	-2968	-595
4998666	7047	-2889	-423
4998994	7068	-2640	-98
4999322	7786	-2578	304
4999650	8934	-2260	516
4999978	9578	-2574	877
5000306	10010	-3403	1131
5000634	10091	-3924	1131
5000962	10081	-3160	785
5001290	9475	-2565	303
5001618	8575	-2774	205
5001946	7752	-2214	110
5002274	7238	-1746	0
5002602	6527	-582	-192
5002930	5510	471	-449
5003258	4434	489	-744
5003586	4000	1209	-1725
5003914	3564	1184	-1706
5004242	4697	1405	-951
5004570	5239	1613	-347
5004898	4868	1262	-110
5005226	3565	1324	-442
5005554	3196	1130	-431
5005882	3463	806	-220
5006210	4408	750	-8
5006538	5012	443	346
5006866	5452	665	485
5007194	5642	711	479
5007522	5552	719	454
5007850	5191	878	534
5008178	4800	863	609
5008506	3822	733	591
5008834	2999	729	648
5009162	2430	681	795
5009490	2142	937	788
5009818	1763	1271	834
5010146	1413	1435	802
5010474	1001	1630	693
5010802	554	1622	633
5011130	158	1675	626
5011458	-8	1555	579
5011786	177	1383	594
5012114	488	1079	689
5012442	820	784	810
5012770	1107	654	963
5013098	1048	386	1040
5013426	1151	82	1095
5013754	1021	344	1133
5014082	791	608	1115
5014410	381	410	1060
5014738	153	93	981
5015066	115	239	1076
5015394	481	4	956
5015722	672	-320	951
5016050	884	-240	984
5016378	886	-139	1021
5016706	577	-124	981
5017034	181	-115	950
5017362	-298	-73	888
5017690	-285	-124	812
5018018	35	-536	874
5018346	458	-724	1015
5018674	946	-724	1105
5019002	1069	-643	1142
5019330	782	-454	1103
5019658	323	-269	1134
5019986	-180	-512	1140
5020314	-435	-843	1104
5020642	-487	-555	1157
5020970	-254	-514	1144
5021298	-86	-524	1102
5021626	68	-364	1064
5021954	42	-73	971
5022282	-492	35	898
5022610	-566	-263	1002
5022938	-165	-1005	1062
5023266	255	-1287	1061
5023594	180	-1165	1028
5023922	123	-894	1024
5024250	-97	-592	795
5024578	-230	-646	659
5024906	-219	-1141	619
5025234	23	-1541	512
5025562	604	-1739	542
5025890	1294	-2151	475
5026218	1949	-2296	361
5026546	2665	-1939	420
5026874	2691	-2135	494
5027202	2460	-2120	497
5027530	2282	-2018	410
5027858	2149	-3163	542
5028186	2073	-3844	943
5028514	2429	-4325	1179
5028842	3274	-4784	1098
5029170	4217	-4712	809
5029498	4872	-4054	460
5029826	4773	-3477	-17
5030154	3739	-2971	-280
5030482	1568	-2465	-821
5030810	-504	-2298	-1243
5031138	-1359	-2606	-1398
5031466	-1169	-3008	-1480
5031794	-236	-3222	-1470
5032122	638	-3169	-1514
5032450	1257	-3318	-1614
5032778	1842	-3427	-1918
5033106	2146	-3095	-2045
5033434	1596	-3126	-2062
5033762	909	-3438	-2274
5034090	-90	-3596	-2287
5034418	-549	-3667	-2221
5034746	484	-5016	-1787
5035074	1094	-5670	-1543
5035402	1166	-6292	-1260
5035730	1552	-7500	-1114
5036058	2292	-9494	-485
5036386	3742	-11621	603
5036714	5790	-12878	2048
5037042	7849	-14094	3374
5037370	9297	-15190	4116
5037698	10810	-17334	3585
5038026	11601	-16820	3826
5038354	13161	-16874	3381
5038682	13083	-17669	2354
5039010	13469	-17871	1748
5039338	13860	-17590	1123
5039666	12128	-16007	291
5039994	12489	-14785	213
5040322	15193	-13413	1369
5040650	17019	-10732	3157
5040978	18626	-9473	3881
5041306	20015	-8734	3978
5041634	21665	-6512	3084
5041962	21350	-4945	2753
5042290	20958	-2605	3057
5042618	20095	-1978	2270
5042946	17930	-2629	1307
5043274	15698	-1337	146
5043602	13682	-292	-919
5043930	12239	-1039	-2304
5044258	10882	-3629	-3381
5044586	10240	-5335	-5093
5044914	10249	-5115	-6419
5045242	11526	-6023	-7704
5045570	12040	-7375	-8701
5045898	11326	-8405	-10305
5046226	11352	-9749	-11694
5046554	10339	-13423	-12744
5046882	11986	-10169	-13989
5047210	11337	-10484	-14885
5047538	11390	-12598	-15600
5047866	11682	-13419	-16214
5048194	12413	-13591	-16675
5048522	13029	-13139	-17114
5048850	13340	-13915	-17604
5049178	13518	-15499	-18327
5049506	13870	-16714	-19101
5049834	14663	-15783	-19617
5050162	15640	-14310	-20335
5050490	15506	-13335	-21314
5050818	15508	-13379	-20724
5051146	14802	-12086	-20198
5051474	14304	-11083	-17895
5051802	13479	-9950	-15525
5052130	14405	-9517	-13762
5052458	13397	-11985	-11443
5052786	14443	-13211	-9136
5053114	15831	-12537	-7057
5053442	15413	-9839	-4917
5053770	14290	-4214	-2671
5054098	13411	-767	-278
5054426	10745	65	1857
5054754	7511	928	3264
5055082	5282	3181	3764
5055410	3628	5244	4287
5055738	3375	6071	4409
5056066	-1997	9984	4013
5056394	-4062	17097	4579
5056722	5823	13	8689
5057050	4886	-170	9086
5057378	7900	3878	9767
5057706	9177	3606	8129
5058034	9179	2937	6369
5058362	8742	3129	4714
5058690	4228	2370	4769
5059018	6012	6400	5783
5059346	4058	9953	6771
5059674	3886	8481	6797
5060002	1974	5807	6318
5060330	1304	3569	6069
5060658	1065	2888	5506
5060986	369	4151	4778
5061314	-963	3936	3905
5061642	-1201	3711	4364
5061970	-409	2760	3698
5062298	1369	2750	3852
5062626	3044	2272	3812
5062954	3746	1398	3757
5063282	3453	1070	3593
5063610	3147	1294	3123
5063938	2549	1525	2837
5064266	1835	1648	2965
5064594	1526	991	2914
5064922	743	645	2851
5065250	399	243	2775
5065578	462	355	2577
5065906	443	372	2277
5066234	436	605	1925
5066562	205	727	1613
5066890	65	629	1294
5067218	-34	537	1050
5067546	267	599	856
5067874	267	711	725
5068202	279	831	591
5068530	258	1019	402
5068858	177	1153	251
5069186	-3	1170	147
5069514	-296	1020	102
5069842	-604	885	57
5070170	-617	842	21
5070498	-653	801	11
5070826	-612	441	-44
5071154	-380	461	-18
5071482	-181	380	-71
5071810	-71	373	-58
5072138	-84	442	-61
5072466	-95	607	-96
5072794	-234	542	-105
5073122	-374	524	-127
5073450	-502	273	-133
5073778	-344	277	-158
5074106	-95	172	-225
5074434	-8	115	-263
5074762	184	140	-261
5075090	350	-14	-267
5075418	338	-46	-261
5075746	105	-197	-292
5076074	25	-205	-304
5076402	-143	-253	-318
5076730	-330	-513	-337
5077058	-414	-621	-322
5077386	-331	-840	-317
5077714	-15	-1111	-312
5078042	399	-1267	-249
5078370	726	-1504	-263
5078698	918	-1767	-320
5079026	956	-1738	-355
5079354	813	-1778	-465
5079682	513	-1861	-592
5080010	281	-1794	-757
5080338	-100	-1828	-954
5080666	-355	-2053	-1252
5080994	-346	-2213	-1469
5081322	-8	-2155	-1653
5081650	423	-1940	-1775
5081978	853	-1672	-1924
5082306	913	-1391	-2124
5082634	466	-1098	-2310
5082962	-267	-695	-2483
5083290	-1220	-506	-2625
5083618	-1850	-526	-2803
5083946	-1983	-700	-2861
5084274	-1928	-738	-2890
5084602	-1577	-629	-2895
5084930	-1003	-742	-2764
5085258	-636	-885	-2586
5085586	-510	-924	-2509
5085914	-617	-1206	-2513
5086242	-1150	-1742	-2402
5086570	-1241	-1778	-2485
5086898	-1530	-1960	-2660
5087226	-1646	-2344	-2996
5087554	-2072	-2620	-3534
5087882	-1588	-2334	-3905
5088210	-1067	-2661	-4066
5088538	-548	-2463	-4414
5088866	-692	-2107	-4835
5089194	-1405	-2217	-5424
5089522	-2294	-2578	-5970
5089850	-2884	-2892	-6466
5090178	-3344	-3175	-6719
5090506	-3843	-2859	-7035
5090834	-4395	-2849	-7272
5091162	-4123	-3479	-7137
5091490	-4706	-3959	-6856
5091818	-4864	-3949	-6491
5092146	-6850	-3693	-5927
5092474	-10384	-2540	-5809
5092802	-15034	-950	-6119
5093130	-19364	827	-6430
5093458	-24782	3209	-6522
5093786	-29246	4583	-4965
5094114	-30488	4538	-1021
5094442	-29156	5503	2657
5094770	-27888	4152	5935
5095098	-23325	2363	8450
5095426	-15701	1715	9524
5095754	-8924	1465	10769
5096082	-5400	1588	10792
5096410	-2970	2072	11485
5096738	-2236	1839	11471
5097066	-3020	1144	11404
5097394	-5389	-254	11346
5097722	-6315	270	10869
5098050	-8318	-1042	10441
5098378	-7536	-399	10026
5098706	-8078	-613	9151
5099034	-8129	-963	8192
5099362	-7890	-688	7287
5099690	-7944	-832	6411
5100018	-7938	-808	5682
5100346	-8449	-777	4816
5100674	-8779	-1031	3933
5101002	-8189	-1320	3226
5101330	-7676	-1856	2640
5101658	-5930	-1734	2269
5101986	-6269	-2202	1573
5102314	-6169	-2018	1286
5102642	-6398	-1504	1122
5102970	-6262	-958	1035
5103298	-6351	-906	858
5103626	-5792	-1275	991
5103954	-5077	-1713	1314
5104282	-4525	-1573	1621
5104610	-4022	-1431	1983
5104938	-2996	-1664	2434
5105266	-1938	-1568	2813
5105594	1162	-1349	3947
5105922	1640	-498	3573
5106250	2569	888	4206
5106578	2530	1021	4094
5106906	1710	1108	2718
5107234	552	2087	1119
5107562	-1474	4325	160
5107890	-3090	2773	1052
5108218	-4555	1938	2049
5108546	-6500	4652	2431
5108874	-5618	6119	2907
5109202	-5421	6684	2325
5109530	-2694	5573	1550
5109858	-666	4420	980
5110186	726	4064	557
5110514	1330	4676	364
5110842	-656	5390	751
5111170	-1467	5660	1960
5111498	-270	5817	3030
5111826	-2156	3507	2690
5112154	740	2666	1463
5112482	2913	3638	1209
5112810	4022	3384	1260
5113138	3063	3984	1125
5113466	1027	3873	803
5113794	-41	3061	667
5114122	-599	2847	823
5114450	-677	2216	938
5114778	-503	1869	863
5115106	-67	1783	715
5115434	543	1809	477
5115762	881	1792	485
5116090	971	1617	338
5116418	981	1579	167
5116746	950	1349	72
5117074	587	1251	-68
5117402	324	1179	-366
5117730	492	1400	-642
5118058	322	1181	-891
5118386	-82	915	-1091
5118714	-439	510	-1266
5119042	-875	803	-1452
5119370	-1286	703	-1716
5119698	-1329	876	-1932
5120026	-1504	1284	-2263
5120354	-1593	1540	-2564
5120682	-1851	1894	-2980
5121010	-2160	1900	-3217
5121338	-2488	2125	-3427
5121666	-2773	2536	-3519
5121994	-3662	3228	-3729
5122322	-4365	3821	-3962
5122650	-5110	4232	-3876
5122978	-6206	4592	-3793
5123306	-7721	5215	-3428
5123634	-10136	6101	-3186
5123962	-12631	6821	-2967
5124290	-14786	7050	-2908
5124618	-16378	8089	-3127
5124946	-17172	8496	-3199
5125274	-17542	8762	-3038
5125602	-19110	9446	-2604
5125930	-20716	10329	-2213
5126258	-20992	10776	-1472
5126586	-22199	11384	-1003
5126914	-24689	12600	-564
5127242	-27772	14321	330
5127570	-28377	15339	-85
5127898	-27563	14863	173
5128226	-24168	12903	658
5128554	-20539	11007	517
5128882	-18126	10117	278
5129210	-15928	9779	106
5129538	-13159	7840	130
5129866	-11231	5854	387
5130194	-9902	5086	592
5130522	-8275	4038	967
5130850	-6096	2234	939
5131178	-3810	1127	1056
5131506	-1009	591	2064
5131834	840	-640	2942
5132162	-376	733	3213
5132490	-551	2823	3188
5132818	-992	782	2864
5133146	-1880	275	2838
5133474	-1250	1137	2894
5133802	-1255	1516	2934
5134130	-1677	2233	2888
5134458	-2063	2400	2772
5134786	-2576	2254	2399
5135114	-2721	2506	2034
5135442	-2281	1712	1759
5135770	-1777	3053	1526
5136098	-2150	1571	1535
5136426	-2394	1589	1572
5136754	-2955	2107	1597
5137082	-3247	1923	1750
5137410	-3589	1463	1419
5137738	-3652	1336	1498
5138066	-3628	1491	1571
5138394	-3646	1511	1610
5138722	-3473	1743	1670
5139050	-3368	1576	1713
5139378	-3371	1443	1753
5139706	-3518	1745	1707
5140034	-3669	1659	1808
5140362	-3912	1794	1901
5140690	-4122	1719	1888
5141018	-4488	2017	2030
5141346	-5187	1782	2125
5141674	-5384	1494	2319
5142002	-4663	1975	2241
5142330	-5459	1542	2245
5142658	-5386	961	2451
5142986	-5184	1266	2293
5143314	-5064	1454	2377
5143642	-5192	1541	2310
5143970	-5524	1605	2277
5144298	-5978	1431	2198
5144626	-6395	1362	2198
5144954	-6673	1161	2179
5145282	-6844	887	2177
5145610	-7256	724	2139
5145938	-7368	714	1975
5146266	-7142	620	1930
5146594	-6697	149	1946
5146922	-6037	-268	2175
5147250	-5333	77	2386
5147578	-5241	847	2385
5147906	-6078	1129	2266
5148234	-7418	1110	1973
5148562	-8450	1205	1594
5148890	-9720	965	1340
5149218	-10254	309	1243
5149546	-10632	155	1090
5149874	-10490	171	1008
5150202	-10702	886	914
5150530	-10622	2256	889
5150858	-10550	4371	660
5151186	-11456	5606	567
5151514	-13136	6956	226
5151842	-15617	8530	-494
5152170	-17379	10666	-1430
5152498	-18438	10638	-2442
5152826	-18034	10341	-3351
5153154	-16926	10308	-4182
5153482	-15584	11970	-4576
5153810	-14730	14044	-4758
5154138	-14029	16314	-4347
5154466	-13761	17915	-3664
5154794	-13978	16954	-2654
5155122	-13398	16454	-1863
5155450	-11848	15504	-1513
5155778	-9594	13711	-1172
5156106	-7901	12071	-1159
5156434	-6931	10614	-1623
5156762	-6735	8995	-2069
5157090	-9089	5809	-4032
5157418	-9557	4187	-4171
5157746	-10172	949	-5292
5158074	-8191	372	-4708
5158402	-4210	3854	-2395
5158730	-3083	1007	-367
5159058	-2334	-5047	1733
5159386	2560	-2579	-970
5159714	4768	2029	-803
5160042	5974	4679	-805
5160370	4414	4626	-754
5160698	-388	3364	-910
5161026	-4345	2138	-312
5161354	-6432	1229	-260
5161682	-7941	558	-304
5162010	-6432	1037	-168
5162338	-3129	721	-200
5162666	136	923	-70
5162994	1971	1067	79
5163322	2392	1670	306
5163650	2132	1182	311
5163978	901	1107	351
5164306	-27	950	214
5164634	-726	808	-61
5164962	-1145	-4	-204
5165290	-1067	404	-145
5165618	-1039	236	-200
5165946	-556	111	-193
5166274	-123	116	-123
5166602	27	-116	-216
5166930	270	100	-293
5167258	473	48	-335
5167586	517	-42	-376
5167914	380	-363	-347
5168242	260	-461	-304
5168570	159	-403	-364
5168898	132	-407	-423
5169226	73	-471	-497
5169554	82	-660	-499
5169882	80	-755	-529
5170210	27	-725	-556
5170538	12	-563	-600
5170866	130	-424	-664
5171194	132	-279	-651
5171522	41	-308	-608
5171850	-14	-330	-579
5172178	-70	-304	-578
5172506	-59	-310	-550
5172834	3	-332	-541
5173162	116	-416	-515
5173490	183	-461	-474
5173818	278	-584	-420
5174146	452	-832	-382
5174474	772	-1072	-280
5174802	1107	-1234	-172
5175130	1417	-1610	-120
5175458	1893	-1792	-52
5175786	2372	-2244	-17
5176114	3149	-2805	-44
5176442	3044	-3350	204
5176770	2657	-3729	488
5177098	2163	-4416	921
5177426	1923	-5004	1348
5177754	2346	-5222	1707
5178082	3373	-5413	1973
5178410	4938	-5895	2109
5178738	6237	-6432	2111
5179066	7412	-6979	1956
5179394	8578	-7653	1858
5179722	9788	-9399	2097
5180050	10536	-12560	2715
5180378	11061	-14635	3145
5180706	12852	-15617	3676
5181034	15971	-15596	4251
5181362	19249	-15230	4896
5181690	21929	-15255	5135
5182018	23987	-15135	5205
5182346	24562	-15604	4988
5182674	24643	-14905	5171
5183002	23647	-14274	5653
5183330	22234	-14911	5683
5183658	20375	-14740	5442
5183986	19209	-14267	4913
5184314	18438	-13451	4113
5184642	17307	-12783	3081
5184970	16231	-11483	2485
5185298	14281	-10417	2087
5185626	12202	-10002	1774
5185954	10913	-9562	1737
5186282	10677	-8872	1765
5186610	11679	-8545	1733
5186938	13352	-8653	1208
5187266	14789	-10138	487
5187594	15819	-10184	-119
5187922	16156	-9624	-494
5188250	15195	-8407	-825
5188578	13241	-6518	-1509
5188906	11855	-5533	-2713
5189234	10557	-4882	-3979
5189562	9577	-4811	-4747
5189890	8398	-4435	-5184
5190218	6670	-2805	-5017
5190546	4236	-1525	-4637
5190874	1529	-1972	-4400
5191202	-453	-428	-4537
5191530	270	-1108	-4670
5191858	2054	-2345	-3971
5192186	4260	-2755	-3516
5192514	5842	-2597	-3255
5192842	6424	-2233	-2654
5193170	6074	-644	-2502
5193498	4417	318	-2779
5193826	2731	623	-3016
5194154	-305	1937	-3457
5194482	-2445	1707	-3853
5194810	-3087	907	-3777
5195138	-2443	-172	-3347
5195466	-1106	-472	-3139
5195794	263	-447	-2882
5196122	1191	-632	-2539
5196450	1493	-131	-2197
5196778	1187	142	-1838
5197106	772	-453	-1744
5197434	466	-1175	-1856
5197762	424	-1418	-1761
5198090	927	-1620	-1497
5198418	2062	-1804	-1321
5198746	2478	-2323	-1223
5199074	3059	-2309	-1088
5199402	3361	-2423	-942
5199730	3132	-2388	-928
5200058	2602	-2334	-933
5200386	1962	-2178	-828
5200714	1569	-2323	-657
5201042	1194	-2278	-622
5201370	804	-2652	-597
5201698	1194	-2052	-556
5202026	1370	-2609	-402
5202354	1905	-2684	-281
5202682	2061	-2826	-229
5203010	2202	-2845	-196
5203338	1793	-3119	-218
5203666	1610	-3120	-314
5203994	1421	-3404	-391
5204322	1492	-3541	-502
5204650	1502	-3366	-608
5204978	1467	-3335	-667
5205306	752	-3280	-849
5205634	400	-2853	-1006
5205962	-357	-3015	-1234
5206290	-199	-3585	-1356
5206618	461	-3949	-1289
5206946	806	-4208	-1259
5207274	755	-4144	-1445
5207602	710	-4196	-1570
5207930	428	-4396	-1683
5208258	344	-4685	-1515
5208586	348	-5136	-1543
5208914	636	-5601	-1535
5209242	947	-5983	-1497
5209570	1099	-5930	-1668
5209898	2326	-6456	-1573
5210226	3138	-5931	-1551
5210554	4860	-5621	-1539
5210882	7630	-6862	-1477
5211210	11237	-8806	-1503
5211538	14837	-11715	-1210
5211866	17053	-11394	-857
5212194	18432	-9530	-357
5212522	17494	-8635	-155
5212850	15775	-8675	-50
5213178	14678	-7927	-29
5213506	13673	-8285	-49
5213834	13816	-7974	-130
5214162	14460	-7400	-219
5214490	15232	-6450	-461
5214818	15780	-5857	-1000
5215146	16079	-5399	-1981
5215474	15857	-4734	-2981
5215802	15745	-4093	-3658
5216130	14797	-3530	-3536
5216458	13374	-3715	-2856
5216786	11868	-4576	-2013
5217114	10754	-5299	-1258
5217442	10183	-5817	-1297
5217770	10104	-5969	-952
5218098	9899	-5097	-593
5218426	8691	-2889	-262
5218754	6306	58	-97
5219082	1706	1946	501
5219410	-2848	2114	421
5219738	-5678	822	-33
5220066	-7148	-261	-60
5220394	-6775	723	-890
5220722	-5201	748	-1067
5221050	-3423	-184	-838
5221378	-1781	28	-415
5221706	-1030	143	-176
5222034	-929	115	-268
5222362	-925	55	-338
5222690	-533	43	-551
5223018	-185	-63	-615
5223346	564	-309	-501
5223674	1278	-537	-349
5224002	1778	-441	-345
5224330	2183	-348	-359
5224658	2389	-228	-187
5224986	2334	-307	-85
5225314	2035	-70	-103
5225642	1744	-60	30
5225970	1437	14	90
5226298	1004	126	87
5226626	331	217	85
5226954	-337	205	135
5227282	-853	199	148
5227610	-1054	192	137
5227938	-1065	181	112
5228266	-892	188	126
5228594	-669	222	163
5228922	-603	174	256
5229250	-405	19	194
5229578	-293	-54	128
5229906	-107	-120	71
5230234	130	-161	41
5230562	148	-166	4
5230890	273	-151	16
5231218	352	-14	18
5231546	371	15	1
5231874	317	15	-8
5232202	193	-78	-59
5232530	137	-135	-110
5232858	97	-92	-142
5233186	86	-73	-172
5233514	52	-52	-202
5233842	-33	-80	-202
5234170	-164	-105	-239
5234498	-323	-115	-257
5234826	-495	-141	-359
5235154	-501	-121	-280
5235482	-528	-164	-274
5235810	-500	-131	-245
5236138	-418	-69	-234
5236466	-403	-2	-239
5236794	-424	23	-235
5237122	-410	-16	-280
5237450	-390	3	-288
5237778	-336	-15	-252
5238106	-308	-33	-240
5238434	-270	-11	-220
5238762	-273	13	-192
5239090	-292	44	-174
5239418	-366	54	-122
5239746	-464	51	-130
5240074	-580	79	-135
5240402	-734	3	-107
5240730	-796	65	-82
5241058	-916	133	-108
5241386	-976	205	-70
5241714	-1069	155	-55
5242042	-1052	229	-22
5242370	-1070	193	-48
5242698	-1024	234	-33
5243026	-1021	216	-41
5243354	-973	162	-14
5243682	-953	170	-34
5244010	-930	129	-52
5244338	-846	68	-53
5244666	-631	9	-38
5244994	-525	-3	-87
5245322	-417	18	-94
5245650	-338	-47	-112
5245978	-263	-23	-126
5246306	-211	-28	-147
5246634	-203	-40	-158
5246962	-208	-30	-169
5247290	-271	-46	-168
5247618	-307	-12	-161
5247946	-366	15	-161
5248274	-391	32	-152
5248602	-425	49	-130
5248930	-459	71	-143
5249258	-466	52	-158
5249586	-501	58	-170
5249914	-538	66	-152
5250242	-556	34	-173
5250570	-523	43	-134
5250898	-493	49	-170
5251226	-402	54	-161
5251554	-343	43	-136
5251882	-286	77	-107
5252210	-258	94	-77
5252538	-258	107	-44
5252866	-266	165	-35
5253194	-255	186	-11
5253522	-228	167	-9
5253850	-324	190	-20
5254178	-353	333	1
5254506	-458	438	-9
5254834	-515	434	0
5255162	-426	475	50
5255490	-319	481	78
5255818	-195	497	122
5256146	-94	526	169
5256474	-40	606	195
5256802	48	580	235
5257130	153	577	244
5257458	212	610	237
5257786	147	680	228
5258114	-4	875	219
5258442	36	826	149
5258770	126	730	105
5259098	207	706	74
5259426	336	738	57
5259754	443	750	37
5260082	494	779	-12
5260410	529	843	-166
5260738	733	665	-263
5261066	997	597	-286
5261394	1194	633	-318
5261722	1269	625	-372
5262050	1281	645	-419
5262378	1272	710	-467
5262706	1272	750	-484
5263034	1325	746	-512
5263362	1328	825	-575
5263690	1327	894	-614
5264018	1343	943	-618
5264346	1292	1110	-666
5264674	1300	1352	-804
5265002	1244	1151	-911
5265330	1448	1091	-999
5265658	1393	1063	-1083
5265986	1157	1149	-1201
5266314	837	1222	-1373
5266642	809	1209	-1580
5266970	716	1195	-1755
5267298	937	1213	-1948
5267626	1393	984	-2097
5267954	1890	819	-2115
5268282	2237	708	-2127
5268610	2446	565	-2216
5268938	2665	274	-2355
5269266	2760	220	-2399
5269594	2737	279	-2424
5269922	2482	222	-2433
5270250	2244	220	-2476
5270578	2007	229	-2449
5270906	1736	144	-2346
5271234	1424	158	-2172
5271562	1136	241	-1995
5271890	899	233	-1810
5272218	818	164	-1685
5272546	869	145	-1557
5272874	973	62	-1403
5273202	733	-253	-1301
5273530	561	-398	-1224
5273858	539	-483	-1119
5274186	625	-552	-998
5274514	776	-589	-786
5274842	640	-568	-570
5275170	178	-510	-336
5275498	-465	-361	-280
5275826	-989	-344	-303
5276154	-1245	-387	-347
5276482	-1107	-364	-223
5276810	-919	-356	-154
5277138	-755	-320	-71
5277466	-770	-253	-92
5277794	-954	-229	-93
5278122	-1154	-188	-159
5278450	-1472	-207	-124
5278778	-1362	-234	-139
5279106	-1181	-130	-137
5279434	-1101	-36	-126
5279762	-950	61	-93
5280090	-897	222	-109
5280418	-877	107	-91
5280746	-740	-86	-101
5281074	-483	4	31
5281402	-381	-80	221
5281730	-544	-20	476
5282058	-960	262	733
5282386	-1532	261	1001
5282714	-2256	261	1233
5283042	-2460	922	1470
5283370	-2703	1089	1708
5283698	-2753	1312	1911
5284026	-2818	1647	2004
5284354	-2515	1652	2103
5284682	-2027	1787	2125
5285010	-1908	1903	2197
5285338	-1943	2223	1876
5285666	-2635	3143	1227
5285994	-3068	4081	937
5286322	-3245	4266	1415
5286650	-3745	4307	1794
5286978	-4519	5143	1700
5287306	-4939	5842	1321
5287634	-5163	5576	869
5287962	-4561	5383	660
5288290	-3978	5391	91
5288618	-3270	4575	-1161
5288946	-2021	2790	-2565
5289274	-326	1389	-3458
5289602	1902	154	-4772
5289930	3391	-740	-5174
5290258	4415	-1896	-5691
5290586	4681	-2608	-6140
5290914	4697	-2545	-6220
5291242	4194	-2891	-5989
5291570	4205	-2647	-4131
5291898	4857	-1503	-624
5292226	3800	-379	1046
5292554	865	1502	-500
5292882	-2724	1156	-2059
5293210	-4514	-1104	-2752
5293538	-3384	-1937	-2319
5293866	-2027	-1354	-1412
5294194	-1160	-269	-1236
5294522	-359	-471	-1283
5294850	201	-438	-1695
5295178	13	-306	-1762
5295506	-533	-64	-1604
5295834	-1053	213	-1507
5296162	-1286	119	-1354
5296490	-1014	159	-949
5296818	-275	107	-395
5297146	882	46	-131
5297474	1632	267	-5
5297802	2070	608	53
5298130	1641	730	189
5298458	680	661	412
5298786	-259	713	561
5299114	-1480	903	685
5299442	-1939	1019	577
5299770	-2127	587	448
5300098	-1531	428	262
5300426	-664	225	151
5300754	85	254	75
5301082	642	-24	16
5301410	664	218	-101
5301738	598	3	-83
5302066	313	178	-55
5302394	24	217	4
5302722	-275	197	121
5303050	-442	405	138
5303378	-502	320	206
5303706	-503	288	197
5304034	-285	325	173
5304362	-205	246	114
5304690	-158	220	92
5305018	-124	211	80
5305346	-226	89	80
5305674	-257	56	119
5306002	-217	51	83
5306330	-263	142	30
5306658	-78	92	-24
5306986	66	65	48
5307314	156	121	45
5307642	126	260	33
5307970	86	284	51
5308298	21	390	31
5308626	40	339	26
5308954	29	285	9
5309282	-9	356	-2
5309610	-28	304	-25
5309938	-45	230	-53
5310266	-149	190	-56
5310594	-106	182	-80
5310922	-45	126	-104
5311250	56	43	-156
5311578	150	27	-175
5311906	203	32	-218
5312234	214	-58	-290
5312562	219	-107	-410
5312890	168	-231	-593
5313218	157	-288	-684
5313546	101	-320	-776
5313874	154	-237	-844
5314202	155	-257	-881
5314530	185	-294	-897
5314858	190	-301	-924
5315186	259	-290	-1002
5315514	279	-432	-1057
5315842	390	-448	-1124
5316170	492	-410	-1152
5316498	609	-455	-1191
5316826	653	-503	-1245
5317154	676	-535	-1305
5317482	712	-563	-1360
5317810	668	-564	-1395
5318138	568	-573	-1470
5318466	473	-641	-1493
5318794	383	-599	-1517
5319122	214	-585	-1526
5319450	62	-545	-1564
5319778	-58	-553	-1556
5320106	-196	-507	-1522
5320434	-304	-501	-1545
5320762	-356	-509	-1576
5321090	-180	-530	-1608
5321418	-65	-618	-1661
5321746	42	-575	-1628
5322074	133	-510	-1521
5322402	83	-466	-1437
5322730	-86	-434	-1417
5323058	-261	-418	-1399
5323386	-388	-367	-1349
5323714	-590	-325	-1321
5324042	-606	-294	-1245
5324370	-690	-286	-1215
5324698	-724	-275	-1171
5325026	-644	-311	-1161
5325354	-490	-309	-1208
5325682	-218	-340	-1255
5326010	21	-381	-1176
5326338	105	-218	-1073
5326666	213	-208	-968
5326994	-43	-131	-860
5327322	-255	-138	-796
5327650	-441	-145	-774
5327978	-491	-66	-762
5328306	-414	-116	-706
5328634	-253	-143	-643
5328962	-77	-117	-607
5329290	23	-140	-561
5329618	71	-94	-529
5329946	33	-76	-491
5330274	11	-130	-467
5330602	-80	-230	-413
5330930	-34	-97	-415
5331258	-107	-91	-403
5331586	-54	-19	-301
5331914	-61	9	-167
5332242	-215	72	-96
5332570	-225	121	-31
5332898	-277	118	33
5333226	-354	143	56
5333554	-277	172	42
5333882	-160	145	38
5334210	-8	139	72
5334538	117	190	113
5334866	221	219	185
5335194	232	210	201
5335522	130	208	233
5335850	176	242	279
5336178	241	214	318
5336506	265	320	407
5336834	316	335	456
5337162	296	316	499
5337490	212	365	544
5337818	244	392	570
5338146	190	350	588
5338474	221	375	629
5338802	306	393	709
5339130	301	424	782
5339458	292	501	834
5339786	242	447	879
5340114	197	523	928
5340442	207	557	954
5340770	252	518	994
5341098	213	602	1049
5341426	252	593	1092
5341754	226	610	1130
5342082	221	603	1192
5342410	168	609	1256
5342738	99	661	1300
5343066	75	678	1299
5343394	15	679	1305
5343722	-20	905	1489
5344050	-124	722	1332
5344378	-186	757	1249
5344706	-195	796	1300
5345034	-225	811	1335
5345362	-262	799	1342
5345690	-288	781	1339
5346018	-289	744	1342
5346346	-281	790	1307
5346674	-285	751	1323
5347002	-313	729	1320
5347330	-319	674	1304
5347658	-552	739	1415
5347986	-811	718	1430
5348314	-1051	680	1432
5348642	-1247	783	1363
5348970	-1307	718	1292
5349298	-1142	639	1239
5349626	-935	655	1187
5349954	-746	651	1158
5350282	-566	597	1105
5350610	-597	571	1052
5350938	-619	635	1024
5351266	-526	528	975
5351594	-357	496	963
5351922	-247	510	908
5352250	-216	506	850
5352578	-178	472	768
5352906	-17	495	746
5353234	104	402	745
5353562	97	451	758
5353890	-12	491	766
5354218	-160	509	746
5354546	-279	472	727
5354874	-358	487	695
5355202	-354	462	655
5355530	-245	447	617
5355858	-123	444	550
5356186	55	322	491
5356514	201	373	425
5356842	239	329	389
5357170	204	345	374
5357498	111	381	354
5357826	21	357	300
5358154	-9	293	256
5358482	17	313	215
5358810	77	228	205
5359138	157	231	212
5359466	229	260	191
5359794	268	217	189
5360122	270	260	162
5360450	290	281	187
5360778	289	271	180
5361106	222	287	184
5361434	144	272	172
5361762	110	265	164
5362090	121	245	165
5362418	187	201	156
5362746	273	198	139
5363074	344	189	134
5363402	342	156	108
5363730	307	143	99
5364058	228	151	75
5364386	147	150	42
5364714	79	122	0
5365042	65	96	-19
5365370	73	85	-34
5365698	83	56	-76
5366026	111	64	-97
5366354	129	48	-126
5366682	131	42	-137
5367010	165	5	-138
5367338	195	-22	-168
5367666	324	-85	-174
5367994	359	-8	-193
5368322	408	-81	-210
5368650	437	-119	-201
5368978	468	-145	-202
5369306	502	-49	-232
5369634	570	-49	-224
5369962	680	-67	-187
5370290	647	105	-207
5370618	609	86	-214
5370946	654	61	-224
5371274	785	124	-217
5371602	929	53	-206
5371930	1014	-40	-153
5372258	946	2	-155
5372586	892	113	-119
5372914	696	46	-75
5373242	505	95	-53
5373570	354	162	-19
5373898	236	171	5
5374226	234	98	4
5374554	256	128	17
5374882	261	83	1
5375210	247	81	-5
5375538	214	95	-17
5375866	187	34	-30
5376194	145	6	-30
5376522	127	-5	-43
5376850	72	3	-52
5377178	24	26	-63
5377506	-32	26	-81
5377834	-195	52	-81
5378162	-352	109	-38
5378490	-482	130	-19
5378818	-594	164	-14
5379146	-633	190	-29
5379474	-697	132	-39
5379802	-656	193	4
5380130	-628	226	9
5380458	-541	225	48
5380786	-502	253	34
5381114	-411	246	30
5381442	-309	231	-10
5381770	-140	212	36
5382098	-109	197	30
5382426	-99	241	24
5382754	-135	223	27
5383082	-183	231	29
5383410	-236	240	13
5383738	-320	207	19
5384066	-415	235	37
5384394	-463	262	39
5384722	-477	226	42
5385050	-441	262	54
5385378	-370	264	68
5385706	-336	242	70
5386034	-311	262	79
5386362	-269	288	81
5386690	-281	189	86
5387018	-243	251	69
5387346	-219	212	65
5387674	-208	238	75
5388002	-210	253	87
5388330	-212	194	71
5388658	-218	226	64
5388986	-203	188	58
5389314	-182	172	76
5389642	-103	164	49
5389970	-75	150	31
5390298	-50	160	32
5390626	-49	161	34
5390954	-69	154	35
5391282	-83	173	33
5391610	-120	169	34
5391938	-128	164	19
5392266	-136	133	16
5392594	-108	160	5
5392922	-129	147	18
5393250	-115	143	7
5393578	-142	144	-7
5393906	-161	171	-5
5394234	-148	155	-11
5394562	-160	155	-18
5394890	-113	143	-15
5395218	-68	117	-16
5395546	-8	123	6
5395874	-11	158	12
5396202	-23	133	17
5396530	-34	153	20
5396858	-6	127	28
5397186	20	125	9
5397514	9	146	17
5397842	17	137	9
5398170	33	112	-3
5398498	38	114	-23
5398826	51	98	-26
5399154	106	114	-21
5399482	121	91	-27
5399810	114	111	-7
5400138	63	87	-9
5400466	3	130	4
5400794	-28	136	-8
5401122	-56	128	-24
5401450	-53	131	-29
5401778	-21	126	-36
5402106	-20	114	-52
5402434	-3	110	-47
5402762	28	117	-57
5403090	21	121	-54
5403418	17	111	-36
5403746	31	126	-64
5404074	89	99	-65
5404402	84	120	-78
5404730	87	108	-123
5405058	-148	307	-168
5405386	-229	435	-237
5405714	1	258	-215
5406042	74	225	-206
5406370	98	258	-206
5406698	30	227	-232
5407026	18	181	-217
5407354	77	141	-200
5407682	64	137	-206
5408010	108	69	-181
5408338	85	71	-177
5408666	86	94	-165
5408994	35	106	-148
5409322	24	63	-128
5409650	-82	56	-109
5409978	-92	59	-102
5410306	-69	6	-99
5410634	-60	-45	-112
5410962	-8	32	-113
5411290	9	13	-110
5411618	10	10	-108
5411946	13	2	-110
5412274	4	24	-120
5412602	25	-14	-115
5412930	19	0	-110
5413258	79	99	-96
5413586	96	43	-97
5413914	12	37	-89
5414242	25	93	-97
5414570	-9	183	-102
5414898	-73	255	-147
5415226	-18	199	-188
5415554	45	231	-191
5415882	195	160	-151
5416210	146	113	-131
5416538	132	140	-122
5416866	69	113	-116
5417194	2	157	-111
5417522	-42	146	-108
5417850	-58	182	-110
5418178	-54	142	-110
5418506	-62	123	-110
5418834	-85	95	-101
5419162	-113	81	-91
5419490	-142	84	-69
5419818	-186	89	-79
5420146	-201	85	-91
5420474	-168	62	-76
5420802	-97	41	-77
5421130	-71	43	-61
5421458	-45	11	-50
5421786	-58	43	-60
5422114	-71	29	-59
5422442	-83	5	-60
5422770	-84	26	-41
5423098	-60	31	-38
5423426	-33	48	-40
5423754	-3	24	-44
5424082	7	7	-42
5424410	28	-11	-44
5424738	17	-13	-16
5425066	23	2	-15
5425394	49	-42	4
5425722	47	-63	8
5426050	52	-11	4
5426378	51	41	-8
5426706	59	115	-30
5427034	115	86	-29
5427362	99	44	-16
5427690	45	29	-32
5428018	-23	113	-49
5428346	-34	112	-54
5428674	-51	99	-51
5429002	-26	129	-50
5429330	-62	151	-73
5429658	-92	195	-59
5429986	-95	189	-73
5430314	-107	143	-75
5430642	-113	238	-76
5430970	-109	167	-65
5431298	-133	150	-65
5431626	-202	228	-60
5431954	-241	237	-70
5432282	-280	244	-81
5432610	-244	204	-74
5432938	-190	183	-66
5433266	-180	159	-43
5433594	-148	168	-43
5433922	-133	151	-40
5434250	-110	133	-30
5434578	-98	164	-39
5434906	-77	139	-39
5435234	-75	136	-31
5435562	-93	115	-21
5435890	-103	106	-20
5436218	-89	133	-21
5436546	-76	131	-9
5436874	-63	86	-9
5437202	-34	90	-24
5437530	-16	97	-39
5437858	-6	121	-42
5438186	-20	158	-32
5438514	-51	154	-37
5438842	-91	141	-44
5439170	-107	152	-52
5439498	-146	132	-53
5439826	-94	168	-45
5440154	-81	137	-42
5440482	-52	105	-38
5440810	-50	123	-33
5441138	-30	173	-38
5441466	-50	125	-39
5441794	-29	113	-48
5442122	-18	121	-42
5442450	-37	137	-53
5442778	-57	135	-46
5443106	-67	103	-38
5443434	-100	139	-32
5443762	-107	134	-26
5444090	-95	125	-27
5444418	-53	127	-39
5444746	-26	108	-17
5445074	-11	102	-22
5445402	1	88	-10
5445730	-11	95	3
5446058	-37	100	16
5446386	-45	66	13
5446714	-46	44	34
5447042	10	72	59
5447370	52	30	98
5447698	63	-6	95
5448026	90	1	102
5448354	101	-34	81
5448682	55	-13	74
5449010	46	-3	63
5449338	30	28	64
5449666	4	93	70
5449994	-14	104	58
5450322	-91	133	37
5450650	-92	99	26
5450978	-91	116	21
5451306	-61	122	26
5451634	-65	100	40
5451962	-49	124	40
5452290	56	114	44
5452618	37	110	48
5452946	-8	151	63
5453274	-85	161	49
5453602	-101	140	71
5453930	-38	148	67
5454258	16	163	87
5454586	47	186	91
5454914	68	241	93
5455242	37	253	75
5455570	38	197	78
5455898	12	226	81
5456226	-14	265	81
5456554	0	218	88
5456882	13	212	79
5457210	17	216	97
5457538	22	214	79
5457866	13	230	90
5458194	-40	242	90
5458522	-74	255	69
5458850	-131	248	83
5459178	-156	240	77
5459506	-141	200	87
5459834	-140	239	79
5460162	-98	207	51
5460490	-55	212	67
5460818	-31	200	79
5461146	-14	207	74
5461474	-36	223	75
5461802	-64	222	56
5462130	-85	201	59
5462458	-98	234	62
5462786	-89	216	49
5463114	-70	192	41
5463442	-38	175	41
5463770	-45	153	42
5464098	-43	157	40
5464426	-53	156	41
5464754	-43	162	38
5465082	-47	151	24
5465410	-27	160	28
5465738	-27	161	29
5466066	-25	137	34
5466394	-18	137	32
5466722	-22	149	40
5467050	-31	145	45
5467378	-55	121	23
5467706	-109	121	34
5468034	-164	140	53
5468362	-236	119	40
5468690	-232	137	22
5469018	-188	132	-6
5469346	-183	98	-1
5469674	-164	71	-25
5470002	-133	83	-25
5470330	-130	87	-30
5470658	-167	-28	-53
5470986	-183	-69	-75
5471314	-259	-207	-126
5471642	-160	-35	-88
5471970	-194	52	-122
5472298	-200	-33	-94
5472626	-193	-60	-24
5472954	-226	131	-23
5473282	-241	34	4
5473610	-228	76	21
5473938	-246	49	16
5474266	-323	126	33
5474594	-553	94	68
5474922	-791	139	91
5475250	-1175	185	100
5475578	-1373	149	191
5475906	-1457	203	323
5476234	-1435	130	470
5476562	-1413	121	599
5476890	-1607	503	894
5477218	-1327	519	1093
5477546	-1408	428	1334
5477874	-1517	525	1453
5478202	-1468	923	1837
5478530	-1510	1266	2315
5478858	-1186	1561	2666
5479186	-689	1580	2898
5479514	-446	1459	3169
5479842	-329	1674	3583
5480170	62	1993	3821
5480498	185	2067	4443
5480826	391	2050	5027
5481154	215	2134	5792
5481482	103	2642	5599
5481810	-82	2465	5243
5482138	-59	1592	4358
5482466	272	1959	4329
5482794	575	1866	4226
5483122	389	1657	4888
5483450	277	1957	5553
5483778	-81	1826	5843
5484106	-92	1440	5843
5484434	692	1320	5514
5484762	1704	1538	5387
5485090	1901	1841	5268
5485418	1810	2596	5066
5485746	893	3187	4634
5486074	-65	3114	4537
5486402	-562	2447	4401
5486730	-206	2042	4149
5487058	247	1929	3296
5487386	1344	2204	915
5487714	2400	2007	257
5488042	1032	3788	-1035
5488370	-124	2174	-1860
5488698	-1529	933	-4023
5489026	-785	-57	-5377
5489354	855	-1076	-5817
5489682	638	-610	-5919
5490010	-2834	143	-5631
5490338	-5374	-1304	-5915
5490666	-6187	-2876	-6858
5490994	-6568	-3877	-6907
5491322	-7048	-5241	-7082
5491650	-7094	-6227	-7550
5491978	-6626	-6803	-7885
5492306	-7437	-7005	-7697
5492634	-5571	-7250	-6364
5492962	-6384	-9027	-6947
5493290	-4121	-10459	-7779
5493618	-1086	-9034	-5903
5493946	2554	-2645	-2315
5494274	4556	-1172	2031
5494602	2206	-126	3135
5494930	-350	72	2243
5495258	-2203	-990	709
5495586	-2797	-799	-75
5495914	-2219	-729	-551
5496242	-1505	-1642	-809
5496570	-276	-1906	-1082
5496898	1032	-2184	-1201
5497226	2811	-1922	-1096
5497554	2940	-2030	-680
5497882	2652	-1536	61
5498210	2248	-775	373
5498538	1609	-215	1108
5498866	91	410	1390
5499194	-702	858	1860
5499522	-131	-21	3583
5499850	2155	-1839	4970
5500178	-1192	5496	3322
5500506	9052	-2864	14248
5500834	2688	15845	17160
5501162	-10	21834	12107
5501490	-2763	7154	4701
5501818	-6261	-10055	4069
5502146	-1454	44	2279
5502474	-1339	6690	254
5502802	2928	5623	1773
5503130	5130	6330	2454
5503458	-1789	6032	1507
5503786	-9726	22211	-1675
5504114	-1548	-18375	3650
5504442	-2038	-14840	2790
5504770	7105	-7336	-844
5505098	16223	-6291	-1811
5505426	14376	-7804	-5683
5505754	6916	3356	-2550
5506082	-2699	9754	-1460
5506410	-6864	5331	-4044
5506738	-6115	3336	-7831
5507066	-3985	-1239	-7257
5507394	-2659	-4233	-5299
5507722	-3268	-6955	-3615
5508050	-499	-4629	-2777
5508378	-208	-3574	-3993
5508706	311	-3341	-4478
5509034	827	-4004	-4498
5509362	1780	-3899	-4818
5509690	2075	-2887	-5197
5510018	2826	-1689	-4781
5510346	2733	-1160	-4463
5510674	2616	-1575	-4339
5511002	1859	-1454	-4193
5511330	1645	-1155	-3666
5511658	521	-1657	-3169
5511986	-737	-1126	-3121
5512314	-1048	-572	-2758
5512642	-1182	-426	-2273
5512970	-1539	-223	-1805
5513298	-1958	32	-1336
5513626	-1972	289	-903
5513954	-2385	243	-830
5514282	-2213	222	-576
5514610	-1945	158	-294
5514938	-1511	139	-92
5515266	-1008	105	-119
5515594	-427	234	6
5515922	165	142	5
5516250	525	69	-69
5516578	713	38	-154
5516906	806	-10	-229
5517234	792	-56	-266
5517562	671	-63	-298
5517890	542	92	-348
5518218	567	375	-294
5518546	-399	305	-328
5518874	-246	382	-241
5519202	-374	335	-85
5519530	-303	276	5
5519858	-380	238	116
5520186	-374	241	183
5520514	-380	428	189
5520842	-178	531	243
5521170	445	279	412
5521498	439	316	390
5521826	485	277	337
5522154	602	251	254
5522482	909	113	236
5522810	1354	42	239
5523138	1745	75	250
5523466	1947	108	223
5523794	1777	118	161
5524122	1355	-6	142
5524450	828	45	155
5524778	343	294	247
5525106	-156	428	390
5525434	-516	349	448
5525762	-659	305	466
5526090	-710	203	473
5526418	-598	162	535
5526746	-479	51	571
5527074	-411	117	588
5527402	-385	95	617
5527730	-318	50	594
5528058	-350	104	544
5528386	-374	175	465
5528714	-310	169	339
5529042	-208	118	264
5529370	-244	166	248
5529698	-334	205	218
5530026	-354	142	136
5530354	-290	143	81
5530682	-169	80	44
5531010	-92	64	36
5531338	-36	98	29
5531666	-69	124	21
5531994	-113	73	53
5532322	-198	106	87
5532650	-296	106	141
5532978	-395	95	169
5533306	-490	108	217
5533634	-567	95	243
5533962	-650	85	275
5534290	-754	120	321
5534618	-879	147	370
5534946	-991	187	402
5535274	-1056	178	441
5535602	-1083	182	463
5535930	-1094	233	467
5536258	-1060	259	447
5536586	-892	218	396
5536914	-727	208	348
5537242	-561	207	303
5537570	-357	273	313
5537898	-254	162	282
5538226	-107	138	175
5538554	-41	63	93
5538882	-177	201	62
5539210	-284	170	5
5539538	-351	138	-84
5539866	-508	257	-150
5540194	-633	208	-224
5540522	-726	215	-263
5540850	-742	224	-274
5541178	-683	174	-288
5541506	-615	142	-297
5541834	-502	153	-324
5542162	-380	136	-344
5542490	-227	116	-324
5542818	-85	125	-267
5543146	10	107	-211
5543474	42	160	-203
5543802	66	123	-164
5544130	67	160	-133
5544458	93	166	-77
5544786	42	152	-41
5545114	-41	147	-39
5545442	-162	185	-32
5545770	-261	214	-52
5546098	-313	214	-37
5546426	-344	200	-52
5546754	-307	173	-26
5547082	-286	154	-48
5547410	-249	172	-40
5547738	-194	160	-17
5548066	-149	160	-23
5548394	-76	130	-18
5548722	-7	140	3
5549050	35	147	24
5549378	65	143	47
5549706	78	133	41
5550034	97	125	34
5550362	66	111	47
5550690	49	126	35
5551018	18	135	22
5551346	-20	139	12
5551674	-90	146	20
5552002	-152	171	15
5552330	-207	185	12
5552658	-223	162	27
5552986	-243	163	23
5553314	-240	183	11
5553642	-246	170	2
5553970	-234	158	15
5554298	-196	141	20
5554626	-155	130	8
5554954	-104	139	8
5555282	-17	126	14
5555610	-10	150	11
5555938	-40	159	-1
5556266	-51	166	-9
5556594	-73	165	6
5556922	-83	167	3
5557250	-108	168	-13
5557578	-106	167	-14
5557906	-101	172	-21
5558234	-99	170	-17
5558562	-93	188	-31
5558890	-85	182	-18
5559218	-105	182	-18
5559546	-102	203	-20
5559874	-102	204	1
5560202	-88	199	-3
5560530	-33	210	29
5560858	-18	220	16
5561186	3	195	17
5561514	15	194	33
5561842	13	199	32
5562170	17	214	35
5562498	4	188	41
5562826	3	196	49
5563154	17	195	59
5563482	28	190	43
5563810	49	185	50
5564138	38	193	37
5564466	56	179	27
5564794	77	200	21
5565122	48	204	26
5565450	13	194	7
5565778	12	182	4
5566106	4	188	-11
5566434	0	185	-17
5566762	18	173	-1
5567090	45	186	10
5567418	50	199	-18
5567746	85	176	-31
5568074	109	168	-32
5568402	109	175	-47
5568730	114	170	-38
5569058	90	172	-34
5569386	67	169	-18
5569714	23	173	-30
5570042	-3	175	-27
5570370	-11	176	-36
5570698	-23	178	-38
5571026	-24	163	-45
5571354	-30	186	-54
5571682	-55	171	-53
5572010	-89	182	-65
5572338	-78	181	-60
5572666	-51	169	-75
5572994	-4	164	-73
5573322	37	167	-74
5573650	48	154	-75
5573978	57	146	-73
5574306	43	167	-74
5574634	23	162	-79
5574962	16	157	-85
5575290	20	156	-85
5575618	1	159	-77
5575946	-9	169	-81
5576274	-14	155	-72
5576602	-22	160	-79
5576930	-30	168	-84
5577258	-43	156	-86
5577586	-25	143	-70
5577914	-32	139	-80
5578242	-22	153	-88
5578570	-4	153	-77
5578898	7	155	-73
5579226	26	147	-84
5579554	22	153	-77
5579882	19	148	-76
5580210	1	159	-61
5580538	-5	141	-69
5580866	-12	155	-63
5581194	-10	146	-50
5581522	-10	156	-52
5581850	-12	163	-39
5582178	-1	167	-44
5582506	-21	175	-44
5582834	-11	180	-44
5583162	-24	179	-57
5583490	-3	164	-51
5583818	-36	168	-58
5584146	-33	151	-55
5584474	-19	163	-60
5584802	-18	155	-72
5585130	-19	158	-71
5585458	-7	171	-68
