Time Stamp	Gyroscope X	Gyroscope Y	Gyroscope Z
RAW	RAW	RAW	RAW
no units	no units	no units	no units
1768439	-75	172	10
1768767	-60	167	22
1769095	-39	179	23
1769423	-14	175	17
1769751	16	174	26
1770079	18	175	27
1770407	27	178	30
1770735	41	178	27
1771063	9	173	29
1771391	3	184	36
1771719	-15	177	37
1772047	-29	172	32
1772375	-17	164	39
1772703	-10	159	47
1773031	-18	173	35
1773359	-33	167	21
1773687	-57	176	28
1774015	-43	189	32
1774343	-27	188	21
1774671	-17	193	22
1774999	-5	174	12
1775327	0	176	9
1775655	-13	171	1
1775983	-20	173	7
1776311	-41	169	-4
1776639	-54	161	-9
1776967	-59	165	-21
1777295	-77	166	-26
1777623	-77	165	-27
1777951	-75	164	-39
1778279	-105	154	-39
1778607	-88	151	-33
1778935	-97	170	-42
1779263	-91	154	-41
1779591	-91	167	-44
1779919	-112	155	-43
1780247	-82	141	-34
1780575	-115	165	-46
1780903	-90	158	-42
1781231	-149	153	-44
1781559	-146	149	-48
1781887	-174	154	-53
1782215	-186	146	-50
1782543	-169	136	-41
1782871	-191	133	-49
1783199	-207	141	-36
1783527	-172	124	-37
1783855	-181	138	-30
1784183	-161	128	-34
1784511	-153	133	-42
1784839	-109	126	-46
1785167	-82	154	-46
1785495	-72	141	-54
1785823	-39	135	-68
1786151	-10	121	-59
1786479	-5	112	-79
1786807	14	118	-69
1787135	18	120	-66
1787463	85	165	-131
1787791	71	130	-99
1788119	56	126	-74
1788447	57	143	-92
1788775	39	114	-85
1789103	-3	126	-79
1789431	-18	121	-67
1789759	-47	131	-49
1790087	-55	107	-74
1790415	-49	125	-66
1790743	-73	122	-75
1791071	-65	126	-71
1791399	-58	117	-74
1791727	-53	118	-60
1792055	-63	114	-60
1792383	-78	123	-67
1792711	-57	113	-71
1793039	-55	107	-74
1793367	-45	111	-74
1793695	-19	110	-62
1794023	-26	135	-72
1794351	0	132	-78
1794679	-8	129	-70
1795007	-11	119	-66
1795335	-59	134	-69
1795663	-105	135	-70
1795991	-148	117	-72
1796319	-149	123	-57
1796647	-171	104	-62
1796975	-167	113	-66
1797303	-171	114	-62
1797631	-169	121	-53
1797959	-185	104	-54
1798287	-199	97	-37
1798615	-195	113	-54
1798943	-211	119	-58
1799271	-204	125	-63
1799599	-177	131	-58
1799927	-159	121	-58
1800255	-123	132	-70
1800583	-118	145	-67
1800911	-142	131	-62
1801239	-144	131	-67
1801567	-137	139	-76
1801895	-137	143	-78
1802223	-109	150	-70
1802551	-118	128	-80
1802879	-100	140	-86
1803207	-74	143	-89
1803535	-106	127	-86
1803863	-73	138	-108
1804191	-95	130	-90
1804519	-110	161	-94
1804847	-114	138	-98
1805175	-139	136	-112
1805503	-125	132	-120
1805831	-142	132	-117
1806159	-147	140	-130
1806487	-154	156	-132
1806815	-209	150	-142
1807143	-207	137	-132
1807471	-202	157	-139
1807799	-186	136	-136
1808127	-169	134	-126
1808455	-142	136	-133
1808783	-116	137	-135
1809111	-109	150	-109
1809439	-91	143	-97
1809767	-73	145	-112
1810095	-81	139	-94
1810423	-88	128	-90
1810751	-104	127	-76
1811079	-127	124	-74
1811407	-142	116	-72
1811735	-128	123	-75
1812063	-117	157	-77
1812391	-86	135	-52
1812719	-81	141	-53
1813047	-57	155	-72
1813375	-66	158	-56
1813703	-46	159	-49
1814031	-66	145	-65
1814359	-69	167	-46
1814687	-76	161	-52
1815015	-97	155	-47
1815343	-88	142	-53
1815671	-94	152	-60
1815999	-128	146	-51
1816327	-128	143	-49
1816655	-129	145	-44
1816983	-120	149	-48
1817311	-125	147	-33
1817639	-104	148	-46
1817967	-84	148	-33
1818295	-75	150	-22
1818623	-50	149	-42
1818951	-32	150	-37
1819279	-14	160	-33
1819607	-24	149	-35
1819935	-81	163	-40
1820263	-104	160	-28
1820591	-137	144	-30
1820919	-144	159	-50
1821247	-135	171	-46
1821575	-111	159	-45
1821903	-81	160	-46
1822231	-85	169	-50
1822559	-77	167	-40
1822887	-58	167	-44
1823215	-77	163	-53
1823543	-72	177	-38
1823871	-86	183	-57
1824199	-81	179	-48
1824527	-60	172	-42
1824855	-57	181	-53
1825183	-51	171	-43
1825511	-64	173	-48
1825839	-77	183	-32
1826167	-94	174	-42
1826495	-108	166	-42
1826823	-105	174	-42
1827151	-91	179	-48
1827479	-101	183	-38
1827807	-116	189	-48
1828135	-115	191	-53
1828463	-114	186	-47
1828791	-122	184	-43
1829119	-94	174	-64
1829447	-91	202	-64
1829775	-79	195	-58
1830103	-71	187	-70
1830431	-71	187	-63
1830759	-91	183	-64
1831087	-93	176	-64
1831415	-123	185	-65
1831743	-138	182	-80
1832071	-121	185	-82
1832399	-102	174	-83
1832727	-104	164	-83
1833055	-100	175	-81
1833383	-97	176	-81
1833711	-94	160	-73
1834039	-115	158	-71
1834367	-107	157	-92
1834695	-145	167	-73
1835023	-145	181	-85
1835351	-155	163	-87
1835679	-169	190	-74
1836007	-164	178	-69
1836335	-163	159	-67
1836663	-144	162	-68
1836991	-113	164	-73
1837319	-120	169	-54
1837647	-114	153	-52
1837975	-112	156	-59
1838303	-99	138	-52
1838631	-94	166	-45
1838959	-72	154	-39
1839287	-66	161	-32
1839615	-53	141	-36
1839943	-34	131	-45
1840271	-39	117	-37
1840599	-59	121	-38
1840927	-71	127	-37
1841255	-66	127	-28
1841583	-55	117	-42
1841911	-74	120	-39
1842239	-83	116	-41
1842567	-83	111	-27
1842895	-81	126	-31
1843223	-77	107	-30
1843551	-67	106	-30
1843879	-26	104	-27
1844207	-8	110	-22
1844535	15	121	-31
1844863	-2	113	-31
1845191	-8	114	-22
1845519	-41	104	-21
1845847	-51	89	-19
1846175	-62	93	-18
1846503	-83	107	-16
1846831	-93	89	-20
1847159	-78	89	-26
1847487	-78	96	-23
1847815	-71	118	-28
1848143	-66	103	-19
1848471	-27	113	-30
1848799	9	115	-34
1849127	16	116	-30
1849455	13	111	-29
1849783	17	95	-21
1850111	18	111	-37
1850439	-30	102	-27
1850767	-60	96	-21
1851095	-76	106	-28
1851423	-96	100	-21
1851751	-92	107	-20
1852079	-93	104	-13
1852407	-70	105	-20
1852735	-58	103	-26
1853063	-54	106	-21
1853391	-46	107	-13
1853719	-50	105	-19
1854047	-56	118	-21
1854375	-55	110	-26
1854703	-48	116	-37
1855031	-37	116	-35
1855359	-40	122	-25
1855687	-45	120	-31
1856015	-74	121	-36
1856343	-82	123	-33
1856671	-103	127	-40
1856999	-91	117	-40
1857327	-109	136	-38
1857655	-90	128	-38
1857983	-84	135	-39
1858311	-83	155	-44
1858639	-74	143	-32
1858967	-68	137	-25
1859295	-49	147	-34
1859623	-26	149	-23
1859951	7	155	-20
1860279	24	159	-20
1860607	25	152	-8
1860935	59	147	-7
1861263	56	141	-16
1861591	48	143	-2
1861919	41	163	10
1862247	16	154	-5
1862575	5	167	-7
1862903	-9	152	0
1863231	-37	152	-1
1863559	-50	142	-8
1863887	-55	147	0
1864215	-77	147	-13
1864543	-70	154	-15
1864871	-81	135	-18
1865199	-119	128	-31
1865527	-145	139	-33
1865855	-175	131	-31
1866183	-204	128	-44
1866511	-205	133	-49
1866839	-220	126	-48
1867167	-206	132	-55
1867495	-212	120	-53
1867823	-202	139	-55
1868151	-197	136	-47
1868479	-177	145	-53
1868807	-174	139	-43
1869135	-165	150	-45
1869463	-157	130	-47
1869791	-140	138	-40
1870119	-151	143	-52
1870447	-144	137	-41
1870775	-122	144	-44
1871103	-122	143	-24
1871431	-123	143	-31
1871759	-123	143	-26
1872087	-104	133	-21
1872415	-93	139	-5
1872743	-82	146	-4
1873071	-74	137	-2
1873399	-72	141	-1
1873727	-53	146	12
1874055	-44	140	5
1874383	-31	133	11
1874711	-22	137	9
1875039	3	149	13
1875367	26	145	24
1875695	36	147	12
1876023	47	133	13
1876351	61	129	20
1876679	86	144	22
1877007	58	141	16
1877335	46	131	7
1877663	20	128	6
1877991	39	125	5
1878319	29	118	6
1878647	33	132	3
1878975	43	115	-5
1879303	31	120	4
1879631	33	107	7
1879959	18	102	-8
1880287	-6	113	4
1880615	-24	105	-1
1880943	-37	105	-2
1881271	-25	93	-12
1881599	-43	99	-25
1881927	-44	78	-12
1882255	-47	92	-27
1882583	-70	79	-25
1882911	-68	74	-25
1883239	-85	70	-25
1883567	-117	72	-34
1883895	-137	77	-34
1884223	-160	65	-33
1884551	-168	80	-51
1884879	-176	72	-53
1885207	-158	82	-51
1885535	-135	92	-63
1885863	-111	95	-59
1886191	-112	103	-58
1886519	-113	103	-58
1886847	-97	104	-48
1887175	-97	110	-54
1887503	-117	112	-51
1887831	-102	109	-43
1888159	-74	109	-42
1888487	-86	107	-41
1888815	-53	105	-24
1889143	-58	107	-12
1889471	-65	112	-23
1889799	-66	122	-21
1890127	-61	111	-15
1890455	-62	129	-12
1890783	-40	124	-25
1891111	-17	142	-12
1891439	-30	135	-11
1891767	-13	125	-26
1892095	18	136	-32
1892423	21	149	-38
1892751	35	149	-41
1893079	54	166	-35
1893407	67	155	-45
1893735	71	168	-37
1894063	67	163	-43
1894391	51	155	-57
1894719	38	158	-37
1895047	31	152	-44
1895375	30	158	-41
1895703	20	159	-49
1896031	0	160	-52
1896359	-15	156	-43
1896687	-50	149	-64
1897015	-52	153	-62
1897343	-65	148	-59
1897671	-77	157	-61
1897999	-61	152	-65
1898327	-67	159	-68
1898655	-54	158	-71
1898983	-68	161	-68
1899311	-95	156	-73
1899639	-98	148	-68
1899967	-113	161	-63
1900295	-106	162	-64
1900623	-107	146	-80
1900951	-101	160	-83
1901279	-89	147	-70
1901607	-106	143	-70
1901935	-97	145	-67
1902263	-100	159	-78
1902591	-97	147	-74
1902919	-107	133	-75
1903247	-107	145	-77
1903575	-100	147	-75
1903903	-89	149	-65
1904231	-77	156	-65
1904559	-79	152	-67
1904887	-62	147	-53
1905215	-54	146	-78
1905543	-59	141	-60
1905871	-69	145	-63
1906199	-89	132	-56
1906527	-90	147	-48
1906855	-105	137	-53
1907183	-100	146	-54
1907511	-110	148	-47
1907839	-100	147	-59
1908167	-85	138	-62
1908495	-71	156	-55
1908823	-51	163	-53
1909151	-51	136	-54
1909479	-65	154	-64
1909807	-63	142	-50
1910135	-53	143	-67
1910463	-46	153	-55
1910791	-53	144	-54
1911119	-59	154	-51
1911447	-72	151	-62
1911775	-61	137	-56
1912103	-76	147	-51
1912431	-85	145	-50
1912759	-96	136	-54
1913087	-101	137	-46
1913415	-97	135	-53
1913743	-100	144	-47
1914071	-86	141	-45
1914399	-81	128	-48
1914727	-70	141	-58
1915055	-58	155	-46
1915383	-59	145	-55
1915711	-62	154	-52
1916039	-53	144	-51
1916367	-42	147	-60
1916695	-43	145	-42
1917023	-57	151	-48
1917351	-64	150	-48
1917679	-71	138	-56
1918007	-71	125	-64
1918335	-97	130	-62
1918663	-96	145	-47
1918991	-94	138	-54
1919319	-102	140	-60
1919647	-97	131	-54
1919975	-78	148	-55
1920303	-81	130	-52
1920631	-87	134	-55
1920959	-63	141	-59
1921287	-45	141	-60
1921615	-34	138	-49
1921943	-50	132	-55
1922271	-60	138	-56
1922599	-61	126	-50
1922927	-75	139	-59
1923255	-78	126	-51
1923583	-84	124	-57
1923911	-87	117	-52
1924239	-112	123	-64
1924567	-113	128	-49
1924895	-112	121	-58
1925223	-120	130	-46
1925551	-89	119	-56
1925879	-79	118	-52
1926207	-67	131	-54
1926535	-59	124	-59
1926863	-42	116	-60
1927191	-32	144	-59
1927519	-50	119	-64
1927847	-2	131	-60
1928175	-4	139	-58
1928503	10	121	-66
1928831	5	117	-64
1929159	-3	130	-58
1929487	-16	117	-54
1929815	-37	111	-61
1930143	-54	123	-56
1930471	-53	112	-70
1930799	-66	108	-57
1931127	-56	108	-59
1931455	-64	112	-68
1931783	-59	107	-55
1932111	-49	120	-52
1932439	-36	130	-54
1932767	-39	116	-55
1933095	-47	123	-54
1933423	-60	120	-46
1933751	-48	110	-51
1934079	-55	112	-58
1934407	-52	100	-63
1934735	-91	118	-38
1935063	-90	111	-49
1935391	-103	116	-47
1935719	-108	121	-63
1936047	-96	122	-54
1936375	-87	100	-50
1936703	-53	124	-41
1937031	-42	110	-54
1937359	-49	114	-55
1937687	-55	120	-44
1938015	-54	115	-45
1938343	-76	127	-44
1938671	-78	126	-46
1938999	-57	116	-57
1939327	-74	114	-53
1939655	-55	121	-65
1939983	-52	128	-44
1940311	-46	118	-50
1940639	-48	114	-41
1940967	-38	130	-54
1941295	-31	128	-54
1941623	-11	133	-45
1941951	-14	133	-38
1942279	-45	137	-49
1942607	-37	127	-64
1942935	-35	126	-42
1943263	-42	143	-57
1943591	-29	136	-51
1943919	-25	140	-56
1944247	-37	133	-53
1944575	-32	130	-43
1944903	-47	117	-56
1945231	-38	109	-55
1945559	-48	100	-50
1945887	-61	103	-44
1946215	-101	94	-42
1946543	-107	108	-46
1946871	-78	103	-40
1947199	-67	105	-53
1947527	-46	101	-52
1947855	-42	105	-38
1948183	-73	108	-49
1948511	-80	93	-52
1948839	-96	112	-46
1949167	-74	111	-47
1949495	-57	114	-52
1949823	-42	101	-45
1950151	-43	97	-61
1950479	-85	106	-47
1950807	-100	103	-38
1951135	-111	107	-42
1951463	-109	100	-43
1951791	-101	107	-36
1952119	-110	106	-37
1952447	-106	120	-42
1952775	-87	124	-31
1953103	-83	126	-42
1953431	-65	132	-42
1953759	-81	121	-39
1954087	-60	123	-34
1954415	-58	128	-36
1954743	-76	124	-32
1955071	-71	121	-45
1955399	-87	122	-44
1955727	-91	130	-40
1956055	-93	133	-43
1956383	-96	139	-29
1956711	-110	124	-26
1957039	-136	121	-31
1957367	-125	114	-33
1957695	-125	121	-50
1958023	-132	130	-33
1958351	-147	113	-34
1958679	-151	110	-47
1959007	-148	104	-28
1959335	-141	101	-49
1959663	-159	87	-54
1959991	-153	84	-32
1960319	-190	82	-38
1960647	-226	77	-39
1960975	-244	75	-41
1961303	-243	81	-29
1961631	-245	90	-48
1961959	-221	85	-55
1962287	-188	99	-39
1962615	-183	111	-53
1962943	-178	109	-39
1963271	-165	111	-58
1963599	-176	127	-37
1963927	-160	124	-46
1964255	-159	111	-37
1964583	-151	121	-49
1964911	-165	115	-42
1965239	-150	120	-49
1965567	-165	119	-43
1965895	-183	128	-37
1966223	-178	130	-38
1966551	-160	131	-46
1966879	-177	134	-57
1967207	-154	119	-52
1967535	-164	133	-68
1967863	-179	130	-47
1968191	-189	127	-53
1968519	-198	135	-57
1968847	-188	136	-55
1969175	-181	130	-55
1969503	-172	145	-62
1969831	-181	137	-65
1970159	-202	141	-58
1970487	-215	122	-62
1970815	-211	137	-62
1971143	-195	122	-65
1971471	-160	142	-55
1971799	-138	139	-44
1972127	-113	144	-56
1972455	-105	145	-48
1972783	-107	142	-40
1973111	-98	145	-37
1973439	-112	137	-48
1973767	-124	139	-52
1974095	-127	139	-31
1974423	-98	141	-44
1974751	-82	135	-41
1975079	-72	152	-41
1975407	-53	144	-42
1975735	-26	147	-26
1976063	-3	131	-26
1976391	26	145	-11
1976719	47	142	-17
1977047	44	148	-10
1977375	25	141	-7
1977703	4	143	-7
1978031	-21	141	1
1978359	-50	140	8
1978687	-80	123	8
1979015	-75	126	3
1979343	-68	124	-13
1979671	-45	128	4
1979999	-5	136	1
1980327	29	148	1
1980655	50	153	-17
1980983	69	148	-10
1981311	63	149	-8
1981639	69	156	-5
1981967	39	153	-11
1982295	30	142	-13
1982623	16	150	-15
1982951	-16	156	-2
1983279	-15	143	-9
1983607	-13	145	-7
1983935	-17	149	-1
1984263	-35	156	-6
1984591	-34	145	0
1984919	-11	162	4
1985247	-39	148	-3
1985575	-52	139	8
1985903	-57	159	12
1986231	-64	145	10
1986559	-66	144	6
1986887	-73	144	17
1987215	-70	145	17
1987543	-60	150	2
1987871	-73	148	7
1988199	-97	159	13
1988527	-124	150	8
1988855	-131	149	11
1989183	-130	146	7
1989511	-129	152	-1
1989839	-103	142	-5
1990167	-98	159	2
1990495	-82	151	6
1990823	-79	160	-13
1991151	-66	164	-6
1991479	-59	153	8
1991807	-57	152	4
1992135	-23	158	2
1992463	4	155	3
1992791	16	154	9
1993119	39	164	12
1993447	37	153	14
1993775	61	139	28
1994103	70	148	29
1994431	66	138	41
1994759	77	149	28
1995087	97	140	38
1995415	103	138	40
1995743	136	136	30
1996071	145	139	27
1996399	169	152	39
1996727	155	141	33
1997055	132	145	31
1997383	118	144	25
1997711	98	144	42
1998039	72	142	34
1998367	57	140	33
1998695	21	139	47
1999023	23	175	24
1999351	-16	133	41
1999679	-39	147	41
2000007	-47	136	38
2000335	-32	140	41
2000663	-46	146	29
2000991	-91	136	26
2001319	-147	138	1
2001647	-183	140	3
2001975	-241	151	4
2002303	-240	148	-10
2002631	-263	144	-18
2002959	-256	150	-11
2003287	-240	155	-13
2003615	-230	161	-16
2003943	-225	164	-3
2004271	-208	168	0
2004599	-254	163	-3
2004927	-293	160	-4
2005255	-343	160	10
2005583	-362	168	3
2005911	-405	159	-2
2006239	-449	172	-7
2006567	-480	171	-14
2006895	-558	161	-8
2007223	-575	158	-13
2007551	-593	142	-32
2007879	-480	149	-66
2008207	-200	171	-86
2008535	42	165	-74
2008863	164	212	-84
2009191	231	184	-76
2009519	190	162	-88
2009847	60	161	-90
2010175	-91	116	-83
2010503	-234	91	-75
2010831	-339	69	-70
2011159	-410	48	-63
2011487	-442	31	-60
2011815	-465	37	-55
2012143	-426	29	-53
2012471	-382	30	-76
2012799	-343	31	-74
2013127	-322	37	-66
2013455	-308	34	-64
2013783	-268	37	-49
2014111	-233	30	-61
2014439	-158	24	-56
2014767	-122	40	-46
2015095	-107	23	-45
2015423	-88	12	-54
2015751	-56	6	-52
2016079	-19	2	-75
2016407	101	-31	-80
2016735	233	-22	-119
2017063	477	-11	-141
2017391	754	21	-197
2017719	1059	37	-240
2018047	1449	28	-289
2018375	1676	33	-320
2018703	1968	-18	-386
2019031	2156	-98	-481
2019359	2298	-105	-507
2019687	2361	-142	-476
2020015	2156	-227	-431
2020343	1716	-231	-412
2020671	1155	-339	-410
2020999	501	-428	-479
2021327	-195	-461	-509
2021655	-686	-534	-512
2021983	-1134	-592	-603
2022311	-1430	-655	-646
2022639	-1623	-694	-705
2022967	-1858	-731	-764
2023295	-2020	-697	-769
2023623	-2120	-694	-759
2023951	-2113	-667	-852
2024279	-2121	-573	-856
2024607	-2173	-502	-850
2024935	-2328	-393	-968
2025263	-2592	-412	-1100
2025591	-3124	-817	-1695
2025919	-3545	-879	-2186
2026247	-4181	-630	-2297
2026575	-4865	-758	-2346
2026903	-5582	-929	-2130
2027231	-6138	-1051	-2035
2027559	-6642	-1284	-1934
2027887	-6825	-1433	-1648
2028215	-6668	-1619	-1332
2028543	-6522	-2203	-848
2028871	-6634	-2825	-147
2029199	-7509	-3399	747
2029527	-8911	-3953	1728
2029855	-10919	-4581	2615
2030183	-12848	-5036	3267
2030511	-14561	-5440	3564
2030839	-15932	-5377	4210
2031167	-16421	-5397	4199
2031495	-16963	-5396	4412
2031823	-17429	-5150	4457
2032151	-17968	-5011	4470
2032479	-18577	-4816	4479
2032807	-18974	-4587	4420
2033135	-18916	-4345	4356
2033463	-18418	-4086	4180
2033791	-17012	-3630	3898
2034119	-15281	-3161	3411
2034447	-13233	-2598	2955
2034775	-11075	-1913	2325
2035103	-9237	-1445	1810
2035431	-7330	-898	1113
2035759	-5729	-253	371
2036087	-3802	520	-249
2036415	-1978	1367	-372
2036743	-269	1773	290
2037071	1127	1439	1158
2037399	815	874	1451
2037727	-319	722	1044
2038055	-596	718	615
2038383	-264	214	695
2038711	-820	-130	1047
2039039	-1943	-131	1161
2039367	-2758	-32	1007
2039695	-3117	281	1077
2040023	-3178	541	1031
2040351	-2583	661	1017
2040679	-2082	605	1048
2041007	-1432	724	1054
2041335	-1198	451	1081
2041663	-1091	400	1053
2041991	-1617	376	1022
2042319	-1802	342	949
2042647	-2087	341	983
2042975	-2072	324	941
2043303	-1876	330	916
2043631	-1561	446	862
2043959	-1348	413	759
2044287	-1276	412	660
2044615	-1308	380	626
2044943	-1379	381	557
2045271	-1322	305	516
2045599	-1053	282	453
2045927	-848	237	453
2046255	-719	201	400
2046583	-538	125	383
2046911	-410	136	279
2047239	-254	90	188
2047567	-142	-41	141
2047895	-45	-108	82
2048223	-79	-221	49
2048551	-145	-214	-7
2048879	-157	-238	-57
2049207	-56	-280	-99
2049535	79	-314	-106
2049863	129	-363	-122
2050191	94	-408	-101
2050519	-14	-482	-123
2050847	-73	-531	-177
2051175	-26	-474	-251
2051503	82	-504	-265
2051831	279	-631	-230
2052159	325	-608	-274
2052487	276	-683	-355
2052815	151	-784	-372
2053143	126	-805	-546
2053471	277	-949	-576
2053799	625	-1033	-699
2054127	959	-1116	-858
2054455	1282	-1077	-1037
2054783	1600	-958	-1236
2055111	1931	-886	-1465
2055439	2242	-832	-1683
2055767	2406	-824	-1902
2056095	2506	-838	-2071
2056423	2512	-862	-2203
2056751	2518	-873	-2315
2057079	2449	-846	-2343
2057407	2293	-773	-2317
2057735	2049	-712	-2235
2058063	1770	-684	-2070
2058391	1472	-646	-1952
2058719	1238	-648	-1868
2059047	1094	-443	-1793
2059375	925	-308	-1757
2059703	930	-175	-1662
2060031	1160	40	-1529
2060359	1347	144	-1431
2060687	1551	243	-1262
2061015	1608	372	-1314
2061343	1333	520	-1295
2061671	897	698	-1324
2061999	727	975	-1367
2062327	833	1252	-1260
2062655	1050	1658	-1204
2062983	1390	1876	-1098
2063311	1625	2043	-913
2063639	1797	2346	-662
2063967	1991	2396	-277
2064295	1694	2097	145
2064623	951	1899	508
2064951	8	1742	830
2065279	-827	1545	1130
2065607	-1237	1444	1344
2065935	-1264	1301	1502
2066263	-1118	1400	1546
2066591	-1092	1389	1587
2066919	-1218	1381	1655
2067247	-1416	1342	1716
2067575	-1714	1245	1759
2067903	-1944	1152	1768
2068231	-2206	1029	1753
2068559	-2551	977	1698
2068887	-2742	1045	1642
2069215	-2842	1057	1602
2069543	-2727	992	1547
2069871	-2397	955	1523
2070199	-1953	888	1487
2070527	-1347	768	1523
2070855	-593	830	1489
2071183	95	695	1477
2071511	621	454	1428
2071839	1182	372	1401
2072167	1627	136	874
2072495	1421	142	142
2072823	1415	427	-167
2073151	1905	542	109
2073479	1914	135	520
2073807	1290	-35	947
2074135	196	-162	1227
2074463	-427	-177	1433
2074791	-300	67	1360
2075119	211	230	1352
2075447	905	487	1241
2075775	1485	596	1091
2076103	1870	796	1013
2076431	2014	708	1019
2076759	1779	491	995
2077087	874	176	994
2077415	-17	-101	884
2077743	-1031	191	690
2078071	-1388	95	803
2078399	-1445	138	771
2078727	-1029	306	796
2079055	-614	323	684
2079383	-55	397	501
2079711	427	438	471
2080039	575	363	246
2080367	698	288	280
2080695	312	226	131
2081023	9	246	49
2081351	-542	148	10
2081679	-881	121	27
2082007	-1233	94	40
2082335	-1457	68	127
2082663	-1473	37	172
2082991	-1208	92	226
2083319	-767	196	277
2083647	-257	223	323
2083975	182	220	309
2084303	497	276	369
2084631	596	270	331
2084959	422	258	318
2085287	89	276	367
2085615	-85	214	367
2085943	-240	200	396
2086271	-296	164	397
2086599	-322	152	376
2086927	-364	191	343
2087255	-248	207	320
2087583	-83	278	328
2087911	23	366	265
2088239	99	440	195
2088567	85	520	188
2088895	60	517	213
2089223	-49	492	228
2089551	-204	394	260
2089879	-360	320	153
2090207	-560	246	158
2090535	-575	189	176
2090863	-437	140	102
2091191	-267	99	70
2091519	-119	102	-16
2091847	71	82	-97
2092175	222	127	-125
2092503	385	120	-218
2092831	663	126	-271
2093159	911	176	-292
2093487	1007	176	-273
2093815	928	183	-283
2094143	755	152	-267
2094471	592	115	-247
2094799	450	136	-208
2095127	283	113	-178
2095455	60	96	-173
2095783	-185	43	-162
2096111	-417	13	-160
2096439	-598	7	-117
2096767	-744	-44	-104
2097095	-869	-43	-76
2097423	-911	-82	-46
2097751	-935	-55	-34
2098079	-858	-23	-28
2098407	-740	-39	-27
2098735	-583	-18	-15
2099063	-422	4	-11
2099391	-221	27	-12
2099719	-114	58	-35
2100047	-69	75	-45
2100375	-90	90	-79
2100703	-192	95	-87
2101031	-396	76	-78
2101359	-564	55	-86
2101687	-738	38	-91
2102015	-825	49	-106
2102343	-830	55	-119
2102671	-657	142	-145
2102999	-474	257	-133
2103327	-409	267	-122
2103655	-175	290	-142
2103983	69	351	-182
2104311	203	373	-174
2104639	333	378	-181
2104967	375	383	-190
2105295	416	387	-189
2105623	336	362	-167
2105951	140	331	-226
2106279	-39	298	-150
2106607	-235	230	-134
2106935	-428	171	-158
2107263	-595	152	-187
2107591	-765	129	-177
2107919	-872	139	-187
2108247	-879	104	-175
2108575	-715	63	-161
2108903	-558	44	-140
2109231	-302	60	-146
2109559	-23	95	-173
2109887	223	134	-192
2110215	488	155	-197
2110543	673	139	-202
2110871	741	107	-167
2111199	758	68	-145
2111527	781	57	-126
2111855	853	36	-119
2112183	978	40	-122
2112511	1134	30	-144
2112839	1228	32	-158
2113167	1178	45	-153
2113495	1073	30	-118
2113823	956	-2	-88
2114151	855	-23	-87
2114479	760	-13	-96
2114807	594	-42	-90
2115135	357	-54	-110
2115463	50	-83	-108
2115791	-168	-122	-125
2116119	-385	-124	-143
2116447	-690	-121	-159
2116775	-1017	-128	-149
2117103	-1178	-50	-195
2117431	-1319	6	-223
2117759	-1373	11	-255
2118087	-1465	-11	-277
2118415	-1393	-35	-313
2118743	-1091	-101	-292
2119071	-508	36	-315
2119399	131	289	-283
2119727	487	398	-218
2120055	417	353	-188
2120383	18	201	-157
2120711	-508	84	-79
2121039	-824	-41	-46
2121367	-912	-93	-13
2121695	-1157	-92	-9
2122023	-1220	-25	52
2122351	-1183	2	99
2122679	-1156	42	55
2123007	-1085	164	66
2123335	-868	254	102
2123663	-485	296	129
2123991	-70	376	156
2124319	283	334	195
2124647	654	346	191
2124975	826	381	203
2125303	806	322	233
2125631	725	291	286
2125959	658	235	307
2126287	604	205	321
2126615	590	216	298
2126943	629	224	277
2127271	819	139	213
2127599	922	197	201
2127927	848	174	130
2128255	557	106	82
2128583	75	43	45
2128911	-411	-30	45
2129239	-750	-59	62
2129567	-738	-21	45
2129895	-462	73	-19
2130223	-53	156	-44
2130551	378	216	-49
2130879	567	244	-58
2131207	532	228	-68
2131535	361	217	-50
2131863	47	210	-30
2132191	-181	159	-23
2132519	-363	168	8
2132847	-469	162	15
2133175	-540	158	21
2133503	-548	179	8
2133831	-493	217	19
2134159	-415	217	23
2134487	-346	226	-6
2134815	-242	195	10
2135143	-148	191	5
2135471	-112	180	-3
2135799	-39	208	-12
2136127	42	196	1
2136455	129	210	-11
2136783	197	235	-5
2137111	251	252	-14
2137439	299	252	4
2137767	329	241	0
2138095	346	259	17
2138423	338	258	35
2138751	336	257	38
2139079	307	253	44
2139407	253	251	49
2139735	198	252	60
2140063	153	252	57
2140391	156	241	71
2140719	152	249	55
2141047	151	245	71
2141375	116	228	89
2141703	90	221	83
2142031	68	212	78
2142359	132	226	64
2142687	245	255	29
2143015	375	260	29
2143343	450	275	23
2143671	443	273	14
2143999	392	256	32
2144327	329	226	35
2144655	265	211	37
2144983	208	203	43
2145311	163	197	46
2145639	94	178	-38
2145967	162	191	18
2146295	171	196	28
2146623	153	194	26
2146951	129	190	12
2147279	98	206	15
2147607	80	171	8
2147935	50	172	-9
2148263	7	163	-9
2148591	22	142	-23
2148919	-6	131	-19
2149247	-5	133	-16
2149575	-7	137	-31
2149903	-8	138	-25
2150231	-8	137	-34
2150559	-20	134	-15
2150887	-21	137	-20
2151215	-28	120	-34
2151543	-33	111	-45
2151871	-58	115	-38
2152199	-99	128	-40
2152527	-135	125	-24
2152855	-188	109	-34
2153183	-211	125	-28
2153511	-216	141	-40
2153839	-217	127	-35
2154167	-217	138	-34
2154495	-213	136	-39
2154823	-237	129	-34
2155151	-292	110	-44
2155479	-317	126	-41
2155807	-319	130	-52
2156135	-283	122	-61
2156463	-260	131	-74
2156791	-196	122	-69
2157119	-168	131	-77
2157447	-137	125	-67
2157775	-151	124	-66
2158103	-151	117	-62
2158431	-182	109	-67
2158759	-187	113	-54
2159087	-218	89	-53
2159415	-280	85	-46
2159743	-303	64	-37
2160071	-287	73	-50
2160399	-247	88	-40
2160727	-206	94	-40
2161055	-166	106	-43
2161383	-118	101	-38
2161711	-86	110	-56
2162039	-47	98	-49
2162367	-3	106	-48
2162695	-26	103	-40
2163023	-58	87	-15
2163351	-34	85	-21
2163679	-45	85	-14
2164007	-30	108	-9
2164335	-22	89	-2
2164663	40	52	10
2164991	119	29	60
2165319	213	52	145
2165647	215	18	205
2165975	204	103	241
2166303	258	114	272
2166631	169	72	171
2166959	234	-111	-167
2167287	198	-244	-477
2167615	21	-329	-640
2167943	-353	-352	-623
2168271	-511	-329	-689
2168599	-733	-367	-775
2168927	-1144	-439	-920
2169255	-1634	-320	-1114
2169583	-1659	-154	-1181
2169911	-1595	-7	-1412
2170239	-1158	198	-1547
2170567	-249	431	-1659
2170895	-58	560	-1788
2171223	510	872	-1997
2171551	1049	1081	-2183
2171879	1467	1063	-2331
2172207	1451	1147	-2359
2172535	1179	1220	-2388
2172863	1165	1277	-2657
2173191	1150	1192	-2662
2173519	667	1111	-2727
2173847	176	1130	-3056
2174175	-173	1413	-3223
2174503	-572	1556	-3401
2174831	-200	1215	-3146
2175159	-123	1606	-3136
2175487	-71	1871	-3658
2175815	139	1821	-4174
2176143	588	1780	-4175
2176471	584	1632	-3946
2176799	352	1455	-4135
2177127	336	1110	-4293
2177455	517	1104	-4453
2177783	838	1181	-4558
2178111	763	965	-4671
2178439	236	889	-4665
2178767	139	1216	-4339
2179095	-232	1218	-4231
2179423	-285	1107	-4153
2179751	-513	1673	-3564
2180079	-1037	1646	-2857
2180407	-1412	1797	-2106
2180735	-992	1618	-1440
2181063	-520	1606	-297
2181391	529	736	856
2181719	-411	-1161	1645
2182047	-423	-1140	2804
2182375	655	-86	3423
2182703	1443	309	4060
2183031	2365	-110	5285
2183359	2328	-1827	6307
2183687	2423	-3274	6468
2184015	2157	-3563	6742
2184343	2436	-4206	6900
2184671	4105	-3582	7043
2184999	7353	-3294	7474
2185327	8828	-4293	9185
2185655	10503	-6099	10706
2185983	14361	-4879	11138
2186311	17774	-1668	12145
2186639	3951	-1435	6634
2186967	-12514	-2223	-3784
2187295	-9789	-756	-7086
2187623	-2394	1989	-8193
2187951	1554	1793	-6390
2188279	3231	920	-6088
2188607	989	1180	-5091
2188935	-1169	405	-3340
2189263	-2132	-249	-1693
2189591	-1796	-626	311
2189919	-1087	-1015	1629
2190247	-1631	-1404	2487
2190575	-1490	-1157	3047
2190903	-1190	-946	3172
2191231	-434	-801	3072
2191559	856	-751	2826
2191887	1030	-582	2516
2192215	1072	-543	2071
2192543	838	-545	1769
2192871	582	-424	1609
2193199	289	-248	1267
2193527	-466	-338	607
2193855	-2040	-778	-550
2194183	-1469	-1653	-1399
2194511	-412	-3737	-1875
2194839	-341	-5509	-9105
2195167	-8239	3215	-17417
2195495	-11284	10063	-17855
2195823	2960	11111	-6900
2196151	3837	-5445	865
2196479	-4991	-2197	-4174
2196807	-10071	2269	-7065
2197135	-6514	3639	-7747
2197463	-5161	2447	-5829
2197791	-1419	-223	-3335
2198119	857	-1273	-607
2198447	3463	565	1164
2198775	3212	-984	2557
2199103	-1790	-2390	5683
2199431	10977	-439	5272
2199759	196	3707	11816
2200087	-12829	-6628	-1392
2200415	-14315	-1438	-2642
2200743	-7129	823	-294
2201071	-1492	1210	2639
2201399	2890	1433	5885
2201727	6030	-115	6503
2202055	6194	-213	6681
2202383	5904	-1312	5855
2202711	5410	-1746	5034
2203039	4684	-1738	4457
2203367	3711	-1442	3760
2203695	1389	-1317	3316
2204023	-313	-1159	2813
2204351	-1808	-988	2147
2204679	-2649	-1287	2565
2205007	-3798	-1220	2196
2205335	-5578	-1407	2356
2205663	-6626	-1306	2085
2205991	-6393	-765	2130
2206319	-5028	-701	1843
2206647	-3590	-670	1917
2206975	-1226	-269	1709
2207303	264	-322	1512
2207631	1257	-274	1306
2207959	1914	-96	1148
2208287	2305	-24	1086
2208615	2507	-253	1274
2208943	2073	-288	1737
2209271	1427	-618	1871
2209599	314	-450	1475
2209927	412	181	1252
2210255	1724	366	1062
2210583	2780	821	938
2210911	3205	886	906
2211239	3130	656	822
2211567	2268	554	558
2211895	1485	618	843
2212223	382	614	444
2212551	296	502	681
2212879	-571	562	446
2213207	-830	141	-44
2213535	-282	320	-46
2213863	54	441	-140
2214191	72	350	-288
2214519	216	424	-329
2214847	290	408	-339
2215175	237	336	-411
2215503	246	335	-431
2215831	248	374	-411
2216159	206	392	-388
2216487	175	400	-370
2216815	121	426	-327
2217143	-66	441	-299
2217471	-9	462	-306
2217799	-73	450	-380
2218127	-179	463	-411
2218455	-431	447	-436
2218783	-698	437	-434
2219111	-993	379	-407
2219439	-1154	330	-410
2219767	-762	221	-342
2220095	-437	190	-311
2220423	-355	218	-338
2220751	-415	267	-391
2221079	-609	296	-433
2221407	-657	289	-446
2221735	-603	251	-403
2222063	-382	179	-364
2222391	-58	136	-287
2222719	220	121	-277
2223047	402	173	-303
2223375	493	250	-346
2223703	546	279	-375
2224031	504	307	-352
2224359	449	292	-345
2224687	273	256	-339
2225015	223	253	-303
2225343	146	291	-285
2225671	145	278	-293
2225999	125	261	-272
2226327	84	262	-319
2226655	0	276	-321
2226983	-134	257	-336
2227311	-243	254	-298
2227639	-288	215	-251
2227967	-250	214	-227
2228295	-140	237	-219
2228623	-74	283	-232
2228951	-21	335	-241
2229279	4	358	-254
2229607	3	359	-261
2229935	-19	328	-276
2230263	-59	313	-274
2230591	-139	305	-266
2230919	-266	302	-271
2231247	-346	261	-239
2231575	-387	270	-258
2231903	-337	260	-254
2232231	-250	296	-256
2232559	-136	317	-244
2232887	-74	316	-229
2233215	-22	298	-215
2233543	-53	288	-199
2233871	-112	291	-179
2234199	-156	271	-174
2234527	-133	278	-148
2234855	-78	287	-136
2235183	6	290	-137
2235511	102	298	-123
2235839	121	281	-144
2236167	122	274	-134
2236495	59	269	-113
2236823	-25	256	-80
2237151	-98	248	-76
2237479	-129	236	-67
2237807	-132	246	-61
2238135	-138	235	-56
2238463	-134	246	-58
2238791	-103	239	-70
2239119	-138	227	-61
2239447	-161	222	-69
2239775	-177	196	-59
2240103	-221	190	-54
2240431	-217	197	-49
2240759	-221	184	-54
2241087	-195	198	-36
2241415	-180	200	-71
2241743	-144	197	-46
2242071	-118	203	-63
2242399	-129	205	-45
2242727	-165	178	-41
2243055	-183	160	-28
2243383	-199	170	-31
2243711	-232	170	-29
2244039	-258	167	-23
2244367	-275	156	-34
2244695	-303	166	-28
2245023	-302	174	-5
2245351	-305	158	-27
2245679	-266	153	-23
2246007	-216	154	-25
2246335	-217	151	-12
2246663	-206	151	-22
2246991	-215	127	0
2247319	-220	126	1
2247647	-217	137	-8
2247975	-193	138	-7
2248303	-177	126	-18
2248631	-205	113	-15
2248959	-216	104	-11
2249287	-240	95	-4
2249615	-239	96	-14
2249943	-236	101	-9
2250271	-195	117	-9
2250599	-173	131	-26
2250927	-120	153	-23
2251255	-80	188	-18
2251583	-36	183	-27
2251911	8	176	-24
2252239	69	191	-31
2252567	58	186	-12
2252895	73	178	-13
2253223	62	167	-14
2253551	34	174	-16
2253879	11	178	-21
2254207	10	170	-22
2254535	-18	174	-40
2254863	-33	177	-38
2255191	-57	164	-33
2255519	-79	167	-37
2255847	-99	176	-13
2256175	-93	176	-12
2256503	-66	164	-1
2256831	-46	173	-23
2257159	-55	159	-24
2257487	-39	150	-4
2257815	-51	151	-12
2258143	-46	140	-15
2258471	-22	148	-10
2258799	-26	141	-25
2259127	-34	146	-18
2259455	-44	143	-17
2259783	-62	138	-5
2260111	-94	119	-10
2260439	-118	139	-27
2260767	-129	123	-24
2261095	-121	132	-12
2261423	-114	109	-21
2261751	-107	126	-23
2262079	-90	117	-13
2262407	-60	114	-23
2262735	-30	129	-34
2263063	-27	138	-22
2263391	-17	124	-18
2263719	-30	117	-14
2264047	-50	109	-8
2264375	-77	123	-14
2264703	-56	123	-22
2265031	-51	124	-29
2265359	-32	118	-19
2265687	-34	125	-35
2266015	-57	119	-36
2266343	-59	114	-32
2266671	-91	118	-21
2266999	-102	109	-20
2267327	-87	118	-26
2267655	-76	112	-27
2267983	-66	131	-32
2268311	-48	126	-44
2268639	-66	124	-34
2268967	-77	111	-53
2269295	-76	105	-38
2269623	-72	120	-39
2269951	-69	119	-39
2270279	-69	124	-46
2270607	-80	109	-57
2270935	-91	120	-51
2271263	-101	117	-54
2271591	-121	116	-46
2271919	-101	117	-53
2272247	-94	132	-56
2272575	-64	131	-60
2272903	-19	122	-65
2273231	24	129	-61
2273559	47	135	-68
2273887	49	139	-38
2274215	23	133	-40
2274543	15	121	-50
2274871	-6	125	-50
2275199	-38	110	-32
2275527	-53	127	-46
2275855	-52	121	-50
2276183	-45	124	-44
2276511	-44	119	-44
2276839	-41	124	-48
2277167	-45	117	-34
2277495	-29	103	-27
2277823	-59	101	-75
2278151	-40	93	-32
2278479	-36	112	-31
2278807	-46	109	-35
2279135	-56	107	-28
2279463	-70	123	-38
2279791	-69	111	-43
2280119	-75	118	-37
2280447	-81	115	-40
2280775	-93	112	-46
2281103	-83	130	-35
2281431	-88	120	-39
2281759	-89	130	-40
2282087	-95	143	-61
2282415	-96	132	-48
2282743	-88	130	-62
2283071	-95	142	-60
2283399	-108	132	-62
2283727	-134	120	-55
2284055	-150	124	-46
2284383	-164	131	-49
2284711	-142	114	-46
2285039	-127	143	-64
2285367	-118	130	-57
2285695	-93	138	-52
2286023	-102	136	-48
2286351	-97	120	-47
2286679	-104	121	-54
2287007	-126	131	-44
2287335	-119	139	-56
2287663	-103	145	-59
2287991	-70	123	-53
2288319	-49	142	-49
2288647	-28	145	-51
2288975	-26	145	-48
2289303	-13	143	-36
2289631	-14	147	-38
2289959	-9	146	-27
2290287	-15	142	-47
2290615	-24	136	-43
2290943	-26	145	-49
2291271	-36	135	-44
2291599	-63	136	-37
2291927	-69	135	-55
2292255	-56	138	-38
2292583	-74	142	-39
2292911	-86	156	-47
2293239	-85	142	-51
2293567	-84	149	-48
2293895	-82	153	-52
2294223	-110	142	-64
2294551	-105	152	-52
2294879	-105	139	-69
2295207	-86	152	-66
2295535	-58	146	-63
2295863	-46	134	-57
2296191	-18	164	-75
2296519	-20	144	-73
2296847	-11	148	-70
2297175	-41	143	-72
2297503	-51	143	-62
2297831	-51	144	-76
2298159	-50	147	-73
2298487	-53	149	-85
2298815	-41	141	-69
2299143	-37	142	-75
2299471	-45	152	-78
2299799	-39	146	-67
2300127	-49	149	-67
2300455	-51	142	-68
2300783	-50	131	-65
2301111	-38	138	-62
2301439	-35	133	-80
2301767	-28	132	-73
2302095	-8	126	-75
2302423	-43	114	-74
2302751	-74	124	-79
2303079	-76	115	-76
2303407	-10	110	-89
2303735	2	101	-94
2304063	82	98	-117
2304391	205	113	-144
2304719	331	66	-146
2305047	387	13	-156
2305375	415	-50	-155
2305703	385	-101	-154
2306031	626	-105	-214
2306359	1034	-156	-375
2306687	1314	-154	-528
2307015	1587	-63	-464
2307343	1459	-72	-459
2307671	982	-224	-449
2307999	546	-293	-418
2308327	285	-284	-438
2308655	335	-264	-452
2308983	530	-223	-468
2309311	731	-253	-477
2309639	850	-309	-463
2309967	844	-344	-452
2310295	725	-372	-459
2310623	561	-387	-471
2310951	431	-444	-471
2311279	391	-461	-469
2311607	344	-500	-474
2311935	375	-504	-470
2312263	521	-511	-479
2312591	675	-521	-488
2312919	823	-575	-520
2313247	952	-583	-528
2313575	961	-593	-512
2313903	878	-618	-480
2314231	785	-633	-451
2314559	650	-571	-435
2314887	667	-552	-459
2315215	812	-455	-576
2315543	1313	-250	-570
2315871	1729	218	-633
2316199	1597	1027	-444
2316527	1815	992	-1016
2316855	1050	983	-1314
2317183	-139	1284	-1590
2317511	-1188	1749	-1590
2317839	-1483	1787	-1425
2318167	-1298	1738	-1316
2318495	-901	2066	-1355
2318823	-257	2450	-1111
2319151	581	2541	-888
2319479	1268	2256	-706
2319807	742	1931	-693
2320135	-970	1387	-521
2320463	-3550	644	-142
2320791	-6463	-49	-20
2321119	-8927	92	44
2321447	-9959	456	168
2321775	-9084	793	356
2322103	-7691	1034	829
2322431	-6421	887	1117
2322759	-5648	1030	1370
2323087	-5198	988	1657
2323415	-4749	879	1909
2323743	-4269	966	2113
2324071	-3835	874	2283
2324399	-3342	778	2452
2324727	-2936	675	2524
2325055	-2446	549	2514
2325383	-1978	491	2363
2325711	-1426	267	2143
2326039	-611	219	1885
2326367	214	327	1666
2326695	990	256	1193
2327023	429	310	563
2327351	55	1077	369
2327679	-128	1213	591
2328007	41	748	1000
2328335	1649	860	921
2328663	3102	1052	553
2328991	3525	993	188
2329319	2610	1011	174
2329647	1245	873	396
2329975	140	664	572
2330303	-707	562	616
2330631	-1093	683	599
2330959	-862	875	453
2331287	-386	964	420
2331615	-252	957	388
2331943	-207	849	452
2332271	-453	819	476
2332599	-806	812	342
2332927	-971	769	344
2333255	-895	646	346
2333583	-609	569	278
2333911	-252	645	260
2334239	100	626	220
2334567	340	544	184
2334895	563	502	166
2335223	753	443	128
2335551	821	385	126
2335879	819	367	86
2336207	858	320	55
2336535	880	279	52
2336863	855	241	100
2337191	729	126	136
2337519	711	-37	121
2337847	657	2	164
2338175	539	26	156
2338503	503	36	169
2338831	479	78	161
2339159	310	86	167
2339487	-425	107	281
2339815	-974	46	296
2340143	-1536	-1	354
2340471	-1956	-9	407
2340799	-1970	-36	506
2341127	-1497	-54	613
2341455	-547	-53	651
2341783	576	10	607
2342111	1622	34	514
2342439	2280	127	337
2342767	2460	289	217
2343095	2408	357	103
2343423	2101	334	47
2343751	1507	355	99
2344079	882	318	215
2344407	492	309	356
2344735	308	286	411
2345063	126	311	499
2345391	9	132	361
2345719	-445	344	566
2346047	-773	292	558
2346375	-1023	244	517
2346703	-1370	200	370
2347031	-1829	154	309
2347359	-2103	97	306
2347687	-2367	6	217
2348015	-2320	-20	102
2348343	-1901	21	-76
2348671	-1237	51	-221
2348999	-390	166	-336
2349327	259	160	-389
2349655	649	144	-352
2349983	840	103	-285
2350311	820	123	-162
2350639	593	153	-101
2350967	470	142	-60
2351295	459	168	-67
2351623	450	137	-83
2351951	360	145	-86
2352279	114	101	-110
2352607	-262	-2	-115
2352935	-686	-32	-127
2353263	-950	-38	-126
2353591	-889	-52	-134
2353919	-699	-11	-134
2354247	-356	3	-172
2354575	-18	10	-197
2354903	221	40	-217
2355231	308	27	-201
2355559	289	-31	-154
2355887	84	-70	-114
2356215	-89	-83	-83
2356543	-129	-83	-121
2356871	-94	-107	-184
2357199	171	-47	-182
2357527	348	-45	-168
2357855	450	-72	-232
2358183	395	-67	-265
2358511	422	-118	-330
2358839	373	-162	-391
2359167	348	-163	-402
2359495	349	-161	-383
2359823	320	-129	-366
2360151	325	-132	-373
2360479	291	-135	-392
2360807	223	-142	-420
2361135	130	-128	-432
2361463	48	-91	-467
2361791	-129	-113	-564
2362119	-345	-121	-683
2362447	-526	-27	-833
2362775	-831	206	-875
2363103	-1241	285	-1013
2363431	-1364	241	-1330
2363759	-1402	256	-1563
2364087	-1765	332	-1843
2364415	-2100	275	-2331
2364743	-2171	389	-2719
2365071	-2034	352	-3181
2365399	-1985	428	-3696
2365727	-1643	607	-4257
2366055	-940	966	-4698
2366383	-97	1375	-4771
2366711	717	1515	-4512
2367039	1618	1634	-4359
2367367	2497	1686	-4263
2367695	2741	1602	-4002
2368023	2928	1501	-3654
2368351	3024	1019	-3222
2368679	3131	404	-3063
2369007	3595	299	-2912
2369335	3871	437	-2648
2369663	3884	170	-2451
2369991	3819	-289	-2361
2370319	3738	-967	-2003
2370647	3888	-1551	-1577
2370975	3191	-1904	-1512
2371303	2725	-2565	-1383
2371631	2171	-3104	-1162
2371959	1677	-3519	-950
2372287	996	-3897	-754
2372615	411	-4190	-637
2372943	11	-4392	-542
2373271	-56	-4553	-433
2373599	130	-4737	-333
2373927	240	-4867	-188
2374255	399	-4962	-44
2374583	450	-4979	114
2374911	243	-4923	170
2375239	59	-4915	201
2375567	9	-4798	181
2375895	208	-4696	219
2376223	640	-4556	171
2376551	1090	-4476	157
2376879	1544	-4389	141
2377207	1916	-4208	137
2377535	2247	-4017	179
2377863	2439	-3755	266
2378191	2538	-3457	371
2378519	2604	-3258	384
2378847	2247	-2951	228
2379175	1926	-2562	158
2379503	1563	-2232	164
2379831	1173	-1934	149
2380159	521	-1585	285
2380487	10	-1187	585
2380815	-173	-862	971
2381143	-144	-439	1333
2381471	144	-103	1446
2381799	683	239	1119
2382127	1509	700	553
2382455	2248	1451	25
2382783	2349	2130	-379
2383111	1668	2912	-608
2383439	907	3334	-521
2383767	901	3188	-120
2384095	1240	2985	320
2384423	1388	2971	509
2384751	1107	3271	491
2385079	914	3229	393
2385407	844	2909	465
2385735	936	2551	695
2386063	795	2129	896
2386391	728	1763	974
2386719	59	1480	1062
2387047	-359	1217	1166
2387375	-635	944	1238
2387703	-1080	842	1206
2388031	-1750	772	1171
2388359	-2279	632	1135
2388687	-2535	508	1175
2389015	-2872	404	1161
2389343	-3421	684	1051
2389671	-3979	1296	725
2389999	-3946	1716	417
2390327	-3464	1423	17
2390655	-2806	1004	-445
2390983	-2560	1004	-632
2391311	-3130	1241	-692
2391639	-3403	1291	-555
2391967	-3297	1257	-384
2392295	-2649	1127	-165
2392623	-1860	1003	-58
2392951	-1179	878	-59
2393279	-848	740	-136
2393607	-690	836	-310
2393935	-721	909	-529
2394263	-1017	831	-738
2394591	-1333	717	-925
2394919	-1828	532	-1041
2395247	-1804	497	-1450
2395575	-1399	406	-1816
2395903	-713	449	-2187
2396231	174	177	-2179
2396559	829	113	-2334
2396887	1185	-247	-2411
2397215	1198	-286	-2550
2397543	1076	-305	-2617
2397871	1211	-452	-2840
2398199	1221	-420	-2859
2398527	901	-559	-2800
2398855	589	-611	-3211
2399183	-131	-773	-2991
2399511	-284	-614	-3013
2399839	-133	-604	-3106
2400167	343	-799	-2848
2400495	973	-739	-2831
2400823	1320	-798	-2746
2401151	1296	-874	-2664
2401479	1011	-920	-2579
2401807	684	-1153	-2357
2402135	632	-1365	-2207
2402463	401	-1484	-1928
2402791	614	-1589	-1735
2403119	380	-1627	-1417
2403447	76	-1836	-1159
2403775	42	-1854	-877
2404103	141	-1759	-712
2404431	-140	-1608	-573
2404759	72	-1625	-363
2405087	148	-1424	-214
2405415	68	-1341	11
2405743	162	-968	196
2406071	80	-823	288
2406399	91	-637	445
2406727	137	-437	597
2407055	169	-288	702
2407383	269	-104	794
2407711	245	18	857
2408039	295	41	936
2408367	368	55	951
2408695	467	46	999
2409023	688	123	955
2409351	848	140	942
2409679	944	133	919
2410007	946	151	789
2410335	1004	132	739
2410663	1079	168	735
2410991	1119	217	682
2411319	1057	259	709
2411647	854	251	717
2411975	823	142	678
2412303	515	303	788
2412631	278	330	791
2412959	377	281	521
2413287	83	427	770
2413615	-33	468	764
2413943	-1	459	688
2414271	97	479	685
2414599	264	552	632
2414927	546	544	588
2415255	675	467	653
2415583	538	468	670
2415911	301	360	633
2416239	64	254	578
2416567	-189	184	533
2416895	-447	29	479
2417223	-711	-59	341
2417551	-958	-116	195
2417879	-864	-126	54
2418207	-519	-105	-73
2418535	-99	-72	-134
2418863	535	-86	-164
2419191	1119	-75	-140
2419519	1594	-109	-115
2419847	2136	-288	-83
2420175	2435	-334	-119
2420503	2538	-433	-39
2420831	2727	-534	26
2421159	2877	-692	184
2421487	3253	-732	288
2421815	4291	-806	447
2422143	5526	-1012	660
2422471	6413	-1223	811
2422799	7085	-1611	891
2423127	7631	-1786	1194
2423455	7830	-1929	1437
2423783	8149	-2037	1676
2424111	8947	-1908	1484
2424439	10166	-1658	1410
2424767	11811	-1230	1168
2425095	13761	-273	1253
2425423	15066	648	855
2425751	16675	1790	385
2426079	18277	3065	-284
2426407	19676	4921	-574
2426735	21299	6428	-487
2427063	22826	7354	-497
2427391	25185	7785	-742
2427719	26753	7965	-570
2428047	26303	7908	-622
2428375	23671	7667	-1241
2428703	20299	8069	-2454
2429031	17598	8519	-3544
2429359	16098	8920	-5207
2429687	14534	8255	-5802
2430015	13781	7856	-6312
2430343	12904	7578	-6688
2430671	11962	6981	-6968
2430999	10500	6321	-7218
2431327	8802	5736	-6954
2431655	6933	4925	-6885
2431983	5795	4408	-6151
2432311	4681	3950	-5493
2432639	4490	3330	-4708
2432967	4175	3002	-3819
2433295	4123	2392	-2827
2433623	3894	1807	-1901
2433951	3746	1244	-884
2434279	3689	1099	-50
2434607	3308	976	707
2434935	2850	767	1476
2435263	2526	588	1971
2435591	2316	556	1845
2435919	2266	919	1289
2436247	2221	1184	545
2436575	2466	1726	-406
2436903	2729	2049	-1042
2437231	3124	2389	-1272
2437559	3281	2406	-1290
2437887	3101	2236	-1294
2438215	2656	2002	-1228
2438543	2071	1637	-1176
2438871	1716	1468	-1250
2439199	1657	1366	-1273
2439527	1517	1449	-1225
2439855	1325	1501	-1371
2440183	1466	1760	-1576
2440511	1453	2033	-1801
2440839	1030	2359	-2108
2441167	627	2268	-2356
2441495	397	2323	-2510
2441823	433	1962	-2530
2442151	754	1632	-2658
2442479	1180	1406	-2857
2442807	1620	1250	-2771
2443135	1939	906	-2850
2443463	1667	772	-2989
2443791	949	455	-3205
2444119	91	205	-3284
2444447	-339	242	-3526
2444775	-137	391	-3728
2445103	267	632	-3979
2445431	573	688	-4249
2445759	570	984	-4934
2446087	237	1716	-5588
2446415	-1684	1860	-6660
2446743	-2611	2214	-7609
2447071	189	1581	-6882
2447399	3972	372	-5418
2447727	717	-254	-4238
2448055	-2061	-2810	-5532
2448383	-4393	-390	-5009
2448711	-4881	-411	-4616
2449039	-3915	115	-4193
2449367	-2479	306	-3478
2449695	-2596	-341	-3446
2450023	-3284	-181	-3713
2450351	-3895	534	-4109
2450679	-2443	1291	-4250
2451007	-1095	1181	-4031
2451335	-583	942	-3468
2451663	-1089	582	-3269
2451991	-1838	551	-3396
2452319	-1900	824	-3616
2452647	-1254	977	-3418
2452975	-505	1215	-3437
2453303	-108	1270	-3418
2453631	234	1285	-3423
2453959	491	1361	-3443
2454287	611	1321	-3358
2454615	859	1300	-3359
2454943	991	1470	-3261
2455271	1023	1699	-3087
2455599	1003	1877	-2999
2455927	1235	1893	-2912
2456255	1825	1695	-2601
2456583	2275	1568	-2259
2456911	2724	1401	-1922
2457239	3289	1234	-1536
2457567	3475	956	-1247
2457895	3777	856	-1023
2458223	4004	658	-767
2458551	4310	498	-591
2458879	4962	125	-834
2459207	5817	344	-990
2459535	7224	629	-1036
2459863	8540	760	-1088
2460191	9682	907	-1273
2460519	10408	1126	-1700
2460847	11029	1439	-2125
2461175	11648	1425	-2230
2461503	12333	1292	-2440
2461831	12157	897	-2496
2462159	10867	302	-2603
2462487	8801	301	-2484
2462815	6825	-141	-2241
2463143	4990	-850	-2154
2463471	3643	-813	-1887
2463799	2873	-957	-1552
2464127	3221	-731	-900
2464455	4028	-926	-198
2464783	4356	-739	102
2465111	4189	-637	329
2465439	2259	-432	134
2465767	46	-187	163
2466095	-592	903	286
2466423	-52	2074	442
2466751	2568	2451	695
2467079	6748	3387	726
2467407	11220	4196	1100
2467735	15056	4078	1398
2468063	17519	2664	1412
2468391	18397	-241	1359
2468719	15273	-2763	1604
2469047	7131	-2086	1893
2469375	-1667	-853	1570
2469703	-6813	826	1473
2470031	-8430	-239	1582
2470359	-4234	-729	1710
2470687	755	-223	725
2471015	1729	-352	768
2471343	1140	-562	641
2471671	-998	-758	427
2471999	-2794	-233	55
2472327	-3323	22	78
2472655	-2473	-67	439
2472983	-1332	-9	692
2473311	-759	220	838
2473639	917	347	558
2473967	838	146	277
2474295	138	268	-162
2474623	-779	453	-695
2474951	-1393	436	-1308
2475279	-2063	558	-2030
2475607	-1977	1029	-2798
2475935	-2066	1263	-3566
2476263	-2185	894	-4166
2476591	-2221	851	-4768
2476919	-2141	991	-5193
2477247	-2533	1018	-5625
2477575	-2701	955	-5631
2477903	-2761	1100	-5678
2478231	-3632	309	-5041
2478559	-5278	579	-4926
2478887	-7134	-1035	-4489
2479215	-8894	-1934	-3860
2479543	-9901	-2488	-3364
2479871	-10494	-3474	-2204
2480199	-10868	-4752	-1181
2480527	-11803	-5881	-46
2480855	-13667	-7075	1758
2481183	-15427	-8791	3858
2481511	-18289	-10738	6352
2481839	-21166	-12888	8529
2482167	-23912	-14823	10091
2482495	-26399	-15707	9546
2482823	-28658	-14086	6882
2483151	-28300	-11940	4243
2483479	-25241	-9886	3841
2483807	-20884	-8016	4412
2484135	-15670	-6122	5153
2484463	-10933	-4817	6183
2484791	-6983	-2725	6467
2485119	-4954	-152	5665
2485447	-2203	2205	4751
2485775	1077	3683	5309
2486103	3210	4462	5489
2486431	3519	5033	5384
2486759	2828	3925	4500
2487087	1468	87	4350
2487415	-3251	-2684	3499
2487743	-10434	-2772	1692
2488071	-13428	735	439
2488399	-12061	1931	-429
2488727	-7369	550	84
2489055	-1263	950	336
2489383	1971	1030	1818
2489711	1252	-143	2058
2490039	995	328	1818
2490367	-1105	1126	1618
2490695	-1124	159	742
2491023	-2047	-167	525
2491351	-3291	-146	376
2491679	-4850	-303	397
2492007	-6248	-1003	-485
2492335	-7008	-821	980
2492663	-5965	-1629	40
2492991	-5778	-2088	-338
2493319	-5839	-2406	-512
2493647	-6044	-2282	-784
2493975	-6401	-2365	-859
2494303	-6579	-2315	-836
2494631	-6492	-2209	320
2494959	-7292	-3011	-1167
2495287	-7621	-3407	-1446
2495615	-7734	-3752	-1287
2495943	-7475	-4007	-1178
2496271	-7142	-4293	-1182
2496599	-8539	-4590	-32
2496927	-7008	-5107	-1199
2497255	-7478	-5798	-1267
2497583	-7649	-5776	-1102
2497911	-7840	-5935	-832
2498239	-8037	-5773	-642
2498567	-7119	-6110	-1110
2498895	-6965	-6704	-990
2499223	-7695	-8159	-706
2499551	-9303	-9331	-449
2499879	-11123	-10480	-667
2500207	-12923	-11740	-913
2500535	-14145	-12729	-1087
2500863	-15187	-13668	-1208
2501191	-15994	-14860	-1529
2501519	-16605	-16041	-1862
2501847	-17487	-16828	-2076
2502175	-18740	-17330	-2323
2502503	-19985	-18135	-2625
2502831	-20639	-18872	-2747
2503159	-20728	-19074	-2632
2503487	-20564	-19108	-2361
2503815	-20045	-19120	-1966
2504143	-19128	-19180	-1302
2504471	-18231	-18705	-1042
2504799	-17289	-17912	-247
2505127	-16224	-16699	513
2505455	-14849	-15428	1209
2505783	-13292	-14209	1771
2506111	-11863	-12853	2462
2506439	-10195	-11584	2940
2506767	-8366	-10542	3471
2507095	-7047	-9481	3792
2507423	-5915	-8552	3836
2507751	-4868	-7493	3549
2508079	-4334	-6634	2968
2508407	-4089	-4872	2480
2508735	-3342	-3468	1343
2509063	-2122	-2046	1044
2509391	-285	-982	763
2509719	1107	-237	691
2510047	2139	427	467
2510375	2714	826	247
2510703	3443	1408	29
2511031	4252	1817	-116
2511359	4992	1934	-104
2511687	5454	2050	-267
2512015	5653	2038	-339
2512343	5401	1690	-454
2512671	4661	1689	-515
2512999	3681	1455	-1132
2513327	2460	1804	-816
2513655	1383	2436	-1428
2513983	777	2600	-1825
2514311	1735	3446	-2313
2514639	4311	3946	-2698
2514967	7131	3980	-2888
2515295	9931	3769	-3016
2515623	11429	2894	-2949
2515951	10650	1798	-2532
2516279	7813	612	-1236
2516607	4634	-598	-1206
2516935	1859	-926	-462
2517263	460	-1071	-206
2517591	-299	-1705	726
2517919	-175	-1976	1084
2518247	304	-2191	1461
2518575	171	-2261	1575
2518903	-530	-2429	1750
2519231	-1025	-2536	1900
2519559	-1910	-2720	1524
2519887	-4233	-2889	1229
2520215	-7700	-2581	1682
2520543	-9760	-2436	2619
2520871	-10881	-1812	3608
2521199	-9831	-365	4211
2521527	-6156	507	3912
2521855	-4062	2311	3374
2522183	1531	3661	3233
2522511	7711	9517	3864
2522839	462	18907	10906
2523167	-7114	-11327	-2550
2523495	-18343	-13299	-5229
2523823	-15894	2234	-3307
2524151	-13948	5611	1620
2524479	-5666	4624	1943
2524807	-324	2167	2510
2525135	-1132	2156	2258
2525463	-3394	1379	1779
2525791	-6719	-756	1317
2526119	-8873	528	1098
2526447	-9834	383	739
2526775	-9814	371	998
2527103	-8056	119	1240
2527431	-6333	-279	1381
2527759	-5830	-357	1590
2528087	-5549	-39	1579
2528415	-5896	112	1448
2528743	-5814	224	1272
2529071	-6125	345	1043
2529399	-5574	391	875
2529727	-4640	407	749
2530055	-3720	831	572
2530383	-2849	1025	705
2530711	-2270	1108	704
2531039	-2018	1164	314
2531367	-1998	1227	287
2531695	-1771	1167	202
2532023	-1794	982	163
2532351	-1762	646	163
2532679	-1871	666	149
2533007	-1721	655	27
2533335	-1398	808	-146
2533663	-873	938	-226
2533991	-163	1062	-343
2534319	398	1123	-470
2534647	746	1168	-536
2534975	833	1253	-625
2535303	889	1332	-672
2535631	1189	1375	-741
2535959	1760	1349	-790
2536287	2155	1433	-943
2536615	2320	1403	-1090
2536943	2007	1375	-1203
2537271	1513	1222	-1275
2537599	1031	1165	-1371
2537927	885	1170	-1420
2538255	1011	1130	-1523
2538583	1182	1214	-1511
2538911	1388	1140	-1431
2539239	1472	1048	-1451
2539567	1380	909	-1446
2539895	1230	840	-1421
2540223	1083	863	-1385
2540551	1080	781	-1370
2540879	1097	553	-1417
2541207	1411	654	-1615
2541535	1825	813	-1512
2541863	2199	752	-1424
2542191	2495	416	-1554
2542519	2480	-59	-1726
2542847	1943	-447	-1985
2543175	1243	-1082	-2294
2543503	749	-1893	-2811
2543831	584	-2384	-3511
2544159	529	-2233	-3850
2544487	-504	-1589	-3466
2544815	927	-1032	-4879
2545143	901	-960	-5541
2545471	1725	-919	-6359
2545799	2794	-557	-7217
2546127	3028	-550	-7731
2546455	2399	-743	-8401
2546783	1154	-1641	-9027
2547111	-2278	-2238	-9655
2547439	-6227	-2344	-9675
2547767	-9642	-2703	-8941
2548095	-10902	-4284	-7570
2548423	-11340	-5542	-5276
2548751	-7049	-4907	-1831
2549079	-5866	-4215	2861
2549407	-5676	-5664	6324
2549735	-6051	-5462	8574
2550063	-5453	-5346	10329
2550391	-3389	-5310	12694
2550719	-1452	-4908	14785
2551047	863	-4417	16443
2551375	2459	-3799	18061
2551703	3362	-3483	19054
2552031	3302	-3187	19963
2552359	3005	-2790	20548
2552687	1803	-2691	20801
2553015	387	-2823	21050
2553343	-1131	-3305	21045
2553671	-2557	-3989	20987
2553999	-3151	-4998	20462
2554327	-3896	-5272	19887
2554655	-4107	-5559	19228
2554983	-4441	-6091	18691
2555311	-7358	-6446	17087
2555639	-10014	-6707	14538
2555967	-10667	-6552	13000
2556295	-9914	-6602	12076
2556623	-9134	-6341	11527
2556951	-9016	-5434	10237
2557279	-9910	-4650	8531
2557607	-10822	-4108	6162
2557935	-11469	-3229	3654
2558263	-10593	-1714	1807
2558591	-8016	349	461
2558919	-4476	1794	-917
2559247	7510	4844	-2163
2559575	-4893	7647	-6575
2559903	-7494	5436	-11228
2560231	-7844	2548	-9177
2560559	-6076	3725	-7582
2560887	-6404	2000	-6053
2561215	-7568	1244	-4806
2561543	-6997	2849	-4226
2561871	-4914	4948	-6211
2562199	-771	4512	-5781
2562527	2345	3700	-3362
2562855	338	3173	-2489
2563183	-2263	2935	-3273
2563511	-1281	3268	-2962
2563839	-55	2947	-2295
2564167	-248	2157	-2116
2564495	-1499	1411	-2086
2564823	-2449	1007	-2058
2565151	-3298	760	-1999
2565479	-3708	429	-2022
2565807	-4063	202	-1819
2566135	-4096	-656	-1701
2566463	-4880	-1377	-1398
2566791	-4514	-1494	-1335
2567119	-4738	-1268	-1379
2567447	-3973	-80	-1424
2567775	-3849	733	-1560
2568103	-2305	1549	-1581
2568431	-881	1959	-1501
2568759	492	1630	-1560
2569087	738	1315	-1551
2569415	-119	1543	-1489
2569743	-790	1316	-1209
2570071	-879	1262	-846
2570399	-457	1252	-622
2570727	214	1384	-532
2571055	788	1170	-229
2571383	1024	1156	25
2571711	859	898	216
2572039	889	664	387
2572367	578	550	501
2572695	254	283	466
2573023	67	148	492
2573351	-228	54	493
2573679	-44	41	560
2574007	385	72	660
2574335	940	-92	722
2574663	1329	-312	795
2574991	1591	-517	872
2575319	1617	-445	911
2575647	1544	-508	930
2575975	1552	-668	889
2576303	1427	-855	883
2576631	1483	-793	866
2576959	1509	-780	914
2577287	1793	-760	873
2577615	2141	-701	982
2577943	2228	-608	1021
2578271	2280	-461	1098
2578599	2444	-343	1258
2578927	2460	-405	1507
2579255	2308	-470	1701
2579583	2471	-460	1970
2579911	2771	-512	2365
2580239	3489	-696	2764
2580567	4478	-1114	3295
2580895	5122	-1615	3799
2581223	5997	-1807	4315
2581551	6438	-1827	4962
2581879	7072	-2201	5303
2582207	8410	-2262	6036
2582535	9632	-2251	6614
2582863	11095	-2329	7205
2583191	11866	-2013	7451
2583519	13605	-1550	7163
2583847	14808	-913	7479
2584175	16800	342	6976
2584503	19478	493	6396
2584831	22203	152	5771
2585159	20645	-518	3201
2585487	18094	-2340	-867
2585815	16599	-1372	-4546
2586143	15492	108	-7414
2586471	16030	639	-8601
2586799	17343	1280	-9247
2587127	17176	417	-10017
2587455	14806	-1397	-10303
2587783	10503	-3363	-10552
2588111	5720	-4809	-10450
2588439	2869	-5693	-11347
2588767	788	-5864	-10703
2589095	1130	-5802	-10534
2589423	1914	-5565	-10123
2589751	2632	-5660	-9699
2590079	3351	-5708	-9553
2590407	4308	-5718	-9340
2590735	5943	-5310	-8970
2591063	7166	-5028	-8422
2591391	7667	-4993	-7838
2591719	7601	-4962	-7269
2592047	7567	-4746	-6815
2592375	7401	-4406	-6370
2592703	7221	-4015	-5884
2593031	7185	-3924	-6056
2593359	7054	-3480	-6208
2593687	5961	-2371	-5926
2594015	5531	-1288	-5126
2594343	4828	836	-3347
2594671	5016	2207	-750
2594999	6420	3592	2487
2595327	6498	5326	4622
2595655	5660	5141	1586
2595983	7775	6178	-2749
2596311	10283	7266	-4009
2596639	11656	7136	-2473
2596967	8687	5354	-360
2597295	4892	4511	-322
2597623	1312	3100	-1479
2597951	-579	1541	-2381
2598279	-1205	1038	-1467
2598607	-2210	431	-673
2598935	-1188	970	-434
2599263	-1061	1720	78
2599591	-4591	1522	878
2599919	-5451	-289	-860
2600247	-4081	822	-1385
2600575	-2206	1441	-1120
2600903	-9	1901	-625
2601231	1869	2277	-639
2601559	2587	2610	-779
2601887	3359	3059	-1025
2602215	4404	3530	-1240
2602543	5477	3820	-1063
2602871	5716	4087	-1281
2603199	5781	4102	-1714
2603527	5605	4077	-1969
2603855	5169	4115	-2473
2604183	4861	3802	-3054
2604511	4814	3660	-3534
2604839	5309	4111	-4210
2605167	5850	4854	-4633
2605495	6533	5602	-4748
2605823	7330	6025	-4895
2606151	7644	6310	-4925
2606479	7832	6390	-4922
2606807	7920	6323	-4874
2607135	7449	6056	-4637
2607463	6981	5019	-4340
2607791	4906	3633	-3965
2608119	3199	3017	-2606
2608447	-3205	1676	-1688
2608775	-8115	-589	-3036
2609103	-9624	-730	-3324
2609431	-8502	1562	-3894
2609759	-4951	3100	-4069
2610087	-1584	2707	-2753
2610415	-368	1911	-2402
2610743	362	2140	-2331
2611071	684	2746	-2622
2611399	1377	3186	-2402
2611727	1742	3724	-2251
2612055	1627	3722	-2142
2612383	927	3366	-2306
2612711	-132	3246	-2368
2613039	-947	3084	-2489
2613367	-1059	2660	-2512
2613695	-585	2750	-2167
2614023	-275	2167	-2226
2614351	-185	1822	-2137
2614679	115	1491	-2295
2615007	110	1169	-2415
2615335	256	1263	-2419
2615663	261	1199	-2509
2615991	585	1195	-2362
2616319	492	1161	-2433
2616647	1069	1232	-2105
2616975	1348	1200	-2178
2617303	1578	1146	-2153
2617631	2012	1217	-2133
2617959	2228	1018	-2025
2618287	2488	488	-2089
2618615	2698	436	-2157
2618943	3142	482	-2095
2619271	3633	228	-2096
2619599	3895	333	-2091
2619927	4082	574	-2043
2620255	4175	537	-2102
2620583	4485	413	-2131
2620911	4990	240	-2316
2621239	5549	-17	-2707
2621567	6341	-81	-3031
2621895	7186	121	-3180
2622223	7844	222	-3349
2622551	8091	209	-3491
2622879	8023	317	-3608
2623207	7491	382	-3561
2623535	6926	209	-3552
2623863	6119	-14	-3184
2624191	5424	18	-2921
2624519	4782	94	-2625
2624847	4313	617	-2293
2625175	4741	1486	-1750
2625503	5026	1810	-1531
2625831	5693	2260	-1258
2626159	6572	2922	-744
2626487	7473	3318	55
2626815	8597	3313	832
2627143	9980	3401	1388
2627471	11038	2892	2407
2627799	11014	2387	2139
2628127	10563	183	946
2628455	6141	-1721	-519
2628783	3966	-763	-516
2629111	1203	-774	202
2629439	-1614	-607	1107
2629767	-3457	133	1293
2630095	-2589	-436	937
2630423	-672	-363	742
2630751	970	130	712
2631079	1209	381	1182
2631407	-521	-120	1575
2631735	-3715	-451	1448
2632063	-5679	-368	758
2632391	-6072	53	93
2632719	-5585	-219	-114
2633047	-4475	-339	-390
2633375	-3609	-431	-1037
2633703	-2978	-566	-1611
2634031	-2268	-353	-2203
2634359	-1058	64	-2726
2634687	430	287	-3124
2635015	1957	397	-3266
2635343	3151	325	-3271
2635671	3316	280	-3348
2635999	2622	-164	-3476
2636327	1505	-367	-3611
2636655	-350	-324	-4128
2636983	-1876	-588	-4770
2637311	-2779	-935	-5192
2637639	-3574	-1096	-5660
2637967	-4061	-1355	-6471
2638295	-4606	-1389	-7227
2638623	-4931	-1440	-7961
2638951	-5070	-1426	-8574
2639279	-4695	-864	-9521
2639607	-4370	-1037	-10812
2639935	-4383	-1119	-11127
2640263	-3917	-1723	-11039
2640591	-4958	-2790	-10372
2640919	-9008	-2509	-9160
2641247	-12845	-2277	-9065
2641575	-14916	-2254	-8814
2641903	-13849	-1096	-7525
2642231	-9827	-491	-4140
2642559	-6741	-457	-1123
2642887	-3871	-603	1344
2643215	-2237	-126	4266
2643543	-1503	192	6613
2643871	-1147	-160	8551
2644199	-753	-1040	10129
2644527	-338	-2036	11882
2644855	356	-2806	13439
2645183	499	-3302	14815
2645511	362	-3276	15740
2645839	-214	-3499	16819
2646167	-1279	-4161	17641
2646495	-2346	-4806	18018
2646823	-2782	-5457	18362
2647151	-2671	-5751	18703
2647479	-2879	-6473	19125
2647807	-3046	-7123	19595
2648135	-2048	-7301	20270
2648463	-4106	-8752	20887
2648791	-4167	-8862	20536
2649119	-3258	-8287	20438
2649447	-2383	-8370	20011
2649775	-2262	-8247	19780
2650103	-2501	-8031	19104
2650431	-2335	-7682	18156
2650759	-2417	-7991	16702
2651087	-1643	-6381	14925
2651415	-1503	-5059	12406
2651743	-1585	-4072	9793
2652071	-1571	-2596	6847
2652399	-1661	-1404	3594
2652727	-1453	-353	670
2653055	-1185	-166	-1810
2653383	-964	405	-3690
2653711	-505	1233	-5400
2654039	-2383	1109	-7045
2654367	-6197	1178	-8099
2654695	-7239	3072	-7248
2655023	-9704	3939	-6153
2655351	-10448	1286	-8117
2655679	-7491	1784	-8229
2656007	-5036	2484	-6419
2656335	-2477	2852	-4862
2656663	1020	3809	-3960
2656991	3881	5320	-3114
2657319	4200	5737	-3224
2657647	3854	6293	-2507
2657975	2027	4843	-2905
2658303	2587	4039	-4102
2658631	2163	4376	-4689
2658959	1254	4205	-4781
2659287	237	4264	-4781
2659615	18	4720	-5082
2659943	521	4839	-4860
2660271	1826	4625	-4805
2660599	3584	4642	-4855
2660927	5020	5158	-5234
2661255	6774	5654	-5208
2661583	7871	5639	-5123
2661911	8585	5425	-4930
2662239	8492	5055	-4962
2662567	7196	4539	-4536
2662895	3732	3134	-3334
2663223	-1183	1463	-2813
2663551	-5094	8	-3335
2663879	-7729	-478	-3597
2664207	-8057	182	-4031
2664535	-6496	690	-3912
2664863	-4397	780	-3438
2665191	-3297	947	-3273
2665519	-2785	687	-3291
2665847	-2205	969	-3356
2666175	-1168	1343	-3258
2666503	-389	1735	-3039
2666831	330	2072	-3245
2667159	685	2320	-3429
2667487	647	2802	-3714
2667815	230	2903	-3813
2668143	-10	2986	-3907
2668471	158	3102	-3855
2668799	673	2989	-3779
2669127	930	2817	-3601
2669455	1215	2487	-3593
2669783	1446	2024	-3576
2670111	1195	1619	-3472
2670439	470	1238	-3408
2670767	-482	1031	-3345
2671095	-1138	853	-3368
2671423	-1458	899	-3248
2671751	-1613	901	-3167
2672079	-1618	995	-3112
2672407	-1582	1038	-3182
2672735	-1241	1102	-3276
2673063	-728	1289	-3410
2673391	39	1505	-3383
2673719	797	1617	-3328
2674047	1401	1948	-3412
2674375	1845	2167	-3383
2674703	2257	2336	-3499
2675031	2836	2266	-3241
2675359	3679	2473	-3032
2675687	4717	2448	-3054
2676015	5617	2262	-3420
2676343	6529	2458	-3600
2676671	7094	2418	-3837
2676999	7387	1718	-4598
2677327	7763	1279	-5222
2677655	7898	1321	-5686
2677983	7699	1656	-5964
2678311	7957	2150	-6046
2678639	7913	2573	-5926
2678967	8021	2620	-5352
2679295	7765	1803	-4976
2679623	7034	928	-4508
2679951	5620	-277	-3999
2680279	3327	-1303	-3610
2680607	842	-1574	-2855
2680935	-989	-1613	-2071
2681263	-887	-1345	-1183
2681591	307	-1051	-161
2681919	1464	-480	942
2682247	3455	-128	2106
2682575	5508	522	3514
2682903	6735	1279	5046
2683231	6992	2306	5923
2683559	4962	2558	5469
2683887	3492	3009	3888
2684215	3664	4641	1755
2684543	6059	5572	382
2684871	9417	6175	509
2685199	12524	6611	1195
2685527	13816	6623	1315
2685855	13951	6454	737
2686183	14117	6479	45
2686511	14416	6447	-541
2686839	14362	6732	-798
2687167	13421	6665	-909
2687495	11799	5764	-859
2687823	8713	4333	-976
2688151	7219	3903	-466
2688479	5940	2518	421
2688807	3631	1644	1141
2689135	818	717	1733
2689463	-1513	114	2015
2689791	-3233	30	1918
2690119	-2755	-102	1955
2690447	-2308	206	1811
2690775	-1258	396	1657
2691103	-218	636	1549
2691431	941	768	1403
2691759	1687	1034	1192
2692087	2250	1227	971
2692415	2468	1279	788
2692743	2361	1316	617
2693071	2021	1001	494
2693399	1440	746	401
2693727	568	473	294
2694055	-437	409	351
2694383	-1177	258	389
2694711	-1467	258	452
2695039	-1419	466	610
2695367	-1373	660	728
2695695	-1172	668	794
2696023	-1105	728	840
2696351	-1335	737	832
2696679	-1673	723	698
2697007	-2029	744	619
2697335	-2355	755	347
2697663	-2611	794	109
2697991	-2650	930	-6
2698319	-2225	1073	-45
2698647	-1499	1163	-191
2698975	-778	1206	-354
2699303	-407	1397	-478
2699631	-365	1358	-514
2699959	-531	1466	-754
2700287	-318	1397	-1016
2700615	619	1607	-1392
2700943	2042	1870	-1520
2701271	3887	1751	-1435
2701599	5531	1638	-1269
2701927	6512	1458	-990
2702255	6482	1257	-860
2702583	6038	775	-878
2702911	5824	443	-826
2703239	6106	136	-504
2703567	7375	-86	271
2703895	8525	-270	1136
2704223	8810	-1274	1809
2704551	9077	-2272	1856
2704879	8888	-2751	1757
2705207	9312	-3002	1918
2705535	10361	-2952	2301
2705863	11676	-3060	2459
2706191	13110	-3150	2725
2706519	14417	-3234	3357
2706847	13841	-3058	4025
2707175	12430	-3002	4299
2707503	11259	-2190	3706
2707831	11616	-755	2885
2708159	12968	152	1098
2708487	15230	2889	-978
2708815	18783	4238	-2419
2709143	23836	5663	-4550
2709471	28727	6437	-5704
2709799	32092	6300	-6417
2710127	32767	5686	-7117
2710455	32767	6383	-8020
2710783	28221	5780	-8056
2711111	20543	4437	-9637
2711439	15121	3523	-10894
2711767	12420	3458	-11246
2712095	10759	2856	-12053
2712423	9855	2305	-12233
2712751	9049	2185	-12409
2713079	8685	2131	-12521
2713407	8557	1864	-12705
2713735	8610	2046	-12825
2714063	8669	2305	-12822
2714391	8887	2006	-12307
2714719	8431	2074	-11230
2715047	7880	2073	-10292
2715375	7685	2033	-9591
2715703	8008	2072	-9086
2716031	8765	2157	-8238
2716359	10749	3002	-6854
2716687	11858	3248	-6233
2717015	12076	3506	-5647
2717343	12044	3426	-5253
2717671	11986	3517	-4825
2717999	11780	4002	-4316
2718327	11833	4532	-4080
2718655	12385	5038	-3727
2718983	13006	5390	-3325
2719311	13381	5517	-3102
2719639	13670	5693	-2889
2719967	13397	5743	-2625
2720295	13097	5837	-2202
2720623	12582	6286	-1912
2720951	11998	6773	-1911
2721279	11091	6732	-2245
2721607	11243	7021	-2864
2721935	11348	7802	-3439
2722263	12046	8620	-3880
2722591	13300	9186	-3710
2722919	15528	9807	-3356
2723247	18965	10370	-2623
2723575	19344	9586	-2940
2723903	15334	6901	-6086
2724231	12187	6918	-6924
2724559	8878	7522	-6747
2724887	7336	6816	-6203
2725215	6163	6269	-5497
2725543	5903	7673	-5536
2725871	6019	8472	-5667
2726199	6121	7397	-5724
2726527	5993	5492	-5523
2726855	4954	3554	-5824
2727183	1898	2800	-5555
2727511	-2116	2009	-4832
2727839	-5036	1397	-4453
2728167	-7471	969	-4829
2728495	-8318	1819	-4739
2728823	-7512	3062	-4561
2729151	-5966	3412	-4466
2729479	-3088	2118	-4069
2729807	1006	3246	-3543
2730135	2072	3042	-3445
2730463	1109	1972	-3719
2730791	-343	1485	-3647
2731119	-1675	1408	-3448
2731447	-2880	1081	-3288
2731775	-4004	826	-3471
2732103	-4807	744	-3640
2732431	-5250	948	-3654
2732759	-5226	816	-3452
2733087	-5115	811	-3369
2733415	-4549	830	-3236
2733743	-3271	1041	-3185
2734071	-1820	1156	-3409
2734399	-313	1670	-3508
2734727	750	1699	-3570
2735055	1478	1717	-3536
2735383	1865	1779	-3443
2735711	1805	1956	-3384
2736039	1802	2463	-3348
2736367	1722	2771	-3211
2736695	1728	2880	-3194
2737023	1997	3102	-3135
2737351	2505	3206	-3028
2737679	2864	3089	-2882
2738007	3191	2921	-2699
2738335	3550	2733	-2510
2738663	4181	2291	-2264
2738991	4649	1806	-2093
2739319	4995	1493	-2084
2739647	5551	1311	-2134
2739975	6438	1615	-2220
2740303	7518	1821	-2310
2740631	8681	1865	-2416
2740959	9910	2068	-2432
2741287	11309	2256	-2542
2741615	12379	2302	-2703
2741943	13357	2752	-3090
2742271	13929	3183	-3334
2742599	14124	3368	-3295
2742927	13855	3009	-3689
2743255	12658	2201	-2777
2743583	11250	1355	-2524
2743911	9795	1227	-2323
2744239	8108	1255	-1973
2744567	7081	1607	-1425
2744895	7076	2126	-1221
2745223	8329	3082	-746
2745551	10261	3663	-237
2745879	12047	3753	56
2746207	12909	3914	-462
2746535	13219	3576	-634
2746863	12430	3317	-1362
2747191	10306	4062	-1541
2747519	7164	3398	-1607
2747847	4990	3162	-1553
2748175	4254	2704	-1046
2748503	5559	1277	-535
2748831	7324	-432	-117
2749159	8795	-1379	-135
2749487	8880	-468	769
2749815	4405	632	198
2750143	1465	1794	345
2750471	1045	230	1214
2750799	2875	-424	1021
2751127	6459	-58	1051
2751455	8810	258	1011
2751783	7759	-62	585
2752111	5020	-413	557
2752439	1902	-727	618
2752767	-1226	-901	590
2753095	-3165	-629	530
2753423	-4106	-493	739
2753751	-4306	-562	695
2754079	-4598	-574	563
2754407	-4639	-351	294
2754735	-4499	-160	91
2755063	-3720	43	-172
2755391	-2115	-19	-326
2755719	-796	29	-484
2756047	4	-70	-553
2756375	231	4	-645
2756703	411	125	-820
2757031	506	32	-981
2757359	194	286	-1193
2757687	90	555	-1512
2758015	-212	536	-1760
2758343	-814	499	-2055
2758671	-1747	546	-2591
2758999	-2368	533	-3270
2759327	-2871	750	-3236
2759655	-2865	1218	-3749
2759983	-2970	1501	-4101
2760311	-2167	1607	-4157
2760639	-2010	1550	-4171
2760967	-2534	1091	-4488
2761295	-3359	562	-4727
2761623	-4650	-184	-4367
2761951	-6462	-1482	-3890
2762279	-8631	-2661	-3567
2762607	-10734	-3776	-2871
2762935	-12401	-5493	-1657
2763263	-13180	-7099	-242
2763591	-13296	-8885	1173
2763919	-13499	-10177	2480
2764247	-14422	-11541	3693
2764575	-15756	-12468	4334
2764903	-18325	-12883	4671
2765231	-21434	-12687	4379
2765559	-23169	-11622	3801
2765887	-23277	-10213	3309
2766215	-20410	-8749	3500
2766543	-16473	-7197	4122
2766871	-12793	-5137	4134
2767199	-10016	-3294	3891
2767527	-7758	-1365	3267
2767855	-5106	-306	2199
2768183	-2547	408	1370
2768511	701	1049	1207
2768839	2849	988	2180
2769167	4168	1376	2525
2769495	2559	88	2379
2769823	99	-495	2081
2770151	-1921	-860	1818
2770479	-4183	-1086	1393
2770807	-5040	-619	1093
2771135	-4815	-52	961
2771463	-2978	523	822
2771791	-308	1170	786
2772119	1677	1494	538
2772447	3327	1534	403
2772775	1662	620	1176
2773103	-853	684	1063
2773431	804	-1350	261
2773759	-805	-890	140
2774087	-1407	-848	-147
2774415	-1635	-880	-58
2774743	-1536	-1231	-213
2775071	-826	-1851	-412
2775399	-1079	-1745	-473
2775727	-1390	-2162	-371
2776055	-1762	-2446	-403
2776383	-1800	-2481	-362
2776711	-1845	-2623	-321
2777039	-1709	-2568	-453
2777367	-1561	-2701	-574
2777695	-1256	-2790	-631
2778023	-497	-2933	-740
2778351	62	-3199	-822
2778679	-105	-3629	-1050
2779007	-146	-3867	-1056
2779335	-551	-4025	-898
2779663	-488	-4038	-727
2779991	-760	-4217	-243
2780319	-1144	-4157	-26
2780647	-1366	-4370	102
2780975	-1207	-4431	303
2781303	-1069	-4399	481
2781631	-887	-4645	415
2781959	-651	-4880	410
2782287	-687	-5129	618
2782615	-583	-5833	666
2782943	-1137	-6622	1049
2783271	-1139	-7365	695
2783599	-1586	-7967	519
2783927	-2846	-9087	-214
2784255	-4565	-10346	-868
2784583	-6685	-11193	-1927
2784911	-8153	-10682	-2401
2785239	-9106	-9524	-2593
2785567	-8637	-8736	-3186
2785895	-7563	-7724	-3444
2786223	-6036	-6856	-3792
2786551	-4866	-6205	-4236
2786879	-4149	-4889	-4613
2787207	-3825	-3189	-3949
2787535	-3983	-2536	-3541
2787863	-1686	-3959	-4308
2788191	-3732	-6116	-4228
2788519	-7122	-5516	-3174
2788847	-11626	-4349	-1997
2789175	-15133	-4654	-571
2789503	-18453	-4021	458
2789831	-20115	-2647	1649
2790159	-18453	-2457	3057
2790487	-14658	-2440	5007
2790815	-10721	-2486	6963
2791143	-6548	-2302	8011
2791471	-4379	-2498	9253
2791799	-3607	-2433	10311
2792127	-3877	-2795	11673
2792455	-4410	-2874	13026
2792783	-4625	-3486	14532
2793111	-5331	-3639	15866
2793439	-6574	-4140	16999
2793767	-7929	-5012	18142
2794095	-9298	-5620	19112
2794423	-9913	-6401	19493
2794751	-11315	-7345	20419
2795079	-12313	-8569	20841
2795407	-12841	-9447	21013
2795735	-12477	-10247	21065
2796063	-11227	-10850	20202
2796391	-10399	-11087	19862
2796719	-9788	-11913	19730
2797047	-10416	-12573	17937
2797375	-10990	-12520	18138
2797703	-10808	-11926	17133
2798031	-12002	-11957	14988
2798359	-12730	-10822	12729
2798687	-13368	-9651	10514
2799015	-13516	-7116	7571
2799343	-13510	-5020	4832
2799671	-12203	-3218	2026
2799999	-9927	-1279	-633
2800327	-7497	1385	-2375
2800655	-4670	2900	-4378
2800983	-1022	4483	-6145
2801311	-3928	6949	-8703
2801639	-2486	7871	-7951
2801967	-726	6795	-2728
2802295	-494	3227	-1980
2802623	-5732	3110	-3266
2802951	-7284	1182	-5034
2803279	-6034	2560	-4021
2803607	-4707	2998	-3320
2803935	-2284	3197	-2976
2804263	-1291	3266	-2324
2804591	-899	3685	-2165
2804919	-606	3704	-1973
2805247	398	3460	-1620
2805575	772	2906	-1306
2805903	224	2304	-1078
2806231	-644	1520	-745
2806559	-1658	1118	-958
2806887	-2466	831	-1207
2807215	-3330	248	-1381
2807543	-3750	-136	-1529
2807871	-3781	-6	-1588
2808199	-4215	4	-1545
2808527	-5382	115	-1674
2808855	-4237	41	-1319
2809183	-3601	300	-1170
2809511	-3098	342	-1257
2809839	-2342	487	-1225
2810167	-1261	1188	-1338
2810495	-493	1368	-1232
2810823	70	1500	-1064
2811151	528	1556	-1045
2811479	869	1516	-957
2811807	1323	1702	-830
2812135	1495	1663	-626
2812463	1631	1500	-416
2812791	1395	1232	-278
2813119	981	1089	-232
2813447	544	823	-76
2813775	295	647	77
2814103	349	588	160
2814431	344	679	226
2814759	489	743	327
2815087	588	543	409
2815415	726	387	372
2815743	1065	384	374
2816071	1200	229	467
2816399	1143	-51	532
2816727	853	-337	622
2817055	774	-591	782
2817383	768	-686	904
2817711	595	-552	1151
2818039	710	-663	1231
2818367	1111	-734	1508
2818695	1471	-843	1769
2819023	1993	-1011	2041
2819351	2461	-1259	2414
2819679	2956	-1366	2808
2820007	3811	-1594	3248
2820335	4723	-1726	3801
2820663	6066	-1709	4285
2820991	6661	-1717	4708
2821319	7411	-1500	5113
2821647	8569	-1294	5508
2821975	10576	-334	5706
2822303	12406	255	6095
2822631	13862	234	6277
2822959	15023	-404	6256
2823287	15482	-1054	6282
2823615	15886	-2139	6043
2823943	15398	-2639	5728
2824271	14798	-1918	5214
2824599	13733	-1029	4393
2824927	12960	-563	2688
2825255	11785	-1807	172
2825583	11356	-2105	-3221
2825911	11746	-1421	-5726
2826239	12479	-935	-7147
2826567	12445	-1577	-7109
2826895	10712	-1811	-7096
2827223	8215	-3240	-7766
2827551	3998	-4697	-8013
2827879	329	-5727	-8018
2828207	-1232	-6358	-8390
2828535	-1246	-5497	-8293
2828863	-614	-5080	-8387
2829191	628	-4659	-8384
2829519	2381	-4222	-8159
2829847	3820	-4010	-7811
2830175	4718	-3942	-7371
2830503	5031	-4131	-6993
2830831	4805	-4075	-6587
2831159	4636	-4083	-6157
2831487	3533	-3965	-5791
2831815	2607	-3982	-5430
2832143	1862	-3636	-5216
2832471	1822	-3066	-4833
2832799	2007	-1920	-3938
2833127	2253	-1050	-2611
2833455	1950	-148	-1142
2833783	1792	959	234
2834111	3802	2543	1609
2834439	6189	3728	2546
2834767	9695	4840	2226
2835095	8000	5287	-53
2835423	4761	4557	-2675
2835751	3908	3444	-2237
2836079	2470	2739	-313
2836407	2709	2256	724
2836735	6040	1656	924
2837063	-1065	5312	2757
2837391	-8595	-2462	-1129
2837719	-8541	-910	-1939
2838047	-5506	2485	-2698
2838375	-2608	3372	-2083
2838703	2098	2091	-769
2839031	4402	2368	-504
2839359	4426	2681	-391
2839687	3727	1752	-507
2840015	3199	1665	-484
2840343	3163	1750	-246
2840671	3182	2498	-544
2840999	3366	2734	-770
2841327	3548	2684	-1271
2841655	3948	3278	-1976
2841983	4422	3420	-2150
2842311	4471	3267	-2322
2842639	4511	3463	-2723
2842967	4255	3763	-2992
2843295	4271	4048	-3101
2843623	4003	4467	-3217
2843951	3726	4551	-3492
2844279	3820	4552	-3826
2844607	4142	4516	-4157
2844935	4602	4918	-4593
2845263	5046	5140	-5107
2845591	5055	5176	-5486
2845919	4840	5276	-5649
2846247	4217	4983	-5628
2846575	3721	4902	-5703
2846903	3039	4345	-5765
2847231	2396	4178	-5780
2847559	1953	4157	-5391
2847887	2480	4030	-5201
2848215	2004	3595	-5233
2848543	619	2889	-5127
2848871	-1424	2225	-4744
2849199	-2926	1713	-3807
2849527	-5046	987	-3693
2849855	-8424	-145	-4538
2850183	-7898	-67	-4896
2850511	-7301	888	-5126
2850839	-5303	1092	-4711
2851167	-3279	1259	-3896
2851495	-2726	328	-3348
2851823	-3923	0	-3269
2852151	-5246	579	-3196
2852479	-5195	793	-3041
2852807	-4730	409	-2857
2853135	-3795	1037	-3016
2853463	-3069	1523	-2763
2853791	-2946	1848	-2646
2854119	-2806	1654	-2337
2854447	-2870	1878	-2207
2854775	-2630	1740	-2339
2855103	-1799	1751	-2409
2855431	-919	2090	-2580
2855759	-171	2200	-2564
2856087	300	2453	-2391
2856415	208	2344	-2457
2856743	82	2079	-2509
2857071	-41	2108	-2483
2857399	163	2245	-2358
2857727	624	2250	-2265
2858055	1070	2223	-2174
2858383	1467	2150	-2183
2858711	1718	2083	-2202
2859039	2107	1940	-2033
2859367	2438	1467	-1804
2859695	2836	981	-1819
2860023	3300	530	-1761
2860351	4203	238	-1862
2860679	5136	509	-1775
2861007	5728	1389	-2060
2861335	6629	1774	-2239
2861663	7756	2235	-2482
2861991	9249	2640	-2839
2862319	11164	3346	-3460
2862647	13459	4213	-3905
2862975	15155	5292	-4309
2863303	16420	6448	-4034
2863631	15537	5289	-3425
2863959	13827	3875	-3269
2864287	11149	3316	-3999
2864615	9826	3557	-4002
2864943	9778	4066	-3180
2865271	9607	3997	-2688
2865599	9653	4368	-2153
2865927	9025	4074	-1636
2866255	8358	2911	-949
2866583	7967	2500	88
2866911	7474	2154	722
2867239	6691	1463	1555
2867567	6161	1063	2405
2867895	5183	1017	3074
2868223	2575	548	2910
2868551	2136	1567	1816
2868879	1906	1465	657
2869207	2560	1055	-21
2869535	4302	-485	148
2869863	4996	-2578	998
2870191	4106	-2655	1448
2870519	154	-1401	1436
2870847	-3034	429	1141
2871175	-3184	510	950
2871503	-29	-355	616
2871831	5205	1294	249
2872159	8240	1524	245
2872487	8930	767	361
2872815	6494	-225	81
2873143	3157	-711	-223
2873471	220	-99	-439
2873799	-922	-203	-458
2874127	-656	-195	-802
2874455	-564	-377	-998
2874783	-794	-255	-1214
2875111	-708	-396	-1937
2875439	-506	-519	-2695
2875767	293	-460	-3019
2876095	640	-261	-3389
2876423	371	-479	-3729
2876751	287	-963	-4341
2877079	-25	-1207	-4856
2877407	-414	-1540	-5405
2877735	-966	-1651	-5700
2878063	-1106	-1701	-6268
2878391	-1620	-1551	-6856
2878719	-1858	-1291	-7407
2879047	-1888	-1093	-7926
2879375	-2128	-1086	-8309
2879703	-2064	-1549	-8786
2880031	-2522	-1652	-8869
2880359	-2904	-2112	-9519
2880687	-2686	-3045	-9302
2881015	-4717	-2784	-8611
2881343	-7808	-1558	-7934
2881671	-12056	-1374	-7090
2881999	-15972	-2026	-6691
2882327	-16007	-2207	-5297
2882655	-12983	-2441	-2603
2882983	-10673	-1241	-285
2883311	-7783	-656	1619
2883639	-4990	385	4088
2883967	-4087	214	6365
2884295	-3987	-382	8647
2884623	-4109	-274	10540
2884951	-3392	-860	11849
2885279	-2379	-853	12768
2885607	-1015	-1040	14134
2885935	211	-1152	15356
2886263	1213	-1430	16756
2886591	1235	-1463	17626
2886919	-563	-2041	18187
2887247	-3580	-2854	18516
2887575	-6200	-3562	18768
2887903	-7503	-4068	19016
2888231	-7378	-4452	19320
2888559	-7591	-5103	19854
2888887	-7586	-6177	20143
2889215	-7727	-6551	20667
2889543	-8234	-6535	20523
2889871	-7437	-6277	19486
2890199	-5955	-5765	18254
2890527	-4468	-5376	18006
2890855	-3408	-4173	17423
2891183	-2869	-3096	16741
2891511	-2091	-3380	14235
2891839	-101	-2589	12561
2892167	1857	-976	10801
2892495	3869	623	9568
2892823	5087	941	7147
2893151	6079	1816	4563
2893479	6565	2565	2282
2893807	6569	3248	391
2894135	8417	4003	-1832
2894463	9944	3936	-5175
2894791	-5891	1321	-13286
2895119	-8939	2662	-14206
2895447	-5399	5563	-12372
2895775	-3826	4537	-8847
2896103	-2045	2702	-6097
2896431	-1198	3765	-4939
2896759	-314	2319	-4935
2897087	-1252	4275	-6361
2897415	752	9105	-7189
2897743	6496	12577	-5376
2898071	11017	12265	-4870
2898399	12713	10592	-4443
2898727	13216	10097	-4326
2899055	12791	8948	-4238
2899383	8850	6955	-3988
2899711	3725	4835	-3803
2900039	-492	3265	-3882
2900367	-2052	1333	-4209
2900695	-1395	-929	-4320
2901023	1847	-3904	-4958
2901351	4416	-2765	-4720
2901679	-5418	-2855	-3587
2902007	-12129	-2724	-5742
2902335	-9494	2234	-5301
2902663	-3071	3217	-5160
2902991	2848	1674	-3703
2903319	4614	1001	-2988
2903647	3639	979	-3498
2903975	2443	1692	-3705
2904303	1666	1670	-3467
2904631	1578	1508	-3124
2904959	1073	1138	-2760
2905287	719	846	-2461
2905615	326	850	-2192
2905943	-14	948	-2131
2906271	-28	865	-2190
2906599	-218	601	-2108
2906927	-57	507	-2269
2907255	-26	919	-2023
2907583	202	944	-1879
2907911	239	966	-1939
2908239	667	927	-1947
2908567	1512	843	-2040
2908895	2389	969	-2238
2909223	3057	1042	-2313
2909551	3401	1091	-2282
2909879	3360	1096	-2250
2910207	3217	965	-2226
2910535	2950	986	-2266
2910863	2757	889	-2338
2911191	2646	793	-2388
2911519	2809	781	-2475
2911847	2946	732	-2589
2912175	3092	758	-2685
2912503	3312	805	-2715
2912831	3482	949	-2817
2913159	3650	903	-2847
2913487	3903	827	-2863
2913815	4026	533	-2909
2914143	3938	-68	-3064
2914471	3904	-661	-3401
2914799	3505	-1098	-3421
2915127	3106	-1634	-3336
2915455	2339	-1301	-3241
2915783	2363	-449	-2980
2916111	2786	1137	-2712
2916439	4784	3663	-2598
2916767	9368	6765	-2473
2917095	16187	9020	-2165
2917423	23642	10989	-2387
2917751	29977	12610	-2743
2918079	32642	12649	-2266
2918407	32767	11671	-2067
2918735	32767	12902	-2433
2919063	32767	14144	-3038
2919391	32767	15398	-4163
2919719	32767	16997	-4707
2920047	32767	19269	-3288
2920375	32767	19980	-2209
2920703	32767	19485	-1496
2921031	32767	18031	-1061
2921359	30357	17214	740
2921687	24333	15931	3255
2922015	18153	14861	4910
2922343	13466	13749	6547
2922671	13449	13284	6961
2922999	14940	12701	6730
2923327	16648	11465	6647
2923655	18423	8416	5346
2923983	22729	3783	5139
2924311	21637	288	8806
2924639	8828	-2378	7906
2924967	80	-13591	530
2925295	-7125	-5059	1034
2925623	-4854	10928	1527
2925951	-2579	2183	5380
2926279	1236	1149	2844
2926607	7810	1536	2961
2926935	11813	-506	1891
2927263	13455	-620	1643
2927591	10959	-343	616
2927919	5730	52	298
2928247	1320	775	1654
2928575	-1179	702	2220
2928903	-2509	1659	2176
2929231	-2261	1912	1629
2929559	-1003	652	1246
2929887	479	-338	1327
2930215	1631	-448	735
2930543	2104	-671	587
2930871	1916	-380	399
2931199	1053	-206	227
2931527	-748	-161	6
2931855	-1543	541	-58
2932183	-2058	-77	51
2932511	-2397	31	-39
2932839	-2366	240	-119
2933167	-2148	318	-189
2933495	-1791	349	-282
2933823	-1180	295	-313
2934151	-687	289	-429
2934479	-415	11	-538
2934807	-491	26	-606
2935135	-832	-133	-589
2935463	-1368	-272	-669
2935791	-2055	-210	-668
2936119	-2604	-80	-652
2936447	-2909	-11	-645
2936775	-2771	9	-677
2937103	-2298	-103	-732
2937431	-1544	-205	-781
2937759	-841	-125	-787
2938087	-277	-211	-796
2938415	8	-226	-808
2938743	-4	-173	-842
2939071	-372	-36	-823
2939399	-914	153	-761
2939727	-1500	175	-640
2940055	-1922	139	-556
2940383	-2050	74	-511
2940711	-1939	43	-467
2941039	-1652	-54	-467
2941367	-1169	-35	-471
2941695	-672	-30	-483
2942023	-218	60	-421
2942351	7	105	-308
2942679	53	107	-189
2943007	21	8	-67
2943335	-174	-49	117
2943663	-540	-42	281
2943991	-799	-98	350
2944319	-898	-214	296
2944647	-1023	-537	395
2944975	-1069	-471	474
2945303	-1121	-540	555
2945631	-772	-559	675
2945959	-533	-752	802
2946287	-576	-815	1011
2946615	-451	-811	1176
2946943	-904	-787	1288
2947271	-971	-1015	1227
2947599	-1129	-1199	1348
2947927	-1292	-1234	1355
2948255	-1079	-1230	1397
2948583	-940	-1382	1600
2948911	-919	-1515	1705
2949239	-473	-1558	1858
2949567	-264	-1907	2211
2949895	-18	-2480	2348
2950223	690	-2669	2679
2950551	1308	-2645	2888
2950879	1468	-2582	2913
2951207	2043	-2683	3063
2951535	2721	-2645	3339
2951863	3847	-2610	3664
2952191	4869	-2586	4156
2952519	5866	-3138	4655
2952847	6574	-3672	5044
2953175	6041	-3376	5238
2953503	5248	-2678	5482
2953831	5253	-1732	5547
2954159	6147	-1233	5309
2954487	7908	-1054	5358
2954815	10181	-689	5185
2955143	12111	-658	5830
2955471	12994	-1049	5793
2955799	12081	-1404	4201
2956127	9050	-1512	1025
2956455	5945	-949	-2459
2956783	4538	-73	-4841
2957111	4256	640	-6674
2957439	4804	1010	-7935
2957767	5454	1071	-8811
2958095	5700	833	-9213
2958423	5897	533	-9441
2958751	5984	47	-9638
2959079	5848	-152	-9567
2959407	5613	-466	-9323
2959735	5294	-856	-8891
2960063	4638	-1174	-8355
2960391	4045	-1256	-7962
2960719	3665	-987	-7663
2961047	3424	-741	-7092
2961375	3434	-264	-6796
2961703	3899	255	-6262
2962031	4361	935	-5964
2962359	4763	1304	-5629
2962687	5205	1587	-5374
2963015	5606	1776	-5011
2963343	5921	1887	-4771
2963671	6297	1996	-4407
2963999	6899	2258	-4131
2964327	7404	2374	-3986
2964655	7967	2441	-3861
2964983	8371	2599	-3918
2965311	8196	2517	-4296
2965639	7509	2369	-4487
2965967	6465	2259	-4477
2966295	5388	1994	-4404
2966623	4482	1816	-4167
2966951	3923	1931	-3838
2967279	3151	1977	-3288
2967607	1952	1408	-2458
2967935	660	1209	-1207
2968263	145	1257	77
2968591	-259	1363	506
2968919	-903	778	306
2969247	-429	1405	-262
2969575	878	2293	-565
2969903	935	2778	-1025
2970231	998	3491	-1058
2970559	-109	2531	-890
2970887	2245	846	-380
2971215	12888	243	-183
2971543	2897	3271	1534
2971871	-223	1419	-2301
2972199	-2677	4131	-2015
2972527	-2985	1963	-618
2972855	-1548	2217	-395
2973183	892	1826	8
2973511	1418	2687	168
2973839	1924	2863	194
2974167	1844	2869	-224
2974495	1705	2678	-282
2974823	1710	2367	-175
2975151	1885	1917	209
2975479	1793	1835	308
2975807	1406	1556	272
2976135	766	1347	173
2976463	105	1216	60
2976791	-144	1051	149
2977119	-191	1126	161
2977447	167	1386	243
2977775	809	1714	344
2978103	1405	2064	498
2978431	1906	2222	586
2978759	2138	2085	619
2979087	2151	2138	684
2979415	1875	2507	768
2979743	1607	3222	880
2980071	1481	3698	905
2980399	1474	4059	912
2980727	1824	4506	815
2981055	2845	4761	395
2981383	3538	4724	-349
2981711	4800	5174	-1254
2982039	7071	6072	-1546
2982367	8124	6083	-1722
2982695	9044	6010	-2349
2983023	11182	6439	-2935
2983351	13452	6965	-2996
2983679	15857	7357	-3061
2984007	17581	7620	-3209
2984335	18419	7925	-3369
2984663	17712	7641	-3499
2984991	15279	7399	-3280
2985319	12234	6964	-3101
2985647	9655	6334	-3235
2985975	8150	5387	-2688
2986303	7078	4484	-2138
2986631	4404	3911	-1687
2986959	1846	3784	-1313
2987287	60	3581	-2054
2987615	-1774	3140	-2856
2987943	7	2743	-3228
2988271	3333	1926	-2875
2988599	4909	1578	-2761
2988927	5287	1429	-2837
2989255	4298	1510	-2910
2989583	2610	1625	-2658
2989911	1807	1467	-2295
2990239	1567	1139	-2013
2990567	1806	1292	-1771
2990895	2220	1381	-1561
2991223	2360	1567	-1283
2991551	1899	1665	-1210
2991879	1599	1363	-1110
2992207	1456	1266	-893
2992535	1434	1314	-775
2992863	1414	1184	-669
2993191	1910	1253	-601
2993519	2882	1410	-691
2993847	3606	1314	-739
2994175	4009	1542	-581
2994503	4577	1547	-705
2994831	4974	1545	-759
2995159	5387	1554	-1001
2995487	5658	1676	-1296
2995815	6107	2018	-1331
2996143	6273	2023	-1505
2996471	6513	2053	-1628
2996799	6832	1956	-1686
2997127	7274	1878	-1763
2997455	7625	1791	-1957
2997783	7945	1789	-2129
2998111	8200	1822	-2402
2998439	8252	1927	-2465
2998767	8468	2239	-2525
2999095	8903	2604	-2693
2999423	9603	2710	-2740
2999751	10345	2820	-2766
3000079	10812	3139	-2766
3000407	11274	3473	-2722
3000735	11547	3618	-2882
3001063	11959	3754	-2884
3001391	12403	4137	-2632
3001719	12481	3950	-2500
3002047	12332	3325	-2581
3002375	12214	2862	-2855
3002703	12022	2757	-2705
3003031	12329	3058	-2512
3003359	12501	2924	-2413
3003687	12764	2911	-2300
3004015	12798	3173	-2119
3004343	12780	3387	-2098
3004671	13188	3687	-2058
3004999	14081	4072	-2024
3005327	14936	4529	-1953
3005655	16325	5238	-1447
3005983	16937	5720	-1398
3006311	17076	6108	-1373
3006639	17660	7272	-1109
3006967	18769	8255	-544
3007295	20258	8937	-51
3007623	21410	9397	400
3007951	21399	9559	1019
3008279	20990	9275	1893
3008607	19942	9195	2274
3008935	18904	8669	2726
3009263	17080	8303	3069
3009591	14996	8550	3294
3009919	14073	8488	3285
3010247	14165	8349	3073
3010575	12711	7871	3292
3010903	12591	7325	2871
3011231	12109	6561	2674
3011559	11081	5742	2567
3011887	9795	4985	2670
3012215	8511	4259	2565
3012543	7141	3340	2512
3012871	6006	2594	2416
3013199	5460	1820	2460
3013527	4301	1101	2352
3013855	1813	154	1863
3014183	-963	-835	735
3014511	-2308	-699	693
3014839	-2501	-16	1155
3015167	-1117	493	1109
3015495	-218	444	1131
3015823	966	-55	746
3016151	1289	-247	312
3016479	902	99	-63
3016807	268	-41	-270
3017135	-411	-402	-256
3017463	-997	-124	-197
3017791	-1176	-51	-148
3018119	-1173	-191	-166
3018447	-1010	-227	-242
3018775	-827	-272	-298
3019103	-659	-266	-367
3019431	-556	-288	-382
3019759	-622	-131	-414
3020087	-617	-134	-427
3020415	-612	-136	-404
3020743	-646	-255	-414
3021071	-694	-272	-447
3021399	-827	-161	-442
3021727	-862	-182	-420
3022055	-844	-210	-447
3022383	-775	-217	-474
3022711	-689	-228	-432
3023039	-740	-258	-419
3023367	-885	-196	-352
3023695	-1012	-147	-301
3024023	-1131	-166	-275
3024351	-1212	-196	-225
3024679	-1292	-263	-189
3025007	-1455	-435	-207
3025335	-1745	-598	-209
3025663	-2036	-680	-228
3025991	-2329	-802	-211
3026319	-2651	-949	-222
3026647	-2792	-1268	-273
3026975	-2835	-1682	-390
3027303	-2717	-2147	-514
3027631	-2689	-2574	-606
3027959	-2973	-2700	-582
3028287	-3507	-2820	-498
3028615	-3795	-3122	-443
3028943	-3761	-3422	-537
3029271	-3676	-3763	-825
3029599	-3808	-4160	-1371
3029927	-4382	-4698	-1556
3030255	-4731	-4519	-1144
3030583	-4732	-4340	-503
3030911	-4256	-4151	-158
3031239	-3684	-4137	203
3031567	-3245	-4668	810
3031895	-3627	-4426	920
3032223	-4675	-3677	1032
3032551	-6120	-3638	986
3032879	-7227	-3658	908
3033207	-7922	-3890	965
3033535	-8183	-4215	1076
3033863	-8330	-4777	1018
3034191	-8272	-5405	1007
3034519	-8829	-5842	980
3034847	-9806	-6103	777
3035175	-11543	-6351	1086
3035503	-14155	-6479	1629
3035831	-16435	-6341	2069
3036159	-18206	-6076	2010
3036487	-18017	-5724	1689
3036815	-15971	-5806	1882
3037143	-14425	-5825	2109
3037471	-15038	-5816	2055
3037799	-16909	-5805	1841
3038127	-18822	-5779	1570
3038455	-20272	-5682	1446
3038783	-20368	-5627	1480
3039111	-19671	-5318	1524
3039439	-18757	-4881	1348
3039767	-17343	-3833	1157
3040095	-14844	-2802	1523
3040423	-12259	-1796	2403
3040751	-9971	40	3206
3041079	-7667	1332	3620
3041407	-5648	1864	3949
3041735	-3143	1586	3989
3042063	4106	1099	4342
3042391	3557	5848	5646
3042719	-3664	332	3863
3043047	-11369	-2033	-1641
3043375	-10157	2036	-2509
3043703	-9231	2236	-310
3044031	-4375	1173	1513
3044359	-520	968	1745
3044687	-391	1087	870
3045015	-1916	866	338
3045343	-3325	689	28
3045671	-4731	745	-210
3045999	-5105	292	-378
3046327	-5403	56	-233
3046655	-4532	-15	-117
3046983	-3601	366	-83
3047311	-2353	139	-180
3047639	-1818	69	-254
3047967	-1634	207	-352
3048295	-2024	78	-543
3048623	-2034	-16	-639
3048951	-2290	-159	-667
3049279	-2243	-369	-602
3049607	-2086	-472	-569
3049935	-1762	-267	-641
3050263	-1366	-183	-615
3050591	-1343	-308	-692
3050919	-1404	-454	-764
3051247	-1433	-517	-845
3051575	-1361	-365	-1026
3051903	-1313	-426	-973
3052231	-996	-477	-893
3052559	-738	-517	-904
3052887	-233	-494	-795
3053215	-49	-854	-764
3053543	379	-673	-713
3053871	638	-470	-701
3054199	456	-560	-853
3054527	352	-140	-696
3054855	471	178	-722
3055183	1324	492	-606
3055511	2176	600	-132
3055839	2940	516	22
3056167	3281	880	139
3056495	3070	881	152
3056823	2886	1195	-82
3057151	2369	853	-4
3057479	2260	1061	98
3057807	2219	895	285
3058135	2134	779	532
3058463	2435	853	857
3058791	2662	886	969
3059119	2369	744	1148
3059447	2911	1040	1214
3059775	2388	959	1285
3060103	1935	1190	1461
3060431	1895	1156	1583
3060759	2003	1112	1745
3061087	2338	935	1813
3061415	2372	966	1829
3061743	2608	1105	1653
3062071	2480	1166	1596
3062399	2353	1122	1614
3062727	2381	996	1673
3063055	2227	730	1753
3063383	2005	528	1744
3063711	1956	349	1656
3064039	1881	144	1643
3064367	1434	-17	1642
3064695	1238	-295	1383
3065023	810	-628	1225
3065351	545	-1085	1051
3065679	186	-1328	853
3066007	-358	-1704	619
3066335	-904	-2267	393
3066663	-2110	-2731	279
3066991	-3318	-3263	250
3067319	-4235	-3954	196
3067647	-5359	-4473	27
3067975	-5875	-4834	-260
3068303	-6080	-5121	-371
3068631	-6037	-5311	-441
3068959	-5873	-5556	-348
3069287	-5936	-5666	-294
3069615	-6149	-5870	-295
3069943	-6562	-6063	-303
3070271	-7323	-6337	-299
3070599	-8200	-6292	-427
3070927	-8906	-6196	-471
3071255	-9211	-5895	-565
3071583	-8881	-5561	-425
3071911	-7926	-5045	-341
3072239	-6666	-4655	-174
3072567	-5210	-4267	-45
3072895	-4040	-4088	129
3073223	-3241	-3793	333
3073551	-3007	-3386	580
3073879	-3118	-3306	663
3074207	-3151	-3299	974
3074535	-3097	-3385	1311
3074863	-2928	-3850	1522
3075191	-3633	-3980	1473
3075519	-4100	-3932	1148
3075847	-4008	-3596	1077
3076175	-3605	-3122	1316
3076503	-2579	-3163	1558
3076831	-1757	-3773	1947
3077159	-1784	-4666	2072
3077487	-3318	-5978	2511
3077815	-3646	-8153	1583
3078143	-4501	-10018	940
3078471	-6786	-10418	64
3078799	-8103	-10414	-937
3079127	-9347	-11505	-1240
3079455	-10386	-11319	-1257
3079783	-11051	-10956	-1000
3080111	-11206	-10596	-998
3080439	-11487	-10188	-1089
3080767	-11437	-9743	-758
3081095	-11212	-8932	-142
3081423	-11348	-7934	736
3081751	-10379	-8093	1043
3082079	-10154	-9526	553
3082407	-11593	-9730	-464
3082735	-13793	-8383	-947
3083063	-14951	-6245	-232
3083391	-16078	-4012	870
3083719	-17171	-2626	884
3084047	-16885	-2300	941
3084375	-15873	-1727	1462
3084703	-15192	-1859	2213
3085031	-13960	-2496	2614
3085359	-13335	-2429	3014
3085687	-12452	-2661	3729
3086015	-11802	-3697	4594
3086343	-11934	-4050	5766
3086671	-12189	-4596	6867
3086999	-12689	-5321	8013
3087327	-12940	-5843	9173
3087655	-13096	-6288	10144
3087983	-12991	-6712	11061
3088311	-12680	-6940	11816
3088639	-12792	-7187	12653
3088967	-12875	-7587	13294
3089295	-12828	-7979	13921
3089623	-12973	-8196	14360
3089951	-12845	-8395	14672
3090279	-12404	-8324	14917
3090607	-11969	-8144	15088
3090935	-11908	-7800	15389
3091263	-11350	-7773	15402
3091591	-10422	-7267	15461
3091919	-9781	-6892	15376
3092247	-9880	-6817	15447
3092575	-9250	-6610	15344
3092903	-8658	-6280	15014
3093231	-8002	-6173	14480
3093559	-7274	-6165	13940
3093887	-6642	-6386	13233
3094215	-6209	-6639	12864
3094543	-6139	-6342	12172
3094871	-6084	-6587	11126
3095199	-5790	-6228	10466
3095527	-5902	-5817	9967
3095855	-6920	-6050	8916
3096183	-7822	-5069	7797
3096511	-7964	-3928	6681
3096839	-7797	-3224	5068
3097167	-7212	-2496	3252
3097495	-6710	-1239	1898
3097823	-5999	-38	732
3098151	-5198	1009	-481
3098479	-1623	2901	-2024
3098807	4704	5718	-1794
3099135	-8108	4998	-5831
3099463	-16338	4077	-12146
3099791	-11213	5827	-12585
3100119	-8008	4479	-8246
3100447	-5160	1563	-4901
3100775	-2275	3837	-3994
3101103	1444	5628	-3955
3101431	-1274	7007	-5515
3101759	-1667	7961	-5718
3102087	65	7647	-5708
3102415	-887	5583	-5163
3102743	-1625	3825	-4686
3103071	-2905	2993	-2989
3103399	-3802	2955	-1916
3103727	-3628	2479	-1550
3104055	-3405	2428	-2234
3104383	-2897	1741	-2917
3104711	-2492	1495	-2799
3105039	-1271	1493	-2816
3105367	-1397	1454	-2529
3105695	-1265	1135	-2375
3106023	-1466	1371	-2564
3106351	-1028	1218	-2606
3106679	-748	852	-2385
3107007	-857	744	-2519
3107335	-541	950	-2511
3107663	-413	899	-2408
3107991	-467	946	-2215
3108319	-727	893	-1920
3108647	-859	709	-1825
3108975	-734	433	-1672
3109303	-987	633	-1408
3109631	-276	451	-1378
3109959	-74	569	-1272
3110287	-94	454	-994
3110615	-783	338	-1113
3110943	-1334	363	-1157
3111271	-1306	-31	-1081
3111599	-1265	84	-1024
3111927	-1068	25	-954
3112255	-554	-140	-920
3112583	-17	-256	-1118
3112911	684	-327	-1167
3113239	640	-217	-1006
3113567	704	-214	-800
3113895	577	-336	-601
3114223	-73	-310	-461
3114551	-547	-238	-324
3114879	-987	-88	-85
3115207	-1118	28	151
3115535	-951	6	216
3115863	-605	40	228
3116191	-250	50	196
3116519	86	135	266
3116847	401	214	301
3117175	592	361	327
3117503	535	470	363
3117831	456	584	436
3118159	369	675	553
3118487	262	692	661
3118815	204	810	712
3119143	290	914	720
3119471	439	949	749
3119799	578	952	725
3120127	576	1025	695
3120455	583	1103	682
3120783	523	1099	658
3121111	460	1087	593
3121439	330	1029	537
3121767	291	892	476
3122095	230	863	465
3122423	276	739	394
3122751	314	654	325
3123079	249	523	276
3123407	89	393	200
3123735	-220	322	131
3124063	-540	265	139
3124391	-712	211	161
3124719	-858	56	235
3125047	-905	-184	273
3125375	-831	-318	254
3125703	-483	-532	247
3126031	-122	-593	276
3126359	209	-614	290
3126687	498	-730	383
3127015	560	-765	477
3127343	506	-730	607
3127671	426	-902	808
3127999	134	-916	1066
3128327	9	-1040	1275
3128655	-117	-1174	1497
3128983	-307	-1269	1642
3129311	-387	-1153	1742
3129639	-252	-1044	1837
3129967	101	-951	1939
3130295	614	-767	2071
3130623	1220	-478	2225
3130951	1628	-372	2287
3131279	1845	-332	2427
3131607	1898	-282	2491
3131935	1780	-300	2667
3132263	1472	-321	2881
3132591	1343	-376	3093
3132919	1344	-547	3224
3133247	1512	-654	3389
3133575	1736	-507	3584
3133903	2173	-637	3709
3134231	2534	-772	3831
3134559	2714	-1083	3914
3134887	2910	-1554	4006
3135215	2761	-2571	4226
3135543	1991	-3193	4706
3135871	1023	-4176	5095
3136199	425	-4879	5454
3136527	750	-5531	5809
3136855	1201	-5567	6296
3137183	2538	-5495	6374
3137511	4338	-4975	6513
3137839	5715	-3545	6437
3138167	6091	-1752	6119
3138495	7172	-940	6011
3138823	9400	-1293	5290
3139151	11717	-450	4846
3139479	14841	581	5473
3139807	18494	2253	6258
3140135	19403	3486	3732
3140463	21297	3211	-2174
3140791	21670	2776	-6865
3141119	19001	2303	-9321
3141447	14176	1002	-10476
3141775	8928	317	-11259
3142103	4523	770	-12138
3142431	1587	496	-12596
3142759	776	-26	-12788
3143087	1256	716	-12703
3143415	2329	848	-12751
3143743	3706	805	-13247
3144071	5601	594	-13552
3144399	6690	513	-13483
3144727	7299	177	-12984
3145055	7852	143	-12467
3145383	7836	73	-12199
3145711	7223	64	-11943
3146039	6278	-115	-11590
3146367	5604	-232	-11370
3146695	5023	-74	-10789
3147023	4225	6	-10397
3147351	3799	-388	-9648
3147679	3277	-392	-9117
3148007	2744	-963	-8786
3148335	2860	-1335	-8261
3148663	3652	-1250	-7911
3148991	4538	-884	-7958
3149319	5732	-846	-7728
3149647	6765	-651	-7575
3149975	7775	-577	-7403
3150303	8570	-484	-7196
3150631	8885	-563	-6919
3150959	8671	-846	-6572
3151287	8035	-917	-6198
3151615	7018	-875	-5762
3151943	5972	-777	-5371
3152271	5258	-645	-5051
3152599	4793	-345	-4729
3152927	4629	-239	-4477
3153255	4584	-240	-4262
3153583	4625	-27	-3919
3153911	4707	223	-3483
3154239	4546	498	-3040
3154567	4314	700	-2455
3154895	3828	834	-1556
3155223	2927	952	-616
3155551	2423	959	353
3155879	2319	1409	1529
3156207	2607	1929	2940
3156535	3182	2290	4518
3156863	3155	2090	6026
3157191	1786	2468	6634
3157519	604	3084	5459
3157847	116	4534	3834
3158175	1126	5301	3025
3158503	1345	5471	3075
3158831	1758	5501	2905
3159159	2818	6232	2224
3159487	4033	6406	1520
3159815	5060	5691	1374
3160143	5184	5080	1317
3160471	4840	4668	1166
3160799	4403	4110	1075
3161127	3625	3455	976
3161455	3056	3129	603
3161783	2558	2889	711
3162111	2498	2415	638
3162439	2313	1791	916
3162767	1752	1703	1058
3163095	964	2003	1191
3163423	-349	2139	906
3163751	-2008	1718	373
3164079	-3036	1108	-200
3164407	-2758	1206	-495
3164735	-2496	1264	-572
3165063	-1927	1392	-501
3165391	-1229	1078	-443
3165719	-756	800	-442
3166047	-470	491	-327
3166375	-350	301	-175
3166703	-303	265	6
3167031	-325	268	191
3167359	-300	254	348
3167687	-111	341	470
3168015	-167	288	600
3168343	-461	309	631
3168671	-682	171	645
3168999	-905	-12	706
3169327	-1030	-107	686
3169655	-1039	-218	642
3169983	-724	-148	588
3170311	-470	-228	641
3170639	-203	-293	703
3170967	40	-319	723
3171295	252	-363	696
3171623	461	-349	658
3171951	793	-317	612
3172279	1131	-262	556
3172607	1350	-219	527
3172935	1499	-141	453
3173263	1443	-87	371
3173591	1342	-81	302
3173919	1256	-59	222
3174247	1100	-74	144
3174575	853	-59	86
3174903	553	4	61
3175231	376	41	30
3175559	302	151	-2
3175887	175	81	103
3176215	84	175	-5
3176543	40	87	81
3176871	21	115	58
3177199	58	80	68
3177527	200	117	54
3177855	364	148	-11
3178183	365	163	-27
3178511	238	115	-48
3178839	120	141	-48
3179167	33	135	-37
3179495	-28	157	-75
3179823	-57	154	-81
3180151	-66	150	-89
3180479	-48	161	-84
3180807	-11	166	-106
3181135	62	149	-116
3181463	111	157	-102
3181791	163	168	-94
3182119	153	154	-96
3182447	61	138	-127
3182775	-8	158	-126
3183103	-13	152	-154
3183431	-17	151	-168
3183759	-33	165	-162
3184087	-59	186	-185
3184415	-128	170	-179
3184743	-173	186	-165
3185071	-206	190	-175
3185399	-251	180	-164
3185727	-261	192	-156
3186055	-291	187	-116
3186383	-341	195	-130
3186711	-333	214	-141
3187039	-315	217	-135
3187367	-303	250	-132
3187695	-299	266	-140
3188023	-301	252	-148
3188351	-323	209	-144
3188679	-412	197	-137
3189007	-501	210	-158
3189335	-573	231	-170
3189663	-585	231	-186
3189991	-582	247	-198
3190319	-581	260	-204
3190647	-579	262	-193
3190975	-561	257	-202
3191303	-536	277	-199
3191631	-524	249	-179
3191959	-523	237	-177
3192287	-546	236	-164
3192615	-545	238	-154
3192943	-592	234	-153
3193271	-575	252	-147
3193599	-580	242	-137
3193927	-518	239	-126
3194255	-516	250	-120
3194583	-484	250	-95
3194911	-475	246	-83
3195239	-512	247	-58
3195567	-508	238	-26
3195895	-512	210	-9
3196223	-498	205	12
3196551	-487	197	34
3196879	-455	200	31
3197207	-392	203	42
3197535	-356	222	59
3197863	-305	218	64
3198191	-279	194	86
3198519	-317	182	85
3198847	-383	190	92
3199175	-402	180	82
3199503	-397	176	62
3199831	-353	193	65
3200159	-327	201	50
3200487	-307	185	47
3200815	-297	197	45
3201143	-307	207	17
3201471	-310	206	18
3201799	-292	180	18
3202127	-325	192	19
3202455	-323	195	7
3202783	-289	216	-25
3203111	-246	216	-22
3203439	-176	192	-29
3203767	-96	150	-6
3204095	-54	154	7
3204423	-9	139	-6
3204751	-64	138	-39
3205079	-64	99	-55
3205407	-122	68	-46
3205735	-212	67	-73
3206063	-210	61	-107
3206391	32	40	-158
3206719	428	12	-161
3207047	804	6	-236
3207375	994	-26	-282
3207703	901	-150	-261
3208031	714	-196	-269
3208359	545	-251	-317
3208687	619	-223	-366
3209015	837	-203	-411
3209343	1094	-205	-459
3209671	1313	-290	-470
3209999	1372	-355	-455
3210327	1297	-406	-434
3210655	1148	-529	-391
3210983	1023	-586	-334
3211311	915	-718	-277
3211639	862	-795	-245
3211967	916	-848	-242
3212295	1005	-876	-232
3212623	1107	-860	-217
3212951	1138	-889	-180
3213279	1147	-881	-107
3213607	1065	-1060	51
3213935	821	-1346	210
3214263	448	-1526	295
3214591	-18	-1691	267
3214919	-361	-1734	167
3215247	-281	-1700	85
3215575	-4	-1624	24
3215903	372	-1503	-40
3216231	600	-1452	-77
3216559	668	-1355	-101
3216887	563	-1380	-88
3217215	233	-1331	41
3217543	-198	-1301	128
3217871	-574	-1128	132
3218199	-742	-870	111
3218527	-583	-701	162
3218855	-657	-481	294
3219183	-661	-386	193
3219511	-1194	-52	59
3219839	-1794	312	-437
3220167	-2054	977	-873
3220495	-1229	2161	-1310
3220823	103	3249	-1577
3221151	1160	4239	-2036
3221479	1457	5238	-2443
3221807	1177	5593	-2582
3222135	779	5603	-2398
3222463	-519	5446	-1767
3222791	-2005	5463	-1100
3223119	-2938	5229	-601
3223447	-3383	5177	-165
3223775	-3345	5212	298
3224103	-2941	5219	663
3224431	-2739	5139	960
3224759	-2531	5146	1276
3225087	-2079	5216	1606
3225415	-1846	5351	1947
3225743	-1777	5162	2282
3226071	-1518	5176	2612
3226399	-1310	5155	2889
3226727	-1121	5063	3158
3227055	-992	5067	3656
3227383	-785	4520	3710
3227711	-520	3097	3606
3228039	-898	1944	3641
3228367	-2246	1229	3812
3228695	-3785	486	4046
3229023	-5027	-213	4377
3229351	-5778	-1117	4512
3229679	-5853	-2374	4150
3230007	-6384	-2737	2852
3230335	-6502	-1387	1436
3230663	-4676	-50	683
3230991	-4306	198	311
3231319	-1911	1238	628
3231647	1401	1407	477
3231975	3025	827	318
3232303	3855	978	330
3232631	3497	1136	492
3232959	2839	1207	655
3233287	1819	741	680
3233615	319	262	650
3233943	-811	163	732
3234271	-1701	93	879
3234599	-2189	264	844
3234927	-2768	78	718
3235255	-3105	32	610
3235583	-3083	-24	556
3235911	-2961	57	462
3236239	-2354	162	351
3236567	-1547	216	374
3236895	-812	455	265
3237223	-228	324	286
3237551	185	329	289
3237879	467	308	343
3238207	697	288	390
3238535	784	274	507
3238863	754	309	529
3239191	510	299	574
3239519	147	194	631
3239847	-183	131	683
3240175	-571	82	669
3240503	-1422	133	697
3240831	-2104	131	598
3241159	-2606	61	652
3241487	-2434	104	693
3241815	-1868	170	708
3242143	-793	458	692
3242471	603	573	644
3242799	1850	728	371
3243127	2800	942	124
3243455	3389	990	-36
3243783	3439	963	-70
3244111	3214	912	39
3244439	2577	735	-92
3244767	1860	595	-213
3245095	1186	524	-238
3245423	662	437	-254
3245751	104	291	-356
3246079	-362	272	-382
3246407	-808	203	-396
3246735	-1122	124	-360
3247063	-1197	102	-288
3247391	-1106	133	-300
3247719	-846	153	-319
3248047	-343	208	-337
3248375	112	199	-356
3248703	245	210	-459
3249031	369	204	-405
3249359	362	155	-492
3249687	392	139	-393
3250015	365	104	-401
3250343	304	151	-405
3250671	321	219	-390
3250999	327	192	-371
3251327	324	268	-371
3251655	254	263	-369
3251983	161	175	-381
3252311	-1	182	-342
3252639	-116	103	-343
3252967	-239	44	-296
3253295	-275	-11	-275
3253623	-227	-14	-280
3253951	-117	28	-261
3254279	28	49	-266
3254607	192	105	-283
3254935	374	151	-265
3255263	407	167	-268
3255591	306	108	-338
3255919	222	100	-271
3256247	98	114	-237
3256575	34	73	-251
3256903	3	74	-232
3257231	38	91	-224
3257559	179	102	-229
3257887	330	110	-248
3258215	426	76	-217
3258543	397	75	-178
3258871	317	33	-141
3259199	282	-8	-98
3259527	230	0	-85
3259855	135	9	-59
3260183	75	30	-8
3260511	1	13	63
3260839	-19	-14	111
3261167	-7	-35	152
3261495	43	-35	217
3261823	76	-60	267
3262151	156	-76	341
3262479	225	-106	426
3262807	255	-93	533
3263135	262	-122	631
3263463	344	-171	716
3263791	337	-187	801
3264119	245	-238	901
3264447	120	-243	994
3264775	21	-273	1047
3265103	16	-257	1124
3265431	20	-282	1171
3265759	-96	-344	1159
3266087	-146	-387	1231
3266415	-193	-399	1240
3266743	-209	-425	1255
3267071	-136	-429	1299
3267399	0	-436	1330
3267727	63	-436	1353
3268055	142	-436	1360
3268383	151	-441	1393
3268711	91	-495	1420
3269039	-41	-550	1511
3269367	-242	-543	1569
3269695	-521	-590	1622
3270023	-869	-682	1633
3270351	-1102	-687	1632
3270679	-1047	-661	1549
3271007	-802	-435	1533
3271335	-572	-477	1519
3271663	-247	-443	1431
3271991	67	-303	1410
3272319	238	-271	1412
3272647	241	-289	1419
3272975	163	-284	1404
3273303	-5	-351	1359
3273631	-209	-369	1278
3273959	-379	-390	1261
3274287	-460	-365	1204
3274615	-516	-341	1103
3274943	-493	-318	1067
3275271	-500	-307	1018
3275599	-536	-295	979
3275927	-550	-255	980
3276255	-584	-256	938
3276583	-593	-227	908
3276911	-498	-164	888
3277239	-316	-77	845
3277567	-189	4	784
3277895	-70	-13	709
3278223	-50	25	695
3278551	-83	-10	668
3278879	-103	-47	626
3279207	-93	3	647
3279535	-148	37	622
3279863	-309	53	574
3280191	-470	17	522
3280519	-640	41	474
3280847	-700	39	438
3281175	-721	74	397
3281503	-747	124	327
3281831	-732	161	291
3282159	-661	186	256
3282487	-519	186	202
3282815	-372	191	121
3283143	-237	193	65
3283471	-167	203	40
3283799	-279	178	-30
3284127	-450	183	-23
3284455	-588	181	-25
3284783	-687	203	-103
3285111	-717	193	-217
3285439	-625	220	-303
3285767	-445	246	-384
3286095	-260	269	-449
3286423	-134	304	-541
3286751	-50	326	-623
3287079	113	370	-723
3287407	319	449	-823
3287735	358	464	-888
3288063	323	419	-937
3288391	255	363	-922
3288719	229	356	-929
3289047	235	401	-973
3289375	188	478	-1021
3289703	193	535	-1118
3290031	242	600	-1198
3290359	379	662	-1268
3290687	546	723	-1324
3291015	742	778	-1330
3291343	917	796	-1334
3291671	973	811	-1326
3291999	882	865	-1320
3292327	738	823	-1319
3292655	571	782	-1317
3292983	423	746	-1305
3293311	314	741	-1327
3293639	279	725	-1350
3293967	257	718	-1391
3294295	282	722	-1431
3294623	348	737	-1449
3294951	343	721	-1448
3295279	295	694	-1457
3295607	226	679	-1438
3295935	145	674	-1441
3296263	39	643	-1432
3296591	-140	664	-1370
3296919	-341	620	-1319
3297247	-540	552	-1255
3297575	-835	484	-1189
3297903	-1120	448	-1155
3298231	-1210	415	-1216
3298559	-984	443	-1234
3298887	-656	480	-1237
3299215	-269	522	-1221
3299543	54	567	-1190
3299871	227	568	-1190
3300199	248	566	-1180
3300527	183	531	-1139
3300855	26	476	-1128
3301183	-82	434	-1114
3301511	-83	419	-1114
3301839	78	448	-1156
3302167	373	568	-1174
3302495	620	606	-1199
3302823	825	472	-1181
3303151	808	372	-1069
3303479	661	322	-1057
3303807	450	322	-1019
3304135	304	315	-999
3304463	256	303	-926
3304791	340	326	-860
3305119	438	341	-768
3305447	393	303	-701
3305775	257	274	-613
3306103	12	256	-505
3306431	-153	228	-452
3306759	-253	208	-387
3307087	-278	201	-328
3307415	-285	221	-268
3307743	-286	258	-192
3308071	-354	249	-143
3308399	-469	212	-128
3308727	-529	170	-107
3309055	-481	195	-137
3309383	-326	213	-148
3309711	-84	201	-160
3310039	69	213	-159
3310367	141	201	-155
3310695	181	137	-155
3311023	210	126	-184
3311351	161	139	-206
3311679	131	117	-206
3312007	141	139	-218
3312335	133	130	-212
3312663	80	113	-209
3312991	-1	85	-205
3313319	-99	70	-153
3313647	-159	60	-126
3313975	-215	58	-71
3314303	-256	57	-23
3314631	-196	66	21
3314959	-141	93	83
3315287	-84	98	120
3315615	-101	84	159
3315943	-174	77	193
3316271	-277	80	267
3316599	-451	76	322
3316927	-639	44	353
3317255	-760	16	388
3317583	-810	4	407
3317911	-712	8	419
3318239	-513	72	392
3318567	-159	84	361
3318895	268	88	311
3319223	556	121	319
3319551	736	190	350
3319879	736	98	336
3320207	568	68	279
3320535	505	72	277
3320863	430	55	288
3321191	345	38	260
3321519	289	52	247
3321847	231	48	244
3322175	199	78	248
3322503	124	62	235
3322831	49	35	245
3323159	-28	38	264
3323487	-150	4	214
3323815	-285	16	260
3324143	-398	-15	248
3324471	-413	9	197
3324799	-326	27	154
3325127	-142	77	125
3325455	30	116	90
3325783	138	158	70
3326111	172	147	64
3326439	94	146	64
3326767	37	170	57
3327095	37	218	69
3327423	137	219	4
3327751	529	314	-86
3328079	966	418	-176
3328407	1335	450	-188
3328735	1353	422	-139
3329063	1079	339	-133
3329391	665	275	-148
3329719	337	189	-99
3330047	104	203	-88
3330375	123	206	-131
3330703	161	241	-159
3331031	238	280	-166
3331359	245	278	-208
3331687	221	274	-233
3332015	145	251	-239
3332343	26	254	-233
3332671	-103	223	-223
3332999	-217	186	-194
3333327	-290	164	-212
3333655	-317	170	-204
3333983	-310	164	-201
3334311	-291	180	-203
3334639	-278	189	-206
3334967	-265	197	-200
3335295	-288	186	-193
3335623	-348	159	-177
3335951	-414	153	-178
3336279	-485	129	-172
3336607	-539	134	-169
3336935	-565	112	-163
3337263	-567	120	-169
3337591	-507	128	-169
3337919	-459	143	-154
3338247	-396	137	-160
3338575	-341	157	-161
3338903	-318	146	-152
3339231	-371	130	-134
3339559	-435	105	-136
3339887	-480	85	-119
3340215	-501	94	-120
3340543	-474	105	-105
3340871	-426	109	-117
3341199	-383	114	-113
3341527	-355	114	-104
3341855	-333	99	-107
3342183	-300	105	-111
3342511	-264	107	-116
3342839	-218	108	-116
3343167	-168	99	-123
3343495	-144	108	-120
3343823	-92	120	-124
3344151	-67	128	-104
3344479	-7	134	-99
3344807	25	155	-109
3345135	83	207	-101
3345463	171	197	-79
3345791	257	211	-91
3346119	352	209	-99
3346447	347	217	-78
3346775	298	185	-72
3347103	207	162	-66
3347431	125	145	-58
3347759	63	131	-35
3348087	14	147	-37
3348415	-11	130	-32
3348743	9	126	-37
3349071	-20	126	-52
3349399	-78	123	-59
3349727	-142	117	-57
3350055	-171	97	-48
3350383	-197	92	-55
3350711	-177	109	-44
3351039	-137	106	-47
3351367	-137	121	-63
3351695	-137	125	-57
3352023	-163	115	-34
3352351	-215	94	-12
3352679	-290	87	-6
3353007	-415	60	4
3353335	-525	25	39
3353663	-602	25	65
3353991	-701	9	75
3354319	-707	0	63
3354647	-775	-7	105
3354975	-752	-18	128
3355303	-675	-14	145
3355631	-565	2	123
3355959	-435	29	119
3356287	-307	45	106
3356615	-191	61	97
3356943	-79	72	92
3357271	-20	67	74
3357599	-18	99	93
3357927	-57	77	117
3358255	-99	72	118
3358583	-163	57	118
3358911	-212	52	126
3359239	-242	59	142
3359567	-268	60	143
3359895	-255	49	138
3360223	-210	77	117
3360551	-49	112	116
3360879	11	137	105
3361207	88	151	109
3361535	119	153	108
3361863	123	164	116
3362191	111	166	111
3362519	74	142	106
3362847	74	140	123
3363175	68	149	117
3363503	54	157	110
3363831	82	155	107
3364159	136	167	89
3364487	214	181	77
3364815	252	189	73
3365143	300	188	54
3365471	279	193	58
3365799	227	171	79
3366127	154	146	101
3366455	39	139	107
3366783	-61	108	121
3367111	-116	87	130
3367439	-128	91	109
3367767	-119	102	99
3368095	-97	110	100
3368423	-71	110	99
3368751	-59	114	108
3369079	-41	115	93
3369407	-49	118	97
3369735	-47	114	89
3370063	-80	108	89
3370391	-109	101	96
3370719	-151	97	87
3371047	-150	99	76
3371375	-113	105	73
3371703	-39	119	67
3372031	4	134	81
3372359	28	139	66
3372687	12	139	65
3373015	-20	129	79
3373343	-41	127	73
3373671	-59	128	82
3373999	-72	124	72
3374327	-63	115	76
3374655	-43	120	82
3374983	-44	138	63
3375311	-33	134	60
3375639	-8	143	39
3375967	21	161	54
3376295	45	159	41
3376623	52	156	30
3376951	69	166	12
3377279	97	168	10
3377607	109	181	5
3377935	114	185	14
3378263	79	176	14
3378591	45	170	8
3378919	5	165	27
3379247	-14	155	16
3379575	-27	170	-1
3379903	-22	179	-14
3380231	-23	186	-12
3380559	-1	165	-24
3380887	64	189	-47
3381215	141	196	-67
3381543	224	220	-64
3381871	288	232	-90
3382199	376	246	-112
3382527	496	274	-122
3382855	551	270	-125
3383183	572	263	-121
3383511	500	235	-109
3383839	353	201	-96
3384167	263	189	-76
3384495	194	195	-68
3384823	159	157	-57
3385151	145	175	-67
3385479	146	164	-61
3385807	192	159	-59
3386135	190	185	-64
3386463	201	180	-61
3386791	175	168	-55
3387119	144	160	-51
3387447	141	149	-44
3387775	188	160	-59
3388103	250	166	-58
3388431	267	171	-65
3388759	267	173	-58
3389087	192	159	-36
3389415	69	136	-22
3389743	-9	122	-12
3390071	-85	109	-19
3390399	-75	99	-21
3390727	-66	109	-23
3391055	-59	128	-17
3391383	-72	109	-20
3391711	-67	107	-15
3392039	-76	98	-13
3392367	-87	106	-17
3392695	-88	88	-7
3393023	-101	85	-7
3393351	-122	89	-22
3393679	-123	61	-8
3394007	-149	69	-12
3394335	-172	58	6
3394663	-208	63	16
3394991	-204	55	5
3395319	-217	50	6
3395647	-201	67	11
3395975	-221	42	16
3396303	-241	49	26
3396631	-264	53	25
3396959	-273	32	22
3397287	-237	44	19
3397615	-219	61	11
3397943	-165	74	-2
3398271	-176	82	-9
3398599	-185	76	-18
3398927	-198	68	-16
3399255	-219	81	-14
3399583	-244	58	-44
3399911	-237	75	-48
3400239	-201	79	-67
3400567	-144	102	-65
3400895	-128	114	-68
3401223	-118	121	-68
3401551	-155	117	-53
3401879	-195	103	-65
3402207	-202	93	-71
3402535	-193	98	-58
3402863	-174	95	-86
3403191	-170	115	-100
3403519	-132	117	-97
3403847	-115	118	-117
3404175	-107	135	-121
3404503	-101	137	-127
3404831	-120	138	-131
3405159	-91	130	-133
3405487	-91	142	-145
3405815	-85	141	-166
3406143	-85	143	-149
3406471	-100	147	-165
3406799	-114	150	-164
3407127	-123	136	-154
3407455	-113	155	-149
3407783	-116	159	-163
3408111	-98	159	-159
3408439	-72	172	-147
3408767	-89	154	-166
3409095	-97	155	-146
3409423	-131	145	-168
3409751	-153	154	-153
3410079	-152	155	-147
3410407	-160	154	-144
3410735	-139	152	-136
3411063	-100	137	-133
3411391	-61	151	-153
3411719	-50	157	-158
3412047	-24	153	-155
3412375	-32	153	-148
3412703	-69	144	-149
3413031	-115	143	-141
3413359	-142	141	-132
3413687	-144	134	-123
3414015	-124	145	-117
3414343	-100	142	-116
3414671	-83	157	-122
3414999	-91	144	-113
3415327	-129	134	-114
3415655	-167	114	-109
3415983	-222	107	-107
3416311	-197	133	-101
3416639	-164	127	-97
3416967	-128	122	-84
3417295	-121	119	-74
3417623	-119	132	-60
3417951	-136	127	-47
3418279	-140	115	-36
3418607	-134	116	-27
3418935	-90	136	7
3419263	3	121	14
3419591	51	84	84
3419919	43	127	152
3420247	-22	120	240
3420575	-120	127	203
3420903	-248	87	236
3421231	-265	101	227
3421559	-160	58	198
3421887	35	163	202
3422215	213	157	232
3422543	303	228	275
3422871	261	272	316
3423199	186	223	260
3423527	24	205	192
3423855	-195	103	88
3424183	-496	-37	-67
3424511	-641	-87	-222
3424839	-386	102	-290
3425167	-295	-21	-630
3425495	-9	59	-802
3425823	116	136	-973
3426151	175	158	-1107
3426479	342	232	-1334
3426807	566	351	-1689
3427135	1167	747	-2067
3427463	1776	1173	-2429
3427791	2327	1485	-2792
3428119	2835	1715	-3024
3428447	3092	1843	-3081
3428775	2921	1749	-3111
3429103	2128	1537	-3125
3429431	1441	1499	-3198
3429759	287	1370	-3197
3430087	-622	1421	-3090
3430415	-1243	1244	-3146
3430743	-1664	1459	-3668
3431071	-793	2051	-4176
3431399	454	2475	-4331
3431727	1310	2724	-4170
3432055	2505	3152	-3601
3432383	3137	3109	-3668
3432711	2805	2710	-3843
3433039	2344	1977	-4418
3433367	1955	1732	-5020
3433695	1426	1254	-5157
3434023	893	1286	-4908
3434351	-184	1865	-4265
3434679	-1219	1150	-3967
3435007	-1902	1493	-3986
3435335	-1457	2690	-2962
3435663	536	2594	-1676
3435991	590	822	-994
3436319	-1670	-1125	-1863
3436647	-3473	-711	-2736
3436975	-4003	-142	-1616
3437303	-2555	661	-10
3437631	-1358	103	1074
3437959	352	-518	2472
3438287	111	-1337	3279
3438615	-166	-2023	3981
3438943	327	-2238	4352
3439271	10	-3138	4437
3439599	319	-4027	4067
3439927	73	-4385	4561
3440255	205	-3469	4617
3440583	1508	-3453	4327
3440911	4697	-2887	4326
3441239	5540	-3299	6979
3441567	7175	-4723	7698
3441895	7641	-5963	6516
3442223	9001	-6592	7830
3442551	11226	-5913	9462
3442879	6895	-4397	8936
3443207	-2673	-4105	4418
3443535	-9425	-4662	1154
3443863	-10331	-3597	-1419
3444191	-7268	-2433	-2140
3444519	-4103	-1266	-1732
3444847	-1354	-864	-928
3445175	-224	-974	-362
3445503	155	-1702	145
3445831	-59	-2221	523
3446159	-151	-2516	782
3446487	-33	-2435	541
3446815	80	-2521	24
3447143	-165	-2117	-465
3447471	-527	-2219	-1160
3447799	-456	-2098	-1498
3448127	-547	-1971	-1913
3448455	-891	-1930	-1884
3448783	678	-2406	-1135
3449111	-5556	-2902	-3898
3449439	-1297	-3318	-9345
3449767	-10709	-38	-14942
3450095	-10474	9979	-17818
3450423	-7910	13698	-12343
3450751	3132	7017	-4258
3451079	984	-6999	-308
3451407	504	-2070	127
3451735	204	4643	-1958
3452063	801	2163	38
3452391	-1194	981	3789
3452719	21428	-1408	10076
3453047	-9712	-1184	11020
3453375	-18439	-11355	-14411
3453703	-11790	2839	-12792
3454031	-15487	1288	-7831
3454359	-9862	2990	-863
3454687	3171	4040	2014
3455015	11357	787	4862
3455343	13183	2138	4593
3455671	11038	3539	7060
3455999	7871	-628	5244
3456327	4976	-541	4062
3456655	2055	-393	3004
3456983	624	-985	4506
3457311	-108	-2235	3450
3457639	-264	-2522	4358
3457967	-121	-1945	4056
3458295	-202	-1847	4242
3458623	-264	-1845	4228
3458951	-1341	-1363	4156
3459279	-1889	-1435	3629
3459607	-2413	-1469	3164
3459935	-3212	-1525	2965
3460263	-3710	-1675	2408
3460591	-4171	-1301	1905
3460919	-3846	-1076	1673
3461247	-2886	-682	1411
3461575	-1691	-551	1125
3461903	-900	-478	818
3462231	-149	-567	1057
3462559	-90	-446	1008
3462887	-429	-766	1072
3463215	-1444	-794	1145
3463543	-2658	-772	1224
3463871	-3549	-986	1375
3464199	-3882	-827	1342
3464527	-3972	-616	1198
3464855	-3683	-460	1086
3465183	-3079	-75	747
3465511	-2016	70	605
3465839	-699	136	827
3466167	603	374	1354
3466495	1353	7	1384
3466823	1346	248	652
3467151	1726	915	45
3467479	3471	1301	238
3467807	4166	1288	-41
3468135	4304	1341	291
3468463	3706	1027	109
3468791	2787	559	160
3469119	1846	493	235
3469447	669	463	119
3469775	-298	189	-86
3470103	-200	250	-237
3470431	134	203	-362
3470759	553	192	-584
3471087	892	441	-764
3471415	889	688	-769
3471743	684	637	-728
3472071	326	670	-542
3472399	-71	558	-127
3472727	-618	171	26
3473055	-1031	289	-26
3473383	-1103	295	-151
3473711	-721	368	-297
3474039	70	648	-277
3474367	937	939	-196
3474695	1552	1023	-164
3475023	1984	1159	-179
3475351	2440	1316	-90
3475679	2614	1281	-136
3476007	2647	1101	-190
3476335	2466	1012	-156
3476663	1904	939	-125
3476991	1212	779	-62
3477319	917	479	-21
3477647	711	139	-101
3477975	370	68	-251
3478303	17	-36	-187
3478631	-180	-199	-146
3478959	-362	-236	-155
3479287	-461	-230	-229
3479615	-456	-283	-300
3479943	-342	-289	-321
3480271	-269	-224	-311
3480599	-297	-223	-331
3480927	-248	-164	-362
3481255	-93	-82	-373
3481583	170	-18	-400
3481911	357	17	-445
3482239	309	52	-486
3482567	168	44	-515
3482895	20	12	-523
3483223	-143	30	-497
3483551	-240	40	-490
3483879	-326	26	-494
3484207	-371	110	-514
3484535	-531	160	-493
3484863	-796	153	-469
3485191	-1067	80	-407
3485519	-1332	10	-355
3485847	-1525	-2	-308
3486175	-1555	76	-228
3486503	-1453	174	-167
3486831	-1192	235	-107
3487159	-765	325	-43
3487487	-363	380	-38
3487815	-37	413	-40
3488143	118	445	-16
3488471	133	416	33
3488799	21	358	120
3489127	-126	352	162
3489455	-269	320	221
3489783	-414	287	257
3490111	-494	272	202
3490439	-494	266	162
3490767	-480	282	153
3491095	-474	296	136
3491423	-461	254	84
3491751	-459	237	20
3492079	-411	252	-28
3492407	-297	255	-60
3492735	-189	280	-116
3493063	-57	292	-134
3493391	87	288	-147
3493719	209	315	-167
3494047	342	330	-162
3494375	414	320	-150
3494703	476	293	-129
3495031	475	286	-109
3495359	449	261	-80
3495687	393	258	-61
3496015	309	224	-46
3496343	252	217	-50
3496671	179	219	-51
3496999	111	196	-95
3497327	49	186	-70
3497655	8	190	-92
3497983	-59	183	-75
3498311	-125	165	-71
3498639	-181	164	-58
3498967	-216	147	-63
3499295	-243	173	-75
3499623	-208	176	-74
3499951	-147	182	-82
3500279	-90	204	-100
3500607	-42	212	-117
3500935	-28	210	-136
3501263	-16	195	-122
3501591	-58	198	-124
3501919	-62	185	-108
3502247	-94	176	-132
3502575	-105	176	-123
3502903	-105	176	-111
3503231	-143	160	-108
3503559	-186	150	-112
3503887	-231	147	-105
3504215	-230	147	-87
3504543	-207	135	-96
3504871	-195	147	-98
3505199	-148	154	-104
3505527	-90	145	-87
3505855	-47	150	-98
3506183	-40	151	-86
3506511	4	178	-89
3506839	1	165	-114
3507167	-6	153	-88
3507495	-3	171	-88
3507823	-20	159	-95
3508151	-9	149	-90
3508479	-12	167	-103
3508807	-10	166	-110
3509135	-26	147	-116
3509463	-26	159	-109
3509791	-35	151	-119
3510119	-63	126	-135
3510447	-77	142	-134
3510775	-100	127	-131
3511103	-99	143	-120
3511431	-86	141	-132
3511759	-46	127	-141
3512087	-7	146	-141
3512415	48	154	-139
3512743	71	142	-149
3513071	96	142	-134
3513399	99	148	-127
3513727	103	149	-108
3514055	110	139	-107
3514383	121	147	-105
3514711	128	148	-85
3515039	119	132	-84
3515367	124	120	-83
3515695	126	135	-79
3516023	119	128	-74
3516351	115	122	-72
3516679	122	118	-70
3517007	58	107	-65
3517335	41	102	-70
3517663	35	102	-61
3517991	22	95	-60
3518319	20	99	-61
3518647	34	100	-72
3518975	42	106	-60
3519303	45	100	-53
3519631	54	107	-58
3519959	77	110	-49
3520287	83	99	-45
3520615	104	103	-30
3520943	104	115	-33
3521271	88	107	-35
3521599	70	105	-30
3521927	41	91	-31
3522255	19	77	-18
3522583	-3	76	-35
3522911	-13	78	-29
3523239	10	96	-23
3523567	9	76	-15
3523895	40	91	-15
3524223	61	100	-15
3524551	79	97	-19
3524879	97	94	-17
3525207	83	105	-12
3525535	83	97	-17
3525863	66	89	-10
3526191	63	71	-11
3526519	42	76	-13
3526847	21	71	-12
3527175	16	69	-11
3527503	-7	60	-19
3527831	-3	77	-16
3528159	-2	62	-5
3528487	12	55	-14
3528815	-25	72	-11
3529143	-14	72	-11
3529471	-19	62	-26
3529799	-30	64	-26
3530127	-3	73	-35
3530455	10	72	-25
3530783	29	68	-27
3531111	54	68	-37
3531439	48	74	-35
3531767	28	92	-26
3532095	27	74	-40
3532423	7	76	-35
3532751	7	74	-22
3533079	-3	87	-21
3533407	-9	75	-17
3533735	26	92	-7
3534063	50	93	-9
3534391	81	101	-19
3534719	107	94	-9
3535047	103	89	-5
3535375	89	90	-1
3535703	86	99	-6
3536031	92	102	-3
3536359	98	104	2
3536687	112	110	1
3537015	113	93	4
3537343	75	88	0
3537671	59	92	4
3537999	43	89	-1
3538327	21	93	-8
3538655	24	97	-8
3538983	21	97	-14
3539311	34	101	-12
3539639	26	103	-13
3539967	35	108	-19
3540295	27	115	-30
3540623	8	115	-28
3540951	-12	117	-20
3541279	-23	113	-18
