Time Stamp	Gyroscope X	Gyroscope Y	Gyroscope Z
RAW	RAW	RAW	RAW
no units	no units	no units	no units
6541886	-105	126	5
6542214	-109	137	6
6542542	-79	137	2
6542870	-56	132	-15
6543198	-70	131	-7
6543526	-81	133	-8
6543854	-89	135	-2
6544182	-83	134	-11
6544510	-89	132	-14
6544838	-84	143	-11
6545166	-86	141	-16
6545494	-58	142	0
6545822	-51	136	-11
6546150	-58	135	-19
6546478	-69	143	-27
6546806	-77	141	-16
6547134	-74	148	-14
6547462	-77	147	-25
6547790	-81	145	-31
6548118	-87	146	-30
6548446	-97	145	-29
6548774	-87	150	-17
6549102	-62	140	-24
6549430	-81	138	-35
6549758	-58	138	-22
6550086	-78	153	-33
6550414	-93	146	-22
6550742	-84	152	-28
6551070	-99	151	-26
6551398	-98	149	-25
6551726	-88	146	-23
6552054	-87	145	-23
6552382	-93	139	-32
6552710	-88	132	-16
6553038	-82	136	-21
6553366	-84	140	-21
6553694	-67	137	-29
6554022	-51	140	-22
6554350	-66	152	-40
6554678	-55	135	-27
6555006	-50	140	-23
6555334	-51	140	-32
6555662	-71	137	-27
6555990	-93	150	-31
6556318	-90	137	-20
6556646	-88	138	-39
6556974	-89	139	-39
6557302	-70	138	-40
6557630	-84	136	-30
6557958	-75	131	-34
6558286	-76	138	-28
6558614	-67	136	-38
6558942	-66	142	-37
6559270	-71	139	-40
6559598	-65	146	-33
6559926	-59	148	-39
6560254	-56	137	-30
6560582	-66	145	-19
6560910	-61	151	-30
6561238	-55	144	-22
6561566	-67	143	-29
6561894	-62	143	-31
6562222	-59	151	-16
6562550	-67	125	-33
6562878	-61	135	-38
6563206	-58	140	-36
6563534	-61	142	-35
6563862	-47	155	-25
6564190	-36	148	-27
6564518	-38	137	-23
6564846	-41	142	-29
6565174	-55	141	-28
6565502	-47	153	-23
6565830	-74	128	-18
6566158	-67	141	-27
6566486	-44	142	-21
6566814	-34	136	-28
6567142	-34	141	-28
6567470	-59	138	-27
6567798	-60	134	-24
6568126	-71	122	-16
6568454	-83	133	-17
6568782	-63	136	-21
6569110	-77	130	-44
6569438	-74	136	-39
6569766	-69	132	-27
6570094	-72	132	-33
6570422	-78	136	-32
6570750	-90	146	-46
6571078	-72	143	-50
6571406	-69	132	-36
6571734	-88	141	-49
6572062	-71	151	-44
6572390	-63	142	-47
6572718	-68	139	-43
6573046	-47	126	-51
6573374	-55	148	-42
6573702	-37	147	-38
6574030	-55	143	-58
6574358	-61	149	-40
6574686	-45	134	-41
6575014	-61	146	-49
6575342	-80	141	-51
6575670	-84	140	-48
6575998	-106	134	-48
6576326	-98	141	-47
6576654	-81	134	-49
6576982	-76	129	-44
6577310	-63	136	-55
6577638	-51	145	-45
6577966	-43	147	-49
6578294	-30	145	-51
6578622	-39	139	-58
6578950	-42	150	-66
6579278	-61	139	-59
6579606	-54	158	-55
6579934	-45	152	-70
6580262	-61	141	-79
6580590	-59	139	-57
6580918	-68	141	-61
6581246	-77	145	-60
6581574	-71	136	-56
6581902	-70	143	-66
6582230	-64	138	-65
6582558	-65	148	-61
6582886	-67	130	-65
6583214	-64	144	-62
6583542	-70	143	-70
6583870	-77	131	-61
6584198	-81	153	-73
6584526	-81	133	-56
6584854	-90	143	-67
6585182	-93	140	-74
6585510	-96	139	-59
6585838	-106	124	-56
6586166	-102	131	-59
6586494	-92	139	-60
6586822	-71	130	-57
6587150	-68	139	-60
6587478	-61	141	-76
6587806	-62	152	-70
6588134	-56	146	-68
6588462	-77	149	-53
6588790	-76	147	-42
6589118	-70	151	-58
6589446	-62	137	-57
6589774	-89	126	-51
6590102	-103	125	-50
6590430	-97	122	-41
6590758	-67	137	-46
6591086	-50	135	-47
6591414	-47	138	-51
6591742	-58	132	-44
6592070	-61	122	-33
6592398	-64	132	-48
6592726	-64	133	-37
6593054	-61	136	-52
6593382	-82	133	-43
6593710	-70	138	-47
6594038	-86	122	-44
6594366	-97	126	-35
6594694	-112	136	-51
6595022	-101	135	-47
6595350	-98	138	-49
6595678	-67	137	-40
6596006	-65	142	-57
6596334	-45	150	-50
6596662	-49	149	-61
6596990	-65	144	-49
6597318	-58	144	-42
6597646	-70	138	-51
6597974	-69	147	-45
6598302	-64	145	-42
6598630	-73	141	-55
6598958	-68	140	-41
6599286	-66	147	-47
6599614	-82	146	-55
6599942	-88	115	-49
6600270	-75	138	-36
6600598	-68	132	-40
6600926	-55	125	-48
6601254	-54	131	-49
6601582	-43	128	-50
6601910	-61	139	-42
6602238	-67	130	-43
6602566	-66	131	-47
6602894	-87	131	-50
6603222	-77	125	-40
6603550	-81	127	-50
6603878	-81	124	-53
6604206	-92	125	-39
6604534	-76	148	-48
6604862	-80	122	-47
6605190	-81	143	-42
6605518	-86	133	-43
6605846	-79	118	-45
6606174	-72	133	-39
6606502	-54	139	-55
6606830	-46	147	-49
6607158	-61	132	-41
6607486	-73	135	-42
6607814	-83	136	-46
6608142	-70	137	-40
6608470	-88	131	-49
6608798	-88	120	-42
6609126	-74	132	-49
6609454	-97	141	-44
6609782	-70	130	-43
6610110	-72	137	-50
6610438	-64	147	-44
6610766	-69	136	-54
6611094	-71	133	-38
6611422	-66	140	-46
6611750	-66	140	-43
6612078	-72	136	-34
6612406	-76	136	-49
6612734	-81	142	-43
6613062	-93	136	-39
6613390	-76	143	-36
6613718	-80	133	-42
6614046	-100	122	-41
6614374	-79	119	-32
6614702	-72	135	-22
6615030	-64	132	-32
6615358	-67	124	-29
6615686	-68	133	-32
6616014	-60	124	-24
6616342	-90	120	-21
6616670	-101	121	-17
6616998	-97	114	-18
6617326	-91	126	-24
6617654	-80	112	-24
6617982	-96	116	-19
6618310	-99	133	-20
6618638	-88	130	-16
6618966	-94	133	-30
6619294	-107	128	-16
6619622	-85	131	-28
6619950	-91	130	-17
6620278	-84	137	-21
6620606	-83	125	-14
6620934	-76	131	-18
6621262	-81	131	-15
6621590	-55	131	-20
6621918	-70	135	-12
6622246	-77	138	-30
6622574	-71	127	-19
6622902	-85	133	-17
6623230	-81	135	-14
6623558	-98	132	-6
6623886	-88	140	-9
6624214	-88	137	-23
6624542	-67	122	-31
6624870	-81	119	-18
6625198	-68	114	-25
6625526	-81	126	-16
6625854	-75	132	-13
6626182	-84	125	-18
6626510	-68	130	-9
6626838	-64	127	1
6627166	-62	131	-5
6627494	-72	128	-5
6627822	-67	132	-10
6628150	-77	126	-22
6628478	-75	121	-15
6628806	-69	122	-27
6629134	-94	124	-25
6629462	-89	116	-18
6629790	-96	130	-28
6630118	-74	134	-32
6630446	-88	135	-21
6630774	-71	130	-12
6631102	-94	119	-25
6631430	-86	121	-27
6631758	-87	119	-11
6632086	-75	131	-24
6632414	-82	128	-23
6632742	-88	136	-11
6633070	-66	122	-16
6633398	-83	131	-8
6633726	-87	115	-7
6634054	-80	124	-11
6634382	-78	129	-23
6634710	-83	123	-21
6635038	-62	123	-26
6635366	-72	130	-20
6635694	-64	121	-22
6636022	-60	140	-26
6636350	-52	137	-24
6636678	-65	120	-24
6637006	-58	126	-24
6637334	-65	126	-33
6637662	-82	126	-31
6637990	-68	118	-33
6638318	-82	128	-26
6638646	-79	113	-27
6638974	-70	132	-22
6639302	-56	130	-25
6639630	-55	135	-18
6639958	-39	115	-29
6640286	-20	132	-24
6640614	-41	123	-32
6640942	-60	127	-25
6641270	-80	124	-30
6641598	-86	124	-20
6641926	-83	111	-25
6642254	-72	117	-24
6642582	-68	114	-30
6642910	-59	119	-23
6643238	-71	119	-19
6643566	-54	121	-24
6643894	-48	129	-25
6644222	-66	125	-23
6644550	-44	136	-34
6644878	-46	137	-26
6645206	-41	123	-36
6645534	-50	141	-29
6645862	-50	125	-35
6646190	-63	131	-28
6646518	-56	132	-48
6646846	-60	124	-28
6647174	-84	122	-37
6647502	-78	113	-44
6647830	-65	124	-31
6648158	-82	131	-30
6648486	-89	116	-32
6648814	-73	123	-25
6649142	-74	121	-31
6649470	-72	119	-38
6649798	-77	120	-35
6650126	-65	124	-33
6650454	-64	126	-49
6650782	-70	130	-42
6651110	-63	126	-26
6651438	-74	117	-34
6651766	-68	117	-38
6652094	-49	124	-43
6652422	-73	123	-43
6652750	-50	111	-30
6653078	-75	126	-33
6653406	-48	128	-54
6653734	-51	119	-35
6654062	-46	127	-42
6654390	-63	131	-41
6654718	-60	125	-38
6655046	-63	123	-32
6655374	-79	122	-32
6655702	-54	123	-36
6656030	-69	128	-36
6656358	-57	121	-43
6656686	-71	114	-32
6657014	-63	137	-37
6657342	-76	127	-39
6657670	-55	118	-43
6657998	-47	126	-42
6658326	-44	130	-32
6658654	-71	137	-31
6658982	-76	127	-47
6659310	-76	132	-34
6659638	-57	118	-45
6659966	-56	135	-39
6660294	-63	137	-35
6660622	-49	132	-42
6660950	-77	135	-48
6661278	-83	127	-29
6661606	-77	123	-26
6661934	-65	122	-25
6662262	-64	130	-40
6662590	-53	118	-32
6662918	-53	119	-34
6663246	-56	121	-31
6663574	-48	123	-32
6663902	-50	131	-41
6664230	-41	123	-43
6664558	-61	127	-38
6664886	-83	119	-28
6665214	-69	120	-34
6665542	-64	125	-35
6665870	-62	125	-34
6666198	-38	116	-35
6666526	-38	130	-36
6666854	-52	122	-42
6667182	-68	110	-36
6667510	-57	119	-40
6667838	-76	112	-37
6668166	-50	120	-29
6668494	-54	124	-44
6668822	-46	118	-48
6669150	-37	128	-55
6669478	-45	132	-58
6669806	-53	132	-64
6670134	-78	137	-55
6670462	-80	128	-59
6670790	-73	137	-62
6671118	-62	130	-67
6671446	-40	147	-59
6671774	-10	141	-50
6672102	3	153	-72
6672430	10	157	-77
6672758	-13	149	-69
6673086	-10	145	-74
6673414	-22	145	-67
6673742	-14	135	-71
6674070	-23	155	-49
6674398	-32	143	-68
6674726	-24	149	-76
6675054	-41	137	-74
6675382	-50	131	-75
6675710	-61	136	-57
6676038	-53	141	-76
6676366	-53	139	-68
6676694	-51	140	-78
6677022	-49	148	-85
6677350	-67	143	-81
6677678	-77	150	-81
6678006	-85	143	-67
6678334	-83	126	-75
6678662	-82	133	-79
6678990	-75	131	-70
6679318	-62	137	-77
6679646	-74	131	-72
6679974	-71	138	-78
6680302	-80	130	-89
6680630	-86	133	-69
6680958	-88	146	-75
6681286	-66	137	-69
6681614	-67	155	-60
6681942	-89	132	-60
6682270	-100	135	-44
6682598	-98	120	-51
6682926	-107	127	-49
6683254	-89	131	-51
6683582	-89	132	-44
6683910	-86	136	-45
6684238	-92	119	-44
6684566	-92	129	-43
6684894	-103	127	-58
6685222	-92	134	-56
6685550	-94	133	-61
6685878	-133	119	-48
6686206	-139	112	-50
6686534	-147	103	-38
6686862	-150	110	-43
6687190	-161	110	-46
6687518	-124	109	-45
6687846	-127	119	-55
6688174	-104	114	-66
6688502	-99	134	-69
6688830	-112	123	-69
6689158	-107	135	-72
6689486	-102	134	-60
6689814	-93	135	-70
6690142	-73	147	-74
6690470	-60	143	-83
6690798	-60	148	-76
6691126	-60	130	-77
6691454	-58	128	-71
6691782	-67	137	-62
6692110	-69	130	-70
6692438	-52	126	-51
6692766	-38	126	-56
6693094	-29	125	-60
6693422	-28	124	-66
6693750	-22	131	-58
6694078	-38	129	-74
6694406	-38	129	-74
6694734	-27	129	-59
6695062	-45	133	-61
6695390	-43	135	-57
6695718	-44	133	-60
6696046	-73	133	-62
6696374	-70	128	-62
6696702	-62	123	-54
6697030	-55	135	-61
6697358	-61	127	-51
6697686	-78	131	-50
6698014	-88	120	-53
6698342	-89	125	-61
6698670	-72	136	-62
6698998	-69	123	-63
6699326	-52	123	-56
6699654	-59	134	-70
6699982	-54	146	-75
6700310	-70	115	-86
6700638	-101	124	-66
6700966	-118	111	-49
6701294	-100	118	-54
6701622	-65	124	-62
6701950	-63	130	-53
6702278	-62	118	-51
6702606	-60	133	-53
6702934	-53	126	-59
6703262	-35	123	-54
6703590	-43	130	-67
6703918	-62	139	-72
6704246	-40	145	-64
6704574	-30	129	-72
6704902	-27	148	-89
6705230	-30	145	-69
6705558	-45	124	-48
6705886	-38	120	-40
6706214	-53	130	-34
6706542	-42	120	-41
6706870	-21	125	-44
6707198	-39	109	-29
6707526	-30	127	-35
6707854	-24	122	-18
6708182	-6	131	-26
6708510	-14	111	-28
6708838	-9	111	-19
6709166	-23	124	-24
6709494	-33	117	-20
6709822	-21	110	-22
6710150	-6	118	-17
6710478	-20	115	-33
6710806	-15	126	-20
6711134	-13	108	-9
6711462	-18	118	-15
6711790	-14	115	-11
6712118	-21	108	-14
6712446	0	109	-16
6712774	-5	112	-16
6713102	4	125	-16
6713430	-15	118	-21
6713758	-32	106	-18
6714086	-37	102	-19
6714414	-69	95	-16
6714742	-74	84	-10
6715070	-81	94	-21
6715398	-84	77	-26
6715726	-91	77	-15
6716054	-89	90	-25
6716382	-113	88	-28
6716710	-104	89	-38
6717038	-107	91	-35
6717366	-110	77	-29
6717694	-115	84	-26
6718022	-99	98	-31
6718350	-104	98	-35
6718678	-76	108	-36
6719006	-86	98	-40
6719334	-90	87	-36
6719662	-112	75	-41
6719990	-107	97	-30
6720318	-108	85	-31
6720646	-91	87	-50
6720974	-86	98	-57
6721302	-107	84	-58
6721630	-118	91	-46
6721958	-164	64	-42
6722286	-225	7	-33
6722614	-182	-274	-30
6722942	-234	-404	-38
6723270	-265	-317	-41
6723598	-295	-312	-23
6723926	-338	-358	-22
6724254	-342	-261	-61
6724582	-352	-221	-61
6724910	-339	-132	-76
6725238	-402	-218	-103
6725566	-362	-193	-107
6725894	-385	-203	-112
6726222	-358	-238	-138
6726550	-333	-229	-181
6726878	-294	-248	-230
6727206	-303	-349	-233
6727534	-192	-303	-204
6727862	-199	-273	-236
6728190	-130	-194	-257
6728518	-102	-112	-276
6728846	-45	-46	-283
6729174	-16	-24	-294
6729502	85	40	-331
6729830	113	87	-343
6730158	196	124	-420
6730486	268	180	-451
6730814	348	244	-493
6731142	355	270	-519
6731470	342	259	-513
6731798	448	337	-597
6732126	670	330	-729
6732454	825	474	-913
6732782	992	612	-1079
6733110	1053	722	-1230
6733438	1004	764	-1295
6733766	1077	765	-1390
6734094	1058	801	-1652
6734422	863	848	-1994
6734750	511	900	-2412
6735078	75	867	-2663
6735406	-22	945	-2827
6735734	-150	1183	-2862
6736062	-90	1286	-2942
6736390	-306	1265	-2935
6736718	-573	1163	-3103
6737046	-567	1396	-3245
6737374	-927	964	-3184
6737702	-1393	643	-3254
6738030	-2383	123	-3313
6738358	-3023	-255	-3296
6738686	-3195	-790	-3337
6739014	-3102	-788	-3142
6739342	-3198	-856	-2602
6739670	-3994	-770	-2148
6739998	-4638	-876	-2582
6740326	-4326	-555	-2622
6740654	-3478	73	-1664
6740982	-2487	83	-382
6741310	-667	1001	88
6741638	1463	1104	1077
6741966	3040	744	2328
6742294	4069	731	3829
6742622	3947	1006	4781
6742950	2924	1295	4568
6743278	1953	2102	3871
6743606	1865	3162	2810
6743934	2021	5095	2324
6744262	2853	4323	3035
6744590	3994	1638	3822
6744918	4959	-4	4040
6745246	5024	422	3616
6745574	5705	-770	3360
6745902	6218	-1412	2607
6746230	5793	-826	4337
6746558	5544	-2434	4798
6746886	5390	-5457	4917
6747214	3675	-4161	4622
6747542	1686	-351	3191
6747870	-750	135	157
6748198	-864	-467	-90
6748526	-347	-997	684
6748854	-1421	-1139	346
6749182	-1245	-561	577
6749510	-1223	-455	950
6749838	-1429	-315	995
6750166	-1507	-304	847
6750494	-1433	-989	778
6750822	-1171	-605	755
6751150	-848	15	718
6751478	-410	26	630
6751806	174	43	557
6752134	549	264	488
6752462	772	177	552
6752790	676	-32	433
6753118	371	-124	202
6753446	-50	-258	12
6753774	-413	-277	-342
6754102	-741	-166	-709
6754430	-1491	237	-1160
6754758	-3457	3298	-1783
6755086	-5896	8452	-4209
6755414	-8536	10759	-7117
6755742	-2908	2272	-3158
6756070	113	-5080	-274
6756398	742	-2394	-95
6756726	-784	3673	1410
6757054	-2484	542	1977
6757382	-3473	-8032	608
6757710	-1662	-1516	-2834
6758038	-2081	-3013	-4413
6758366	-2736	3505	-2092
6758694	-1047	7539	770
6759022	-629	5862	948
6759350	4393	4442	-3020
6759678	8950	1266	-2206
6760006	6575	-5126	2373
6760334	4842	-7383	3954
6760662	651	-3165	4388
6760990	-2369	-729	3142
6761318	-3625	-725	2143
6761646	-3092	185	1811
6761974	-931	60	1649
6762302	-1331	-579	785
6762630	-463	64	606
6762958	314	354	743
6763286	413	-658	729
6763614	399	-978	899
6763942	-126	-504	835
6764270	412	-61	817
6764598	225	-1231	716
6764926	-235	-1172	654
6765254	-804	-545	963
6765582	-1637	-1054	818
6765910	-2027	-1076	670
6766238	-2040	-1222	722
6766566	-1843	-1115	585
6766894	-1590	-660	463
6767222	-1371	-351	499
6767550	-536	-753	608
6767878	-149	-831	591
6768206	-157	-719	532
6768534	-115	-612	377
6768862	-196	-348	465
6769190	-79	-513	330
6769518	-61	-366	359
6769846	-150	-339	216
6770174	-266	-67	305
6770502	-218	-134	566
6770830	-228	-461	446
6771158	-288	-79	395
6771486	-194	-9	447
6771814	-217	-208	462
6772142	-236	-159	462
6772470	-242	-244	359
6772798	-292	-136	244
6773126	-304	-42	170
6773454	-269	-151	77
6773782	71	15	519
6774110	180	-508	188
6774438	104	49	165
6774766	-4	-207	93
6775094	11	-306	102
6775422	-78	-205	73
6775750	-83	-238	167
6776078	-112	-307	15
6776406	-38	-157	-40
6776734	-178	-150	11
6777062	-280	-185	-17
6777390	-456	-41	32
6777718	-451	-115	48
6778046	-425	-143	45
6778374	-414	-88	-62
6778702	-352	9	-77
6779030	-293	-69	-91
6779358	-227	-17	-111
6779686	-197	-46	-48
6780014	-184	-65	-125
6780342	-159	38	-145
6780670	-103	-16	-147
6780998	-55	14	-193
6781326	-32	19	-187
6781654	6	-6	-170
6781982	8	-13	-179
6782310	-2	-5	-178
6782638	-1	42	-208
6782966	-7	50	-208
6783294	-38	83	-228
6783622	-62	88	-204
6783950	-74	89	-195
6784278	-125	122	-202
6784606	-109	128	-213
6784934	-94	109	-171
6785262	-150	129	-205
6785590	-138	98	-107
6785918	-118	172	-232
6786246	-197	151	-82
6786574	-206	2	-125
6786902	-212	128	-120
6787230	-108	123	-144
6787558	-113	108	-91
6787886	-79	109	-88
6788214	-71	164	-119
6788542	-50	137	-132
6788870	-46	130	-97
6789198	-50	120	-117
6789526	-47	126	-53
6789854	-59	91	-63
6790182	-49	155	-105
6790510	-32	198	-117
6790838	-23	196	-122
6791166	-49	170	-95
6791494	-68	176	-100
6791822	-94	200	-91
6792150	-63	214	-124
6792478	-89	289	-85
6792806	-81	328	-101
6793134	14	353	-111
6793462	103	234	-86
6793790	92	250	-101
6794118	48	305	-116
6794446	28	213	-88
6794774	4	246	-85
6795102	-20	282	-93
6795430	54	228	-51
6795758	37	223	-56
6796086	31	237	-82
6796414	72	272	-89
6796742	63	267	-76
6797070	-10	207	-45
6797398	-23	143	-37
6797726	-64	172	-56
6798054	-109	205	-58
6798382	-88	185	-45
6798710	-120	206	-43
6799038	-72	200	-28
6799366	-100	140	-21
6799694	-119	111	-20
6800022	-112	131	-16
6800350	-101	123	-19
6800678	-99	131	-16
6801006	-95	116	-8
6801334	-54	88	-1
6801662	-34	115	-24
6801990	-13	96	-18
6802318	4	110	-35
6802646	-22	111	-12
6802974	-28	93	-3
6803302	-40	112	-15
6803630	-49	98	-8
6803958	-47	109	-7
6804286	-53	122	-27
6804614	-53	109	-26
6804942	-36	118	-22
6805270	-37	148	-16
6805598	-7	101	-26
6805926	-15	111	-24
6806254	-31	80	-22
6806582	-58	100	-23
6806910	-56	118	-21
6807238	-71	119	-19
6807566	-76	116	-15
6807894	-56	123	-17
6808222	-22	111	-44
6808550	-33	134	-43
6808878	-58	125	-22
6809206	-53	93	-34
6809534	-36	114	-49
6809862	-70	121	-15
6810190	-126	116	-32
6810518	-70	128	-19
6810846	-69	125	-101
6811174	-80	185	-61
6811502	-20	71	4
6811830	-54	69	-15
6812158	-83	141	-30
6812486	-64	124	-47
6812814	-99	112	-30
6813142	-43	101	-51
6813470	-89	136	-33
6813798	-107	84	-28
6814126	-130	101	-33
6814454	-140	122	-21
6814782	-95	72	-50
6815110	-113	147	-51
6815438	-116	83	-28
6815766	-105	80	-44
6816094	-119	108	-29
6816422	-112	106	-17
6816750	-43	99	-34
6817078	-45	71	-36
6817406	-56	131	-59
6817734	-52	127	-32
6818062	-68	96	-36
6818390	-88	123	-25
6818718	-86	95	-15
6819046	-108	94	-13
6819374	-114	78	-35
6819702	-120	124	-34
6820030	-115	124	-45
6820358	-111	130	-48
6820686	-116	135	-18
6821014	-113	108	-21
6821342	-139	96	-12
6821670	-138	101	-11
6821998	-124	113	-23
6822326	-87	126	-28
6822654	-79	129	-54
6822982	-73	133	-32
6823310	-87	125	-30
6823638	-121	134	-27
6823966	-134	122	-16
6824294	-141	154	-21
6824622	-107	159	-18
6824950	-78	209	-40
6825278	-82	176	-41
6825606	-74	138	-22
6825934	-88	173	-20
6826262	-100	181	-18
6826590	-73	209	-24
6826918	-74	196	-38
6827246	-76	186	-37
6827574	-75	183	-25
6827902	-100	168	-22
6828230	-97	202	-28
6828558	-110	198	-20
6828886	-98	154	-19
6829214	-101	178	-8
6829542	-91	177	-35
6829870	-79	207	-39
6830198	-75	220	-49
6830526	-108	226	-24
6830854	-88	242	-21
6831182	-79	211	-12
6831510	-71	216	-23
6831838	-69	190	-22
6832166	-66	232	-30
6832494	-70	242	-17
6832822	-9	216	12
6833150	-49	172	-62
6833478	-38	192	-20
6833806	-85	169	13
6834134	-101	212	1
6834462	-103	199	-31
6834790	-82	172	-7
6835118	-104	163	-32
6835446	-103	210	-39
6835774	-58	212	-36
6836102	-48	184	-44
6836430	-46	198	-45
6836758	-67	191	-40
6837086	-60	192	-28
6837414	-75	195	-44
6837742	-65	202	-25
6838070	-50	184	-34
6838398	-71	171	-46
6838726	-102	152	-38
6839054	-123	170	-27
6839382	-109	166	-32
6839710	-95	195	-30
6840038	-72	154	-9
6840366	-93	143	-16
6840694	-79	145	-29
6841022	-95	141	-19
6841350	-70	140	-14
6841678	-82	148	-26
6842006	-101	149	-21
6842334	-79	107	-19
6842662	-89	121	-3
6842990	-107	119	6
6843318	-106	118	4
6843646	-95	133	11
6843974	-97	112	-2
6844302	-92	119	-15
6844630	-58	100	-16
6844958	-79	100	-21
6845286	-86	105	-26
6845614	-106	123	-23
6845942	-106	117	-30
6846270	-100	112	-22
6846598	-101	134	-21
6846926	-112	115	-36
6847254	-87	124	-26
6847582	-109	111	-30
6847910	-112	100	-26
6848238	-135	102	-33
6848566	-126	108	-24
6848894	-156	103	-11
6849222	-142	108	-15
6849550	-141	118	-20
6849878	-148	129	-47
6850206	-146	119	-35
6850534	-149	142	-49
6850862	-138	130	-28
6851190	-146	157	-51
6851518	-138	117	-35
6851846	-133	118	-25
6852174	-131	123	-37
6852502	-134	141	-47
6852830	-121	102	-38
6853158	-131	107	-38
6853486	-130	119	-29
6853814	-116	111	-26
6854142	-105	135	-19
6854470	-106	134	-21
6854798	-97	139	-22
6855126	-68	139	-11
6855454	-82	156	-20
6855782	-48	140	-16
6856110	-36	151	-14
6856438	-34	167	-38
6856766	-49	131	-28
6857094	-36	127	-18
6857422	-45	120	-14
6857750	-44	151	-33
6858078	-56	164	-16
6858406	-53	151	-26
6858734	-63	158	-33
6859062	-48	148	-22
6859390	-56	125	-20
6859718	-45	166	-33
6860046	-47	166	-16
6860374	-47	189	-22
6860702	-56	188	-34
6861030	-46	179	-31
6861358	-70	189	-36
6861686	-75	153	-17
6862014	-79	149	-16
6862342	-106	163	-28
6862670	-117	149	-31
6862998	-144	120	-14
6863326	-137	155	-41
6863654	-139	141	-31
6863982	-124	164	-37
6864310	-144	124	-30
6864638	-159	159	-30
6864966	-159	150	-34
6865294	-159	166	-41
6865622	-119	160	-25
6865950	-103	161	-34
6866278	-140	163	-44
6866606	-118	140	-36
6866934	-133	146	-26
6867262	-129	177	-33
6867590	-114	166	-32
6867918	-100	140	-47
6868246	-111	150	-42
6868574	-111	144	-44
6868902	-111	146	-46
6869230	-123	179	-40
6869558	-116	178	-37
6869886	-94	178	-41
6870214	-80	195	-40
6870542	-88	183	-46
6870870	-73	198	-53
6871198	-86	204	-68
6871526	-95	207	-53
6871854	-63	208	-67
6872182	-78	214	-51
6872510	-35	215	-61
6872838	-30	195	-64
6873166	-16	228	-75
6873494	-30	220	-61
6873822	-65	226	-63
6874150	-72	242	-59
6874478	-111	256	-71
6874806	-89	262	-91
6875134	-65	255	-78
6875462	-59	301	-69
6875790	-38	307	-98
6876118	-23	276	-74
6876446	-12	250	-75
6876774	-82	219	-85
6877102	-93	200	-80
6877430	-69	180	-83
6877758	-98	220	-99
6878086	-104	185	-71
6878414	-72	172	-75
6878742	-94	224	-82
6879070	-95	217	-99
6879398	-96	240	-93
6879726	-109	247	-92
6880054	-103	301	-86
6880382	-86	300	-61
6880710	-99	260	-86
6881038	-22	232	-100
6881366	-71	270	-108
6881694	-85	259	-105
6882022	-110	266	-77
6882350	-107	215	-71
6882678	-108	256	-86
6883006	-77	268	-94
6883334	-35	290	-111
6883662	-20	338	-110
6883990	-29	318	-103
6884318	-22	354	-101
6884646	-39	391	-102
6884974	-28	381	-99
6885302	-40	412	-101
6885630	-56	403	-78
6885958	-77	374	-81
6886286	-42	390	-70
6886614	-33	374	-70
6886942	-67	353	-100
6887270	-32	305	-92
6887598	-39	311	-92
6887926	-60	277	-97
6888254	-90	245	-79
6888582	-112	191	-62
6888910	-91	178	-60
6889238	-90	129	-56
6889566	-83	144	-50
6889894	-73	95	-53
6890222	-68	110	-57
6890550	-34	125	-66
6890878	-42	129	-73
6891206	-25	162	-64
6891534	-22	149	-63
6891862	-28	175	-87
6892190	-37	176	-80
6892518	-44	131	-66
6892846	-35	123	-65
6893174	-40	113	-59
6893502	-78	103	-83
6893830	-86	106	-60
6894158	-80	118	-60
6894486	-60	132	-76
6894814	-61	143	-79
6895142	-54	95	-66
6895470	-46	121	-78
6895798	-73	136	-64
6896126	-86	127	-67
6896454	-72	127	-69
6896782	-69	158	-71
6897110	-70	126	-107
6897438	-70	121	-104
6897766	-94	89	-83
6898094	-81	62	-76
6898422	-84	78	-66
6898750	-93	93	-62
6899078	-73	93	-82
6899406	-70	117	-92
6899734	-64	110	-83
6900062	-80	105	-65
6900390	-74	127	-70
6900718	-94	126	-71
6901046	-88	116	-67
6901374	-75	125	-70
6901702	-52	127	-75
6902030	-52	127	-75
6902358	-62	144	-50
6902686	-80	116	-74
6903014	-68	127	-77
6903342	-93	115	-69
6903670	-98	87	-63
6903998	-83	69	-51
6904326	-81	43	-55
6904654	-62	58	-60
6904982	-45	51	-71
6905310	-32	65	-64
6905638	-35	75	-42
6905966	-37	50	-55
6906294	-29	94	-45
6906622	-15	81	-41
6906950	-12	79	-45
6907278	-32	99	-45
6907606	-37	69	-37
6907934	-57	69	-24
6908262	-74	-30	-14
6908590	-46	-190	-12
6908918	-61	-215	-4
6909246	-82	-62	4
6909574	-102	-50	-11
6909902	-117	37	-6
6910230	-115	58	-7
6910558	-147	48	-21
6910886	-132	99	-9
6911214	-139	119	-20
6911542	-143	57	0
6911870	-153	77	19
6912198	-157	74	5
6912526	-171	47	0
6912854	-184	85	7
6913182	-200	-24	8
6913510	-189	-70	14
6913838	-172	-38	25
6914166	-214	-39	9
6914494	-207	14	3
6914822	-225	37	-8
6915150	-257	34	-23
6915478	-230	54	-3
6915806	-229	62	-8
6916134	-236	85	-4
6916462	-189	40	1
6916790	-204	-19	16
6917118	-180	19	4
6917446	-182	18	-17
6917774	-127	20	-14
6918102	-128	62	-33
6918430	-96	90	-38
6918758	-72	129	-56
6919086	-82	164	-46
6919414	-68	150	-43
6919742	-62	193	-50
6920070	-58	208	-77
6920398	-19	214	-72
6920726	29	234	-72
6921054	38	176	-62
6921382	18	177	-35
6921710	10	178	-37
6922038	24	187	-59
6922366	23	219	-43
6922694	23	198	-58
6923022	24	207	-46
6923350	24	208	-50
6923678	50	212	-61
6924006	48	215	-67
6924334	66	217	-55
6924662	61	192	-65
6924990	73	190	-52
6925318	67	180	-54
6925646	72	167	-51
6925974	78	159	-78
6926302	46	136	-71
6926630	59	115	-43
6926958	24	122	-47
6927286	25	139	-48
6927614	-4	143	-62
6927942	-30	168	-63
6928270	-50	173	-55
6928598	-101	174	-46
6928926	-123	169	-39
6929254	-104	204	-44
6929582	-89	227	-57
6929910	-84	227	-63
6930238	-45	267	-61
6930566	-23	283	-61
6930894	-37	259	-65
6931222	-30	269	-52
6931550	-26	265	-64
6931878	-42	252	-57
6932206	-73	173	-57
6932534	-69	200	-46
6932862	-73	188	-37
6933190	-67	202	-56
6933518	-74	209	-52
6933846	-83	191	-58
6934174	-70	180	-39
6934502	-45	173	-52
6934830	-29	192	-45
6935158	-46	189	-60
6935486	-47	168	-38
6935814	-74	165	-40
6936142	-93	170	-46
6936470	-75	199	-35
6936798	-50	185	-46
6937126	-13	173	-51
6937454	-29	176	-40
6937782	-46	126	-2
6938110	-53	113	12
6938438	-51	110	13
6938766	-47	100	4
6939094	-46	103	-5
6939422	-46	113	-4
6939750	-38	102	14
6940078	-48	118	17
6940406	-15	77	32
6940734	-27	116	17
6941062	-10	115	11
6941390	4	142	-7
6941718	1	154	-13
6942046	19	139	-6
6942374	23	125	-20
6942702	10	125	-17
6943030	-16	130	-31
6943358	-71	115	-51
6943686	-68	121	-51
6944014	-86	84	-64
6944342	-111	101	-61
6944670	-116	88	-63
6944998	-136	89	-53
6945326	-126	63	-56
6945654	-130	47	-46
6945982	-151	13	-42
6946310	-113	-4	-44
6946638	-99	-9	-54
6946966	-96	17	-44
6947294	-79	52	-39
6947622	-71	75	-42
6947950	-82	67	-41
6948278	-67	85	-41
6948606	-82	77	-39
6948934	-81	63	-25
6949262	-56	9	-29
6949590	-13	-46	-22
6949918	-27	-6	-40
6950246	-31	32	-39
6950574	-49	71	-39
6950902	-32	68	-33
6951230	-54	65	-37
6951558	-29	96	-34
6951886	-45	114	-30
6952214	-33	118	-38
6952542	-44	92	-21
6952870	-34	111	-21
6953198	-29	91	-10
6953526	-17	73	-25
6953854	1	-5	-28
6954182	-38	24	-26
6954510	-72	24	-35
6954838	-66	27	-30
6955166	-69	63	-23
6955494	-48	82	-56
6955822	-44	88	-54
6956150	-23	108	-64
6956478	-44	74	-57
6956806	-41	87	-41
6957134	-57	102	-45
6957462	-70	105	-40
6957790	-79	128	-56
6958118	-60	108	-55
6958446	-55	138	-57
6958774	-72	103	-61
6959102	-69	77	-56
6959430	-79	92	-57
6959758	-112	81	-73
6960086	-116	65	-59
6960414	-138	59	-54
6960742	-136	45	-52
6961070	-136	77	-59
6961398	-113	83	-84
6961726	-108	112	-86
6962054	-140	103	-88
6962382	-119	92	-73
6962710	-127	94	-68
6963038	-92	78	-65
6963366	-120	89	-68
6963694	-140	80	-54
6964022	-132	31	-43
6964350	-128	8	-43
6964678	-107	32	-33
6965006	-106	15	-31
6965334	-67	11	-37
6965662	-100	35	-32
6965990	-148	26	-31
6966318	-159	42	-27
6966646	-187	39	-40
6966974	-175	48	-46
6967302	-142	71	-45
6967630	-127	78	-39
6967958	-105	102	-35
6968286	-74	92	-39
6968614	-71	57	-46
6968942	-59	84	-31
6969270	-97	91	-42
6969598	-94	96	-50
6969926	-103	75	-46
6970254	-100	70	-37
6970582	-89	89	-38
6970910	-95	108	-58
6971238	-67	112	-44
6971566	-95	108	-29
6971894	-84	121	-39
6972222	-66	134	-46
6972550	-42	153	-53
6972878	-28	162	-57
6973206	-30	169	-52
6973534	-54	177	-58
6973862	-47	180	-36
6974190	-52	200	-42
6974518	-55	196	-51
6974846	-18	110	-60
6975174	6	77	-56
6975502	-17	138	-60
6975830	20	102	-70
6976158	20	103	-65
6976486	18	124	-85
6976814	18	127	-99
6977142	6	141	-112
6977470	-16	144	-94
6977798	-8	154	-87
6978126	7	143	-99
6978454	36	170	-101
6978782	57	179	-83
6979110	57	147	-73
6979438	42	128	-56
6979766	18	128	-50
6980094	67	158	-35
6980422	77	144	-32
6980750	85	144	-39
6981078	82	149	-43
6981406	79	157	-21
6981734	39	145	-37
6982062	0	140	-46
6982390	-58	116	-24
6982718	-51	147	-49
6983046	-57	137	-66
6983374	-16	155	-81
6983702	20	144	-107
6984030	-2	105	-96
6984358	-22	118	-100
6984686	-48	101	-99
6985014	-53	134	-126
6985342	-25	115	-145
6985670	-36	84	-162
6985998	4	81	-180
6986326	-35	34	-188
6986654	-52	-30	-194
6986982	-65	-5	-195
6987310	-45	1	-203
6987638	-32	48	-245
6987966	-14	17	-256
6988294	25	52	-280
6988622	25	33	-305
6988950	24	-16	-325
6989278	-24	-39	-328
6989606	-75	27	-347
6989934	-26	-556	-323
6990262	-137	-569	-361
6990590	-193	-311	-379
6990918	-285	-396	-417
6991246	-379	-294	-453
6991574	-516	-265	-474
6991902	-643	-199	-403
6992230	-540	-78	-380
6992558	-389	-9	-359
6992886	-177	79	-380
6993214	63	92	-429
6993542	213	142	-484
6993870	239	108	-518
6994198	222	156	-490
6994526	264	280	-418
6994854	278	352	-297
6995182	225	251	-168
6995510	171	199	-136
6995838	226	314	-75
6996166	443	313	-26
6996494	793	465	11
6996822	1331	814	125
6997150	1750	1083	369
6997478	1883	1193	468
6997806	1992	1093	481
6998134	1990	1008	528
6998462	2035	967	570
6998790	2153	945	703
6999118	2244	926	780
6999446	2284	936	867
6999774	1927	824	719
7000102	1237	407	570
7000430	578	-215	387
7000758	358	-386	292
7001086	432	-50	364
7001414	583	82	612
7001742	527	273	770
7002070	522	301	752
7002398	822	166	726
7002726	1046	147	744
7003054	1301	19	761
7003382	1431	-37	813
7003710	1492	27	871
7004038	1424	148	885
7004366	1248	97	831
7004694	1044	-12	777
7005022	855	100	675
7005350	705	239	634
7005678	656	244	587
7006006	537	128	537
7006334	396	79	476
7006662	202	218	455
7006990	-71	196	398
7007318	-395	189	334
7007646	-663	254	382
7007974	-824	155	366
7008302	-882	273	282
7008630	-935	276	247
7008958	-990	154	197
7009286	-1050	55	178
7009614	-1173	84	104
7009942	-1187	167	31
7010270	-1155	230	-19
7010598	-1091	239	-86
7010926	-1063	134	-175
7011254	-1094	180	-224
7011582	-1109	147	-310
7011910	-1156	30	-370
7012238	-1310	-5	-449
7012566	-1491	94	-507
7012894	-1653	-63	-593
7013222	-1748	-176	-752
7013550	-1979	-136	-812
7013878	-2367	-385	-962
7014206	-2711	-690	-1168
7014534	-2769	-561	-1313
7014862	-2904	-477	-1658
7015190	-3086	-634	-1805
7015518	-3428	-773	-1865
7015846	-3936	-854	-1853
7016174	-4361	-1084	-1841
7016502	-4632	-1130	-1846
7016830	-4662	-1155	-1962
7017158	-4374	-1046	-2084
7017486	-3892	-1009	-2215
7017814	-3180	-946	-2273
7018142	-2310	-897	-2338
7018470	-1557	-927	-2291
7018798	-915	-1062	-2196
7019126	-479	-1165	-2127
7019454	-311	-1281	-2042
7019782	-201	-1412	-1964
7020110	-351	-1528	-1894
7020438	-581	-1713	-1821
7020766	-853	-2118	-1721
7021094	-1220	-2309	-1659
7021422	-1585	-2455	-1617
7021750	-1835	-2578	-1588
7022078	-1964	-2667	-1565
7022406	-2005	-2691	-1582
7022734	-1993	-2816	-1454
7023062	-1969	-2703	-1556
7023390	-1885	-2848	-1572
7023718	-1813	-2879	-1629
7024046	-1739	-2712	-1681
7024374	-1748	-2619	-1716
7024702	-1788	-2582	-1737
7025030	-2009	-2605	-1750
7025358	-2177	-2747	-1744
7025686	-2412	-2664	-1720
7026014	-2586	-2675	-1785
7026342	-2812	-2566	-1846
7026670	-2987	-2505	-1899
7026998	-3166	-2400	-1854
7027326	-3379	-2348	-1803
7027654	-3558	-2206	-1694
7027982	-3756	-2034	-1569
7028310	-3958	-1964	-1485
7028638	-4108	-1808	-1428
7028966	-4179	-1663	-1359
7029294	-4124	-1418	-1208
7029622	-4054	-1139	-1141
7029950	-3746	-1041	-984
7030278	-3306	-852	-611
7030606	-2713	-1017	-196
7030934	-2156	-1104	327
7031262	-1791	-1055	575
7031590	-1615	-1002	605
7031918	-1623	-848	324
7032246	-1556	-347	-78
7032574	-1333	136	-405
7032902	-1095	373	-477
7033230	-999	433	-189
7033558	-1015	492	192
7033886	-1072	493	620
7034214	-1178	752	801
7034542	-1118	811	775
7034870	-1012	830	651
7035198	-750	767	662
7035526	-463	676	762
7035854	-340	751	840
7036182	-385	750	985
7036510	-597	706	1023
7036838	-901	794	1048
7037166	-1137	892	986
7037494	-1078	1097	936
7037822	-907	1208	898
7038150	-724	1287	835
7038478	-648	1329	864
7038806	-862	1250	917
7039134	-1293	1199	924
7039462	-1442	1110	916
7039790	-1471	1287	863
7040118	-1292	1405	731
7040446	-956	1419	668
7040774	-682	1215	641
7041102	-587	1208	614
7041430	-724	1165	618
7041758	-879	1048	538
7042086	-1005	966	418
7042414	-1115	875	394
7042742	-1174	781	383
7043070	-1192	748	389
7043398	-1159	774	416
7043726	-1042	732	446
7044054	-798	833	480
7044382	-533	847	440
7044710	-214	866	371
7045038	-4	757	296
7045366	8	663	214
7045694	9	708	119
7046022	26	714	-31
7046350	12	706	-147
7046678	-9	715	-267
7047006	-28	653	-354
7047334	-45	580	-423
7047662	-98	496	-480
7047990	-161	376	-541
7048318	-236	291	-606
7048646	-300	229	-680
7048974	-389	48	-788
7049302	-411	-13	-869
7049630	-445	-51	-946
7049958	-396	-309	-1014
7050286	-100	-1150	-1029
7050614	53	-2003	-1068
7050942	4	-1798	-1146
7051270	44	-1580	-1272
7051598	91	-2074	-1352
7051926	129	-1990	-1546
7052254	149	-1375	-1631
7052582	244	-1059	-1726
7052910	294	-816	-1718
7053238	319	-753	-1626
7053566	268	-1203	-1521
7053894	200	-1079	-1531
7054222	218	-1103	-1579
7054550	278	-1226	-1577
7054878	386	-854	-1535
7055206	337	-671	-1426
7055534	288	-631	-1311
7055862	254	-631	-1196
7056190	270	-646	-1130
7056518	292	-564	-1046
7056846	342	-443	-982
7057174	321	-274	-918
7057502	317	-130	-815
7057830	301	-77	-728
7058158	367	2	-682
7058486	512	164	-660
7058814	615	341	-669
7059142	681	473	-637
7059470	668	575	-557
7059798	611	661	-479
7060126	597	885	-393
7060454	640	1073	-285
7060782	763	1219	-208
7061110	885	1316	-198
7061438	1098	1436	-207
7061766	1338	1490	-184
7062094	1567	1532	-127
7062422	1711	1582	-101
7062750	1815	1621	-11
7063078	1828	1596	45
7063406	1862	1550	69
7063734	1976	1548	64
7064062	2167	1554	50
7064390	2526	1638	64
7064718	2890	1720	155
7065046	3032	1680	259
7065374	3056	1538	325
7065702	3063	1491	389
7066030	2991	1505	338
7066358	2927	1519	290
7066686	2807	1536	296
7067014	2676	1603	351
7067342	2554	1628	417
7067670	2371	1541	472
7067998	2213	1469	508
7068326	2047	1322	560
7068654	1914	1170	593
7068982	1742	1034	618
7069310	1631	849	630
7069638	1507	694	589
7069966	1443	607	651
7070294	1508	474	714
7070622	1529	432	797
7070950	1509	303	802
7071278	1491	189	732
7071606	1464	102	642
7071934	1360	53	629
7072262	1183	6	600
7072590	1059	-177	564
7072918	937	-111	462
7073246	962	67	424
7073574	1087	14	346
7073902	1199	21	230
7074230	1327	-17	125
7074558	1410	-69	29
7074886	1517	-54	-43
7075214	1674	-26	-105
7075542	1861	-34	-177
7075870	2045	-50	-289
7076198	2266	-18	-314
7076526	2518	-470	-355
7076854	2739	-646	-371
7077182	2801	-318	-461
7077510	2890	-532	-524
7077838	3014	-598	-595
7078166	3104	-672	-642
7078494	3127	-928	-694
7078822	3151	-1018	-708
7079150	3103	-1252	-779
7079478	3016	-1408	-844
7079806	2575	-1393	-1101
7080134	2696	-2005	-852
7080462	2814	-2582	-844
7080790	2695	-2237	-849
7081118	2911	-2462	-766
7081446	3438	-2401	-733
7081774	4278	-2228	-648
7082102	5335	-2222	-421
7082430	6667	-2306	-214
7082758	8248	-2481	91
7083086	9978	-2217	333
7083414	11985	-1165	528
7083742	14168	-319	629
7084070	16320	1192	809
7084398	18092	2544	1277
7084726	19509	2790	1482
7085054	20485	3410	1916
7085382	20721	4756	2113
7085710	20706	5512	2249
7086038	20280	6191	2272
7086366	19463	6797	2215
7086694	18222	6684	1875
7087022	16118	6190	1486
7087350	13865	5735	682
7087678	11860	6016	111
7088006	10387	6631	-616
7088334	9299	6838	-1490
7088662	8064	7102	-2262
7088990	7288	7226	-2727
7089318	6462	7323	-3507
7089646	5444	6621	-4006
7089974	4581	5947	-4105
7090302	3817	5593	-4381
7090630	3355	5441	-4702
7090958	3091	5454	-4661
7091286	2958	5450	-4598
7091614	3008	5361	-4471
7091942	3007	5196	-4380
7092270	2857	4891	-4055
7092598	2712	4457	-3705
7092926	2607	3914	-3758
7093254	2494	3659	-3507
7093582	2292	3456	-3576
7093910	2154	3613	-3538
7094238	2090	3408	-3533
7094566	1992	3447	-3330
7094894	2176	2949	-3259
7095222	2053	3102	-2446
7095550	1903	2066	-2014
7095878	1600	2132	-1870
7096206	1473	2213	-1765
7096534	1319	1984	-1532
7096862	1101	1651	-1168
7097190	974	1528	-886
7097518	890	1436	-486
7097846	935	1113	-178
7098174	966	986	108
7098502	1110	851	399
7098830	1155	768	682
7099158	1218	855	953
7099486	1306	1081	908
7099814	1424	1504	824
7100142	1624	1822	682
7100470	1798	1925	476
7100798	1980	2100	379
7101126	2199	2137	270
7101454	2224	2013	258
7101782	2342	1982	232
7102110	2311	2042	189
7102438	2285	1938	187
7102766	2383	2056	234
7103094	2614	2152	342
7103422	2867	2072	491
7103750	3096	1928	640
7104078	3271	1668	712
7104406	3384	1548	893
7104734	3483	1376	1106
7105062	3598	1163	1283
7105390	3629	909	1411
7105718	3664	617	1458
7106046	3472	411	1447
7106374	2987	105	1336
7106702	1940	-55	1145
7107030	157	415	668
7107358	-2168	541	-1021
7107686	-3037	618	-2879
7108014	-3139	1942	-3825
7108342	-3341	1930	-4227
7108670	-3725	1390	-4037
7108998	-4028	739	-3498
7109326	-4367	15	-2250
7109654	-4153	-657	-1768
7109982	-4086	-913	-2115
7110310	-4076	165	-2782
7110638	-3907	41	-2929
7110966	-4039	786	-3316
7111294	-3930	1258	-3044
7111622	-3504	1220	-2514
7111950	-3068	1289	-2079
7112278	-2815	1639	-1766
7112606	-2518	1989	-1590
7112934	-2198	2354	-1632
7113262	-1536	2630	-1743
7113590	-768	2632	-1686
7113918	-11	2217	-1479
7114246	469	1729	-1556
7114574	860	1627	-1732
7114902	948	1823	-1891
7115230	837	1827	-1869
7115558	798	1659	-1876
7115886	574	1829	-1925
7116214	228	2006	-1969
7116542	2	2009	-1958
7116870	-85	1823	-2072
7117198	-90	1854	-2065
7117526	15	1854	-2207
7117854	241	1872	-2462
7118182	682	2045	-2585
7118510	1051	2312	-2702
7118838	1321	2423	-2823
7119166	1233	2649	-2821
7119494	928	2761	-2779
7119822	826	3029	-2752
7120150	912	3117	-2790
7120478	1164	3081	-2774
7120806	1446	3147	-2747
7121134	1508	3045	-2699
7121462	1646	2630	-2664
7121790	2087	2516	-2502
7122118	2742	2482	-2386
7122446	3295	1883	-2298
7122774	3846	1982	-2252
7123102	4368	2338	-2275
7123430	4860	2174	-2320
7123758	5502	2425	-2257
7124086	6024	2399	-2305
7124414	6590	1978	-2559
7124742	7242	2309	-2909
7125070	7677	2449	-3272
7125398	8040	2502	-3693
7125726	8506	3238	-4052
7126054	8360	3018	-4408
7126382	7980	3525	-4930
7126710	7576	3890	-5698
7127038	7190	2998	-6179
7127366	7583	2960	-6238
7127694	7741	2711	-5740
7128022	7330	2060	-5366
7128350	6122	1666	-5085
7128678	5397	1288	-4910
7129006	5428	1226	-4582
7129334	5781	1076	-3653
7129662	6272	165	-2743
7129990	6358	-490	-1373
7130318	5939	-1203	-187
7130646	5380	-1867	801
7130974	4880	-2647	1667
7131302	4946	-3316	2303
7131630	5284	-3416	2767
7131958	5692	-3150	2899
7132286	6345	-2614	2958
7132614	6624	-2097	3274
7132942	6809	-1502	3292
7133270	6851	-1232	3465
7133598	6471	-1087	3431
7133926	6197	-778	3263
7134254	5752	-564	3077
7134582	5120	-339	2651
7134910	4094	-365	1720
7135238	1561	-798	22
7135566	-1368	23	-1690
7135894	-68	1054	-1723
7136222	1021	-662	-77
7136550	-27	-1655	-212
7136878	-1645	-1911	-627
7137206	-892	-1873	-567
7137534	773	-1063	-362
7137862	1127	-486	-505
7138190	644	-202	-721
7138518	34	-347	-504
7138846	92	-327	-440
7139174	434	-39	-311
7139502	478	47	-191
7139830	61	28	-89
7140158	-617	-114	50
7140486	-1289	-282	267
7140814	-1777	-346	484
7141142	-2274	-257	582
7141470	-2632	-185	693
7141798	-2605	-127	832
7142126	-2367	-2	857
7142454	-2317	1	963
7142782	-2406	-111	1130
7143110	-2653	-199	1087
7143438	-3037	-423	1120
7143766	-3242	-583	1081
7144094	-3118	-659	995
7144422	-3233	-826	946
7144750	-3889	-1006	954
7145078	-5072	-1409	1022
7145406	-6186	-1733	1000
7145734	-7080	-1957	871
7146062	-7673	-2035	737
7146390	-7908	-2026	806
7146718	-8016	-2143	1030
7147046	-7866	-2214	1267
7147374	-7544	-2142	1556
7147702	-7231	-2205	1749
7148030	-6935	-2155	1780
7148358	-6767	-1940	1787
7148686	-6498	-1795	1800
7149014	-6241	-1575	1827
7149342	-5981	-1416	2001
7149670	-5552	-1350	2212
7149998	-4794	-941	2339
7150326	-3791	-535	2537
7150654	-2856	51	2830
7150982	-1740	789	3248
7151310	-603	1592	3709
7151638	561	2483	4315
7151966	1942	3367	4884
7152294	3744	4162	5158
7152622	5800	5379	5156
7152950	7558	5173	4637
7153278	4357	6382	4579
7153606	2742	3932	2362
7153934	1053	2523	3565
7154262	-737	6447	3995
7154590	-1871	7538	4242
7154918	-372	8074	4534
7155246	1586	7816	4586
7155574	3724	6826	3934
7155902	5847	3668	3690
7156230	5407	1079	3334
7156558	3718	586	2951
7156886	1802	1770	2552
7157214	503	1716	2369
7157542	83	1377	2432
7157870	-436	1938	2780
7158198	-1078	1555	2958
7158526	-1744	988	3095
7158854	-2156	1252	3046
7159182	-2230	1039	3008
7159510	-2105	767	2902
7159838	-1901	377	2584
7160166	-1797	-355	2276
7160494	-2203	-752	2198
7160822	-2810	-774	2060
7161150	-3504	-728	1867
7161478	-3946	-828	1758
7161806	-4218	-714	1578
7162134	-4401	-777	1507
7162462	-4541	-1183	1444
7162790	-4607	-1209	1363
7163118	-4588	-1326	1298
7163446	-4632	-1381	1277
7163774	-4559	-1695	1118
7164102	-4652	-1717	1005
7164430	-4700	-1642	834
7164758	-4625	-1784	647
7165086	-4552	-1692	562
7165414	-4519	-1695	414
7165742	-4857	-2064	211
7166070	-4972	-1784	335
7166398	-5349	-2072	334
7166726	-5779	-2574	137
7167054	-6225	-2795	103
7167382	-6560	-3106	41
7167710	-7114	-3334	54
7168038	-7627	-3560	121
7168366	-8352	-3997	150
7168694	-8970	-4229	235
7169022	-9438	-4475	193
7169350	-9544	-4753	88
7169678	-9617	-4865	49
7170006	-9759	-5048	231
7170334	-10898	-5565	597
7170662	-12930	-6193	808
7170990	-14566	-6579	841
7171318	-15664	-6607	585
7171646	-16246	-6627	113
7171974	-16365	-7486	-372
7172302	-16900	-8366	-776
7172630	-17927	-9249	-987
7172958	-18945	-10185	-1174
7173286	-19974	-10714	-1490
7173614	-20809	-10711	-1824
7173942	-21506	-10898	-2199
7174270	-22110	-11018	-2599
7174598	-22451	-11026	-2988
7174926	-22564	-11192	-3337
7175254	-22328	-11408	-3612
7175582	-21916	-12029	-3690
7175910	-21196	-12625	-3745
7176238	-20434	-12969	-3680
7176566	-19767	-13259	-3533
7176894	-19398	-13391	-3417
7177222	-19398	-13391	-3417
7177550	-19244	-13562	-3155
7177878	-19468	-13582	-3036
7178206	-19745	-13440	-2948
7178534	-19872	-13273	-3132
7178862	-19647	-12864	-3347
7179190	-19048	-12036	-3412
7179518	-18010	-10881	-3268
7179846	-16416	-9432	-2941
7180174	-14206	-7640	-2420
7180502	-11391	-5723	-1844
7180830	-8268	-4235	-1402
7181158	-5166	-3266	-1028
7181486	-2751	-2486	-702
7181814	-965	-1875	-222
7182142	121	-1089	227
7182470	788	-462	625
7182798	950	-159	997
7183126	881	39	1097
7183454	709	77	1000
7183782	417	167	832
7184110	-102	-181	538
7184438	-810	-654	687
7184766	-1382	-775	611
7185094	-1646	-441	76
7185422	-2124	-528	-430
7185750	-2604	-528	-840
7186078	-2906	-793	-1104
7186406	-2780	-577	-893
7186734	-2983	-770	-1085
7187062	-3376	-704	-1034
7187390	-3318	-907	-1206
7187718	-4131	-748	-1307
7188046	-4232	-992	-1360
7188374	-4085	-1162	-1407
7188702	-3587	-1122	-1436
7189030	-3022	-1089	-1443
7189358	-2387	-749	-1503
7189686	-1556	-248	-1641
7190014	-430	803	-1921
7190342	443	2014	-2164
7190670	1193	2900	-2285
7190998	1715	2888	-2691
7191326	2003	2511	-2660
7191654	1937	1897	-2787
7191982	1758	1362	-2790
7192310	1436	707	-2890
7192638	1252	162	-2975
7192966	919	143	-2975
7193294	543	477	-3029
7193622	270	320	-3042
7193950	130	279	-2889
7194278	189	579	-2755
7194606	508	628	-2556
7194934	944	608	-2259
7195262	1500	864	-1902
7195590	1946	1023	-1542
7195918	2571	1233	-1047
7196246	3179	1568	-551
7196574	3911	1865	-8
7196902	4450	1964	652
7197230	4638	1834	988
7197558	4293	1781	1368
7197886	4040	1423	1934
7198214	3167	1660	2949
7198542	3310	1167	3586
7198870	3146	1724	4059
7199198	2908	2937	4569
7199526	2907	1399	4456
7199854	3639	1421	4257
7200182	3761	2496	3618
7200510	1818	1622	3057
7200838	1604	-1056	3801
7201166	-2860	-1115	-203
7201494	-1034	-353	-907
7201822	-2252	4288	470
7202150	-2675	6227	907
7202478	-1591	5516	1497
7202806	1354	4070	847
7203134	4155	5313	900
7203462	3375	2140	1472
7203790	1109	684	2166
7204118	-1219	1728	2132
7204446	-2813	3030	1914
7204774	-3022	3197	1779
7205102	-2545	2717	1274
7205430	-2157	2335	1005
7205758	-1822	1988	857
7206086	-1664	1843	1208
7206414	-1398	1424	1482
7206742	-1070	1081	1528
7207070	-905	905	1559
7207398	-1036	741	1446
7207726	-1097	900	1154
7208054	-1009	1129	1116
7208382	-1100	1056	1115
7208710	-1096	1054	1064
7209038	-1013	1276	933
7209366	-1087	1451	919
7209694	-1018	747	1058
7210022	-1045	369	1153
7210350	-1128	390	1146
7210678	-1322	110	1175
7211006	-1513	-21	1169
7211334	-1663	-13	1125
7211662	-1888	-1	1132
7211990	-1962	131	1142
7212318	-2038	448	1078
7212646	-1975	707	943
7212974	-1933	1021	817
7213302	-1884	1299	800
7213630	-1770	1471	713
7213958	-1556	1456	575
7214286	-1435	1296	397
7214614	-1532	1030	294
7214942	-1875	694	208
7215270	-2279	290	199
7215598	-2602	-120	76
7215926	-2902	-475	-76
7216254	-3178	-909	-249
7216582	-3298	-1200	-463
7216910	-3357	-1472	-681
7217238	-3539	-1808	-890
7217566	-3874	-2267	-1273
7217894	-4380	-2890	-1815
7218222	-4882	-3193	-2204
7218550	-5086	-3276	-2858
7218878	-5252	-3869	-2508
7219206	-5372	-3367	-2964
7219534	-5160	-3051	-3240
7219862	-4625	-3261	-3632
7220190	-4639	-2982	-4030
7220518	-5072	-3243	-4791
7220846	-5704	-3310	-5169
7221174	-6721	-3785	-5577
7221502	-7534	-4495	-5774
7221830	-8044	-4569	-5792
7222158	-8505	-4721	-5757
7222486	-9100	-4329	-5690
7222814	-9996	-3906	-5001
7223142	-9552	-3810	-3776
7223470	-9438	-3918	-2943
7223798	-12091	-4466	-1377
7224126	-11002	-5049	898
7224454	-9456	-3533	3482
7224782	-7496	-1696	5445
7225110	-6108	-982	6873
7225438	-4884	-1084	7931
7225766	-4316	-1410	8838
7226094	-3573	-2379	9291
7226422	-3189	-2579	9751
7226750	-2728	-3743	10000
7227078	-2585	-4543	10289
7227406	-2872	-4880	10662
7227734	-3366	-5582	10671
7228062	-4012	-6077	10547
7228390	-4449	-6489	9839
7228718	-5207	-6640	9954
7229046	-6067	-6429	10436
7229374	-7013	-6579	10602
7229702	-7987	-6562	10626
7230030	-8498	-6936	10575
7230358	-8959	-7239	10322
7230686	-8873	-7725	9819
7231014	-8570	-8059	9120
7231342	-8175	-8249	8091
7231670	-7869	-8730	7178
7231998	-7741	-9278	6582
7232326	-7609	-9872	5932
7232654	-7966	-10270	5348
7232982	-8337	-10964	5247
7233310	-8925	-11173	4449
7233638	-8940	-10401	3527
7233966	-9252	-9388	2980
7234294	-9305	-8235	1554
7234622	-9370	-6956	1086
7234950	-9000	-6198	33
7235278	-8925	-5481	-944
7235606	-8571	-4955	-1748
7235934	-8257	-4277	-2397
7236262	-7722	-3652	-2607
7236590	-7228	-2948	-2926
7236918	-6558	-2045	-3240
7237246	-5930	-1353	-3342
7237574	-5262	-87	-3452
7237902	-4326	1406	-3786
7238230	-2944	2310	-3726
7238558	-1508	2860	-3169
7238886	-592	2734	-2784
7239214	-460	2865	-2538
7239542	-744	3319	-2205
7239870	-849	3917	-2160
7240198	-728	4583	-2122
7240526	-672	5023	-1992
7240854	-725	4866	-1863
7241182	-1015	4598	-2433
7241510	-1489	4354	-2506
7241838	-1794	3559	-2576
7242166	-2005	2762	-2341
7242494	-1973	2218	-2110
7242822	-1821	1763	-1819
7243150	-1810	1633	-1023
7243478	-1633	915	-142
7243806	-1392	925	511
7244134	-1641	1050	990
7244462	-1482	1276	1513
7244790	-797	1245	404
7245118	-349	777	-1586
7245446	-805	1722	-1933
7245774	-912	2728	-1697
7246102	-544	2606	-1324
7246430	-227	1992	-1017
7246758	-190	1729	-799
7247086	-241	1349	-840
7247414	-466	800	-943
7247742	-878	684	-1044
7248070	-1108	919	-1162
7248398	-1068	1017	-1185
7248726	-851	965	-1129
7249054	-583	1160	-1142
7249382	-324	1567	-1047
7249710	-36	1623	-929
7250038	187	1539	-824
7250366	340	1387	-790
7250694	417	1269	-765
7251022	389	1182	-615
7251350	277	1214	-339
7251678	252	1233	-141
7252006	229	1042	-26
7252334	126	692	40
7252662	93	269	-20
7252990	-35	77	-25
7253318	-158	-236	27
7253646	-122	-580	80
7253974	-33	-758	114
7254302	74	-818	210
7254630	277	-1119	299
7254958	296	-1255	360
7255286	267	-1266	501
7255614	354	-1521	542
7255942	455	-1557	561
7256270	509	-1499	657
7256598	698	-1731	688
7256926	809	-1931	663
7257254	816	-2033	692
7257582	837	-2226	801
7257910	807	-2359	884
7258238	753	-2465	991
7258566	815	-2612	1022
7258894	820	-2631	1067
7259222	882	-2669	1165
7259550	1013	-2849	1280
7259878	1135	-2995	1399
7260206	1183	-3024	1568
7260534	1355	-3138	1731
7260862	1449	-3066	1916
7261190	1745	-3188	2190
7261518	1994	-3457	2366
7261846	2146	-3554	2550
7262174	2372	-3616	2752
7262502	2594	-3558	2979
7262830	2862	-3382	3334
7263158	3292	-3320	3808
7263486	3818	-3208	4173
7263814	4529	-2893	4701
7264142	5534	-2581	5131
7264470	6829	-1838	4895
7264798	8220	-1448	5731
7265126	9777	-1956	6248
7265454	9986	-3800	7041
7265782	9995	-5504	6629
7266110	8740	-6671	6889
7266438	7331	-6581	5517
7266766	6209	-3243	3147
7267094	5493	925	-511
7267422	4669	4056	-4145
7267750	3921	5337	-6788
7268078	3253	6431	-9087
7268406	2703	6837	-10430
7268734	2504	6667	-11323
7269062	2478	6386	-11832
7269390	2741	6338	-12055
7269718	2793	6879	-12416
7270046	3306	6714	-12244
7270374	4269	7020	-11769
7270702	5347	7628	-11541
7271030	6468	7633	-10917
7271358	7473	7450	-9915
7271686	7885	6706	-9847
7272014	8052	7136	-9993
7272342	7648	6793	-10152
7272670	7489	5897	-10339
7272998	7416	6180	-10290
7273326	6949	6753	-9673
7273654	6894	6621	-9128
7273982	6740	6816	-8576
7274310	6910	7574	-8048
7274638	7279	8073	-7261
7274966	7764	8531	-6232
7275294	8376	9051	-5361
7275622	9062	9424	-4700
7275950	10006	9577	-3891
7276278	11042	9850	-2853
7276606	11956	9960	-2055
7276934	12715	10145	-1346
7277262	13304	10172	-658
7277590	13774	10011	91
7277918	14052	10060	714
7278246	14373	9960	1270
7278574	14387	10115	1815
7278902	14510	10279	2209
7279230	14401	10296	2890
7279558	14123	10007	3083
7279886	13559	10005	3363
7280214	12621	10021	3653
7280542	11673	9746	3904
7280870	10474	9257	4403
7281198	9695	8671	4542
7281526	9143	8284	4211
7281854	8617	7955	3775
7282182	8092	7793	3055
7282510	6394	5948	2240
7282838	2996	1160	1017
7283166	-70	-1927	-397
7283494	-1080	-1261	-3607
7283822	-3604	1210	-2490
7284150	-6670	3034	-697
7284478	-6138	4263	1115
7284806	-4555	5394	2558
7285134	-3305	5087	3141
7285462	-2721	3843	1910
7285790	-1224	2001	-410
7286118	87	176	-1322
7286446	1464	-958	-1626
7286774	1911	566	-517
7287102	1279	883	623
7287430	-5	1290	1184
7287758	-630	2265	1419
7288086	-330	2283	1231
7288414	740	2002	746
7288742	1388	1364	268
7289070	1757	632	74
7289398	1782	-185	223
7289726	1719	-581	301
7290054	1442	-619	263
7290382	1393	-256	14
7290710	1515	-12	-356
7291038	1737	-132	-753
7291366	2055	328	-1052
7291694	2458	659	-1275
7292022	2570	796	-1403
7292350	2585	1012	-1510
7292678	2560	1212	-1584
7293006	2491	1293	-1666
7293334	2347	1326	-1781
7293662	2396	1324	-2009
7293990	2560	1394	-2375
7294318	3044	1643	-2263
7294646	3506	1690	-2309
7294974	3907	2003	-2367
7295302	4144	2536	-2402
7295630	4127	2810	-2441
7295958	3995	2895	-2454
7296286	4008	2687	-2382
7296614	4264	2114	-2544
7296942	4572	1376	-2714
7297270	5033	1150	-2845
7297598	5577	939	-2922
7297926	6031	1171	-2964
7298254	6521	1827	-2944
7298582	7227	2363	-2847
7298910	7796	2621	-2765
7299238	8451	2855	-2879
7299566	8930	2831	-3093
7299894	9477	2703	-3285
7300222	9980	2554	-3384
7300550	10115	2492	-3520
7300878	10158	2663	-3758
7301206	10304	2811	-4033
7301534	10407	2688	-4066
7301862	10528	2449	-3967
7302190	10468	2280	-3748
7302518	10208	1948	-3558
7302846	10086	1651	-3466
7303174	9918	1393	-3234
7303502	9344	1009	-3066
7303830	8606	660	-2893
7304158	7872	565	-2971
7304486	7095	433	-2891
7304814	6299	349	-2671
7305142	5565	219	-2286
7305470	5050	277	-1949
7305798	4893	564	-1922
7306126	4743	598	-1924
7306454	4952	717	-1948
7306782	4921	678	-1899
7307110	4527	330	-1830
7307438	3642	-123	-1554
7307766	2431	-570	-1389
7308094	1109	-943	-1219
7308422	-172	-1137	-1044
7308750	-1023	-1438	-923
7309078	-1585	-1602	-857
7309406	-2111	-1798	-582
7309734	-2461	-1962	-433
7310062	-2961	-2216	-283
7310390	-3331	-2180	-254
7310718	-3573	-2340	-462
7311046	-3513	-2269	-562
7311374	-3187	-1837	-615
7311702	-2716	-1561	-529
7312030	-2042	-1303	-500
7312358	-1629	-1107	-331
7312686	-1255	-724	-68
7313014	-743	-534	92
7313342	-645	-161	70
7313670	-749	9	167
7313998	-961	181	356
7314326	-1068	302	614
7314654	-849	492	749
7314982	-326	741	790
7315310	332	1130	759
7315638	426	1750	756
7315966	369	2521	663
7316294	338	3312	650
7316622	66	2765	772
7316950	-231	2119	909
7317278	-498	1883	1009
7317606	-924	415	947
7317934	-1248	14	862
7318262	-1343	-111	823
7318590	-1405	-166	698
7318918	-1132	151	513
7319246	-972	242	449
7319574	-578	261	488
7319902	-409	568	295
7320230	-274	1045	194
7320558	-407	1358	98
7320886	-524	1556	-15
7321214	-755	1562	-129
7321542	-873	1403	-293
7321870	-819	1359	-406
7322198	-720	1294	-447
7322526	-489	1202	-555
7322854	-180	1033	-725
7323182	85	884	-921
7323510	196	618	-1064
7323838	45	203	-1359
7324166	-160	-10	-1597
7324494	-145	-123	-1745
7324822	-338	-271	-1946
7325150	-543	-502	-2336
7325478	-652	-557	-2732
7325806	-635	-506	-3008
7326134	-680	-613	-3209
7326462	-831	-700	-3442
7326790	-913	-751	-3661
7327118	-803	-807	-3890
7327446	-698	-772	-4140
7327774	-697	-829	-4429
7328102	-1085	-974	-4704
7328430	-2063	-1135	-5015
7328758	-3655	-1160	-5020
7329086	-4719	-1186	-5080
7329414	-5089	-1052	-5235
7329742	-5620	-746	-5165
7330070	-6322	-1602	-4988
7330398	-7378	-2574	-4618
7330726	-8626	-1682	-4289
7331054	-8598	-1741	-3965
7331382	-8890	-1503	-3780
7331710	-10293	-934	-3302
7332038	-11085	-367	-2198
7332366	-9681	476	-1134
7332694	-7546	858	-803
7333022	-6102	1632	203
7333350	-5352	2303	1461
7333678	-3877	2567	2483
7334006	-2967	2501	3485
7334334	-2152	1665	4367
7334662	-1075	1046	5698
7334990	-175	440	6848
7335318	745	-14	7967
7335646	1238	-883	8648
7335974	1395	-1531	9486
7336302	1330	-1926	10065
7336630	1338	-1971	10176
7336958	1177	-1958	9966
7337286	807	-1678	9454
7337614	245	-1805	9025
7337942	-872	-1905	9566
7338270	-2142	-2256	10019
7338598	-3401	-2379	10324
7338926	-4376	-3064	10668
7339254	-4909	-3670	10973
7339582	-5017	-4183	11260
7339910	-4890	-4337	11509
7340238	-4557	-4539	11894
7340566	-4159	-4577	12170
7340894	-3454	-4072	12373
7341222	-2664	-3715	12509
7341550	-1857	-3518	12537
7341878	-1002	-3386	12385
7342206	-413	-3223	12092
7342534	72	-3500	11923
7342862	505	-4159	11616
7343190	923	-4179	11017
7343518	1490	-4012	10275
7343846	1990	-4264	9682
7344174	2413	-4367	8603
7344502	2820	-3680	8076
7344830	3244	-2600	8236
7345158	3232	-2183	7702
7345486	2976	-2441	6937
7345814	2538	-2536	6821
7346142	2032	-2514	6200
7346470	1838	-1939	5673
7346798	1627	-1517	4751
7347126	1478	-1191	3798
7347454	1539	-641	3004
7347782	1958	-100	1889
7348110	1866	621	1150
7348438	1614	1312	166
7348766	1473	2686	-728
7349094	1371	3586	-1634
7349422	1242	3922	-2563
7349750	765	4095	-3500
7350078	-653	3197	-4546
7350406	-2813	1999	-5911
7350734	-4520	391	-6610
7351062	-4688	-1174	-9284
7351390	-4952	-5	-9218
7351718	-5493	1434	-8194
7352046	-5795	2102	-6623
7352374	-6366	1828	-4888
7352702	-6466	1230	-4180
7353030	-5796	1457	-3732
7353358	-5367	1120	-3424
7353686	-4530	1000	-3578
7354014	-3774	1528	-3644
7354342	-2818	968	-4116
7354670	-2194	1202	-3912
7354998	-1709	1904	-3731
7355326	-1102	1584	-3185
7355654	-677	1612	-2656
7355982	-641	2140	-2236
7356310	-751	2337	-2100
7356638	-682	1122	-2220
7356966	-495	622	-2279
7357294	-274	1393	-2518
7357622	-73	1917	-2735
7357950	31	1980	-2860
7358278	226	2158	-2993
7358606	642	2408	-3178
7358934	976	2397	-3412
7359262	1346	2448	-3559
7359590	1725	2649	-3673
7359918	2047	2728	-3755
7360246	2279	2773	-3754
7360574	2337	3017	-3740
7360902	2518	3365	-3592
7361230	2699	3564	-3431
7361558	2989	3474	-3334
7361886	3551	2629	-3332
7362214	3975	2529	-3307
7362542	4331	3113	-3328
7362870	4543	3264	-3203
7363198	4733	3369	-2997
7363526	4938	3340	-2808
7363854	5193	2922	-2698
7364182	5335	1970	-2656
7364510	5387	1384	-2781
7364838	5529	150	-2872
7365166	5446	-1305	-3063
7365494	5280	304	-3240
7365822	5244	1619	-3496
7366150	5373	2197	-3783
7366478	6197	2782	-3859
7366806	7832	3420	-3640
7367134	9599	4597	-3118
7367462	11340	5344	-2829
7367790	12547	5387	-2661
7368118	13253	5420	-2824
7368446	13548	5066	-3183
7368774	13321	4424	-3368
7369102	12380	3835	-3596
7369430	11599	3350	-3845
7369758	10938	3039	-3957
7370086	10387	2861	-4091
7370414	9791	2456	-3930
7370742	8751	1972	-3568
7371070	7752	1718	-3447
7371398	6726	1398	-2981
7371726	5441	684	-2696
7372054	4419	114	-2349
7372382	3927	-489	-2015
7372710	3454	-1208	-1830
7373038	2777	-2049	-1799
7373366	1961	-2498	-1983
7373694	897	-2864	-2248
7374022	-330	-3461	-2356
7374350	-1681	-4106	-2219
7374678	-2859	-4669	-2066
7375006	-3641	-4925	-1740
7375334	-4088	-4991	-1367
7375662	-4062	-4816	-855
7375990	-4298	-4605	-447
7376318	-4775	-4466	7
7376646	-4735	-4014	-56
7376974	-4211	-3701	-47
7377302	-3721	-3643	-70
7377630	-3556	-3539	11
7377958	-3752	-3265	134
7378286	-3660	-2711	360
7378614	-3235	-2244	345
7378942	-2205	-1729	287
7379270	-1243	-1185	185
7379598	-320	-568	26
7379926	55	-140	-11
7380254	125	13	4
7380582	247	448	-26
7380910	280	972	-4
7381238	327	704	78
7381566	93	183	133
7381894	-58	-489	142
7382222	-291	-754	223
7382550	-422	-539	189
7382878	-436	-349	198
7383206	-302	-101	122
7383534	-47	309	32
7383862	259	973	-72
7384190	527	1785	-187
7384518	626	2201	-244
7384846	553	2294	-264
7385174	289	2184	-203
7385502	132	1792	-249
7385830	-154	1466	-170
7386158	102	1340	-43
7386486	457	1450	-37
7386814	706	1390	-42
7387142	794	1251	-65
7387470	903	1081	-91
7387798	1183	1239	-209
7388126	1475	1403	-303
7388454	1633	1371	-398
7388782	1670	1283	-468
7389110	1660	1251	-448
7389438	1830	1176	-466
7389766	2097	1043	-516
7390094	2278	880	-543
7390422	2193	457	-537
7390750	2083	107	-539
7391078	1950	-96	-377
7391406	2102	-352	-251
7391734	2504	-618	-34
7392062	3163	-717	233
7392390	4003	-974	520
7392718	4860	-1001	879
7393046	5565	-800	1298
7393374	6372	-889	1503
7393702	7283	-1093	1887
7394030	8466	-2630	2496
7394358	9381	-2502	2986
7394686	10961	-432	2956
7395014	12263	896	2876
7395342	13668	1673	2873
7395670	14682	2379	2799
7395998	15307	3005	2876
7396326	15784	3187	2320
7396654	15278	3845	1572
7396982	14457	4773	441
7397310	13220	5490	-1115
7397638	11890	6306	-2823
7397966	10494	7115	-4409
7398294	9566	8269	-5930
7398622	9414	9524	-7205
7398950	9694	10910	-8043
7399278	9977	12209	-8535
7399606	10061	12761	-8599
7399934	10256	13029	-8649
7400262	10669	13449	-8329
7400590	11020	13416	-8374
7400918	10950	13103	-8452
7401246	11103	12823	-8511
7401574	10526	12846	-8500
7401902	9813	12292	-8361
7402230	9446	12227	-7821
7402558	9520	12104	-7278
7402886	9776	12587	-6966
7403214	9919	12981	-6449
7403542	10212	12940	-5774
7403870	10778	12948	-5121
7404198	11191	13362	-4442
7404526	11496	13228	-3880
7404854	12178	13230	-3414
7405182	12451	13538	-2887
7405510	13092	13773	-2414
7405838	13903	13930	-1920
7406166	14645	14201	-1416
7406494	15406	14256	-982
7406822	16135	14661	-529
7407150	16830	14987	-114
7407478	17394	15301	413
7407806	17929	15260	1031
7408134	18325	15319	1355
7408462	18626	15661	1650
7408790	18708	15818	2139
7409118	18687	15894	2412
7409446	18823	15812	2681
7409774	18640	15819	2829
7410102	18533	15680	3115
7410430	18111	15783	3374
7410758	17816	15350	3629
7411086	17102	15001	3760
7411414	16550	14970	3663
7411742	15319	14163	3945
7412070	14600	13518	4265
7412398	13954	13121	4504
7412726	13517	11992	4862
7413054	12537	10805	5353
7413382	11747	9375	5520
7413710	10385	8262	5591
7414038	6700	5237	4303
7414366	2604	609	3205
7414694	505	-2124	-2320
7415022	-23	-2010	-3840
7415350	-1858	909	-1421
7415678	-3866	2891	-228
7416006	-2811	4686	1235
7416334	-1794	4435	3480
7416662	-1830	2743	3168
7416990	-1739	2334	59
7417318	203	2569	-2693
7417646	2053	1615	-3659
7417974	2980	1369	-2221
7418302	2893	1228	-808
7418630	2122	1154	197
7418958	679	1478	463
7419286	58	2139	274
7419614	171	1983	224
7419942	296	2209	-289
7420270	1073	1743	-868
7420598	679	1286	-989
7420926	901	1173	-1090
7421254	804	1326	-945
7421582	213	1257	-1096
7421910	600	1253	-1284
7422238	866	1259	-1639
7422566	1207	1347	-1901
7422894	2480	1148	-3006
7423222	1587	1373	-1728
7423550	2093	1423	-1981
7423878	2337	1279	-2265
7424206	2326	1272	-2233
7424534	2284	1057	-1527
7424862	2191	1286	-1799
7425190	2673	586	-1989
7425518	2820	40	-1980
7425846	3038	24	-1959
7426174	3437	-236	-1921
7426502	3717	-256	-1823
7426830	3676	212	-1671
7427158	3686	201	-1804
7427486	3715	284	-2019
7427814	3960	606	-2096
7428142	4414	154	-2087
7428470	4951	318	-2191
7428798	5541	609	-2180
7429126	5846	74	-2179
7429454	6500	88	-2379
7429782	6896	508	-2649
7430110	6976	919	-2862
7430438	7184	1076	-2986
7430766	7615	1254	-3114
7431094	8062	1647	-3041
7431422	8515	2012	-2887
7431750	9075	2402	-2871
7432078	9525	2391	-3046
7432406	9948	2164	-3284
7432734	10186	1989	-3323
7433062	10172	1930	-3143
7433390	10130	1959	-2976
7433718	10115	1961	-2858
7434046	10158	2012	-2850
7434374	9795	1679	-2771
7434702	9145	1103	-2618
7435030	8472	990	-2210
7435358	7672	802	-1860
7435686	6755	465	-1591
7436014	5575	-158	-1617
7436342	4565	-481	-1634
7436670	3689	-608	-1624
7436998	2998	-940	-1602
7437326	2286	-1105	-1460
7437654	1548	-1479	-1348
7437982	884	-1677	-1134
7438310	285	-1989	-1017
7438638	4	-1833	-910
7438966	-104	-1620	-1005
7439294	-482	-1677	-697
7439622	-975	-1818	-713
7439950	-1364	-1723	-560
7440278	-1777	-1992	-512
7440606	-1967	-2056	-309
7440934	-2069	-2118	-32
7441262	-1897	-2162	-18
7441590	-1781	-1976	-81
7441918	-1831	-1708	-63
7442246	-1892	-1384	69
7442574	-1742	-930	114
7442902	-1842	-679	167
7443230	-1570	-554	281
7443558	-1191	-433	286
7443886	-874	-328	314
7444214	-734	-247	382
7444542	-673	-233	420
7444870	-593	-151	399
7445198	-572	-105	367
7445526	-440	-18	312
7445854	-95	132	346
7446182	50	189	374
7446510	13	316	396
7446838	-134	394	431
7447166	-426	253	574
7447494	-781	112	611
7447822	-1321	-103	737
7448150	-2062	-293	720
7448478	-2770	-537	795
7448806	-3383	-886	802
7449134	-4053	-1186	794
7449462	-4647	-1435	829
7449790	-5175	-1620	782
7450118	-5972	-2114	841
7450446	-6755	-2775	979
7450774	-7370	-3197	996
7451102	-8103	-3430	1129
7451430	-8861	-3907	1164
7451758	-9437	-3879	1161
7452086	-9534	-3951	1178
7452414	-9401	-3981	1318
7452742	-9203	-3856	1365
7453070	-9045	-3808	1453
7453398	-8770	-3635	1617
7453726	-8149	-3182	1758
7454054	-7304	-2619	1889
7454382	-6388	-2089	2014
7454710	-5294	-1389	2118
7455038	-4079	-647	2488
7455366	-2616	274	2934
7455694	-1052	1536	3189
7456022	594	2589	3561
7456350	2373	3694	3881
7456678	3913	4403	4041
7457006	5428	5277	4123
7457334	6768	5856	3709
7457662	6878	4873	3339
7457990	3941	2073	2795
7458318	3443	256	2210
7458646	1467	2225	2303
7458974	-666	4408	2380
7459302	-1218	4579	2105
7459630	-770	4107	2222
7459958	261	2124	1721
7460286	1247	370	1260
7460614	1063	622	824
7460942	518	1499	907
7461270	-54	1670	1354
7461598	-1037	1272	1777
7461926	-1743	1387	1782
7462254	-1943	1052	1636
7462582	-1723	596	1543
7462910	-1454	215	1311
7463238	-1258	47	1193
7463566	-1262	85	1152
7463894	-1325	24	1050
7464222	-1465	-64	919
7464550	-1714	-158	805
7464878	-2016	-392	681
7465206	-2344	-574	518
7465534	-2629	-805	344
7465862	-2908	-1197	214
7466190	-3057	-1505	67
7466518	-3223	-1837	-193
7466846	-3321	-1901	-366
7467174	-3415	-2123	-485
7467502	-3441	-2266	-662
7467830	-3481	-2409	-776
7468158	-3636	-2822	-1001
7468486	-3847	-2995	-1193
7468814	-4120	-3276	-1406
7469142	-4419	-3645	-1663
7469470	-4915	-4091	-1935
7469798	-5324	-4577	-2235
7470126	-5636	-4649	-2520
7470454	-6150	-4918	-2891
7470782	-6628	-5321	-3311
7471110	-6937	-5557	-3887
7471438	-7148	-5602	-4271
7471766	-7036	-5633	-4791
7472094	-6650	-5583	-5405
7472422	-6169	-5364	-5976
7472750	-5870	-4827	-6263
7473078	-5981	-4482	-6269
7473406	-6520	-4221	-6155
7473734	-7287	-4095	-5709
7474062	-8979	-5325	-6213
7474390	-9630	-6166	-6560
7474718	-10394	-4711	-6845
7475046	-11184	-3544	-7233
7475374	-12259	-4233	-6599
7475702	-11164	-4727	-5449
7476030	-12406	-3821	-4368
7476358	-12203	-3443	-1916
7476686	-11354	-3818	39
7477014	-9908	-3027	1958
7477342	-8897	-2104	3625
7477670	-8290	-2798	4368
7477998	-7822	-2956	5876
7478326	-7059	-3085	6780
7478654	-6447	-3505	7545
7478982	-6014	-4727	8483
7479310	-5459	-6197	9022
7479638	-5636	-6560	9373
7479966	-5224	-7612	9940
7480294	-5858	-7614	10214
7480622	-6002	-8399	10329
7480950	-5985	-9396	9486
7481278	-6928	-8536	9636
7481606	-7848	-8804	9729
7481934	-9367	-8574	10534
7482262	-11007	-8431	10890
7482590	-12165	-8552	10949
7482918	-12474	-8477	11324
7483246	-12467	-8849	11234
7483574	-12025	-9030	10380
7483902	-11823	-10035	9623
7484230	-11792	-10012	9691
7484558	-10996	-11165	8177
7484886	-10355	-11850	7601
7485214	-10013	-12336	6705
7485542	-9995	-12761	5858
7485870	-10166	-13494	5251
7486198	-10356	-13689	4276
7486526	-10844	-13024	3536
7486854	-11453	-11931	2994
7487182	-11862	-10763	2167
7487510	-12276	-9408	1241
7487838	-12352	-8033	381
7488166	-12079	-6731	-675
7488494	-11746	-5860	-1090
7488822	-10880	-5012	-1555
7489150	-9798	-3897	-2045
7489478	-8624	-3380	-2538
7489806	-7393	-2803	-2792
7490134	-6671	-1626	-2897
7490462	-6122	-691	-3232
7490790	-5607	287	-3536
7491118	-4912	1732	-3319
7491446	-3512	3314	-3310
7491774	-1597	4823	-3019
7492102	460	5960	-2664
7492430	1764	7182	-2187
7492758	2415	7402	-1676
7493086	2310	6677	-1839
7493414	1863	5654	-2180
7493742	1287	4372	-2351
7494070	753	4076	-2325
7494398	-58	4532	-1734
7494726	-742	3929	-1126
7495054	-1075	3738	-583
7495382	-924	4258	88
7495710	-557	3883	-55
7496038	-379	3311	-554
7496366	-286	3201	-1063
7496694	-238	3256	-1321
7497022	-145	2836	-1225
7497350	-110	2544	-1045
7497678	28	2270	-695
7498006	145	1903	-602
7498334	157	2152	-691
7498662	109	2116	-562
7498990	120	1970	-502
7499318	-67	2043	-496
7499646	-260	2014	-446
7499974	-386	1892	-351
7500302	-487	1677	-231
7500630	-535	1494	-187
7500958	-482	1460	-149
7501286	-439	1353	-173
7501614	-389	1215	-219
7501942	-475	1267	-338
7502270	-530	1201	-303
7502598	-499	836	-296
7502926	-468	409	-228
7503254	-457	237	-179
7503582	-342	69	-130
7503910	-253	-123	-79
7504238	-158	-572	-13
7504566	21	-1108	60
7504894	23	-1084	71
7505222	61	-1081	150
7505550	67	-1345	213
7505878	34	-1486	217
7506206	26	-1484	255
7506534	1	-1485	296
7506862	123	-1685	287
7507190	138	-1857	299
7507518	80	-1967	385
7507846	61	-2116	464
7508174	61	-2130	544
7508502	154	-2196	589
7508830	297	-2361	559
7509158	369	-2406	567
7509486	481	-2491	643
7509814	580	-2562	743
7510142	697	-2518	930
7510470	948	-2706	1084
7510798	1201	-2919	1164
7511126	1412	-3077	1249
7511454	1499	-3188	1461
7511782	1695	-3336	1710
7512110	1947	-3394	1954
7512438	2237	-3449	2130
7512766	2435	-3486	2398
7513094	2609	-3474	2701
7513422	2844	-3602	2920
7513750	3106	-3462	3228
7514078	3543	-3090	3410
7514406	4240	-2970	3863
7514734	5249	-3363	4146
7515062	5916	-2188	4308
7515390	6617	-952	4433
7515718	7442	-1201	4535
7516046	8391	-1794	5005
7516374	9139	-1221	4665
7516702	9285	-705	3833
7517030	8842	-2	2639
7517358	8133	1334	977
7517686	7118	2302	-867
7518014	6445	3300	-2681
7518342	5287	4504	-4683
7518670	3906	5920	-6525
7518998	2882	6856	-7753
7519326	2159	7395	-8658
7519654	1912	7899	-9468
7519982	1883	8193	-9953
7520310	2230	8607	-10636
7520638	2974	9204	-10750
7520966	3737	9447	-10515
7521294	4432	9140	-10208
7521622	4978	9002	-9644
7521950	5668	8259	-9390
7522278	5958	7758	-8943
7522606	6272	7589	-8501
7522934	6848	7302	-8411
7523262	6599	7418	-7587
7523590	7115	7460	-6494
7523918	7852	7849	-4979
7524246	8428	8003	-3359
7524574	9308	8327	-2202
7524902	10263	8988	-988
7525230	10861	9509	258
7525558	11452	9280	1180
7525886	11576	9285	1926
7526214	11596	8942	2482
7526542	11648	8155	3018
7526870	11417	7980	3410
7527198	11108	7433	3589
7527526	10438	7208	3499
7527854	9523	7168	3155
7528182	8708	6917	2823
7528510	7768	5980	2132
7528838	6841	5559	1525
7529166	5583	4514	723
7529494	3872	3153	265
7529822	1616	1481	-187
7530150	-922	-1084	-921
7530478	-3453	-2599	-1606
7530806	-5045	-2783	-1704
7531134	-5156	-1889	-1115
7531462	-5489	563	-46
7531790	-5351	2363	1039
7532118	-4947	3096	1106
7532446	-3828	2881	310
7532774	-1592	1878	-468
7533102	631	1336	-1590
7533430	2341	1189	-1678
7533758	2817	641	-1010
7534086	2315	1420	-479
7534414	1713	2299	-61
7534742	786	2338	89
7535070	125	2537	209
7535398	-65	2180	-31
7535726	-198	1816	-471
7536054	-456	1842	-760
7536382	-466	1360	-929
7536710	-380	1092	-1117
7537038	-656	1509	-1270
7537366	-347	1683	-1433
7537694	-369	1809	-1618
7538022	-31	1633	-1417
7538350	-92	1761	-1718
7538678	139	1735	-2032
7539006	321	1455	-2194
7539334	399	1522	-2258
7539662	599	1630	-2305
7539990	525	1360	-2393
7540318	474	1030	-2398
7540646	487	930	-2377
7540974	520	1013	-2341
7541302	651	973	-2210
7541630	1136	-1133	-2082
7541958	1166	-3414	-1953
7542286	1827	-2101	-1957
7542614	2043	-2009	-2127
7542942	3140	-1054	-2129
7543270	4122	384	-2168
7543598	5059	1061	-2261
7543926	5893	1358	-2334
7544254	6560	1415	-2480
7544582	7050	1640	-2565
7544910	7651	1863	-2565
7545238	8205	2086	-2577
7545566	8573	2749	-2814
7545894	8831	3469	-3121
7546222	9366	4077	-3440
7546550	10330	4468	-3770
7546878	11010	4771	-3643
7547206	11902	5184	-3307
7547534	12622	5609	-3254
7547862	13262	5491	-3401
7548190	13677	5514	-3366
7548518	13519	4962	-3324
7548846	12913	4156	-3157
7549174	11749	3629	-2895
7549502	10164	2880	-2792
7549830	8807	2257	-2639
7550158	7550	2008	-2359
7550486	7065	1912	-2042
7550814	6914	1962	-1436
7551142	6402	1405	-1424
7551470	5171	475	-1468
7551798	3833	-195	-1599
7552126	2778	-671	-1572
7552454	1998	-763	-1274
7552782	1998	-763	-1274
7553110	1434	-892	-1055
7553438	1031	-1216	-1025
7553766	1204	-1361	-1051
7554094	1327	-1363	-731
7554422	969	-1672	-506
7554750	734	-1614	-409
7555078	213	-1680	-289
7555406	-313	-1697	-157
7555734	-574	-1530	-69
7556062	-842	-1449	139
7556390	-1173	-1615	193
7556718	-1154	-1263	253
7557046	-1261	-1007	305
7557374	-1297	-802	131
7557702	-1206	-555	160
7558030	-1342	-120	66
7558358	-1577	208	231
7558686	-1426	710	309
7559014	-945	1434	179
7559342	-405	1706	155
7559670	-68	1870	149
7559998	-85	1805	104
7560326	-378	1668	146
7560654	-603	1508	123
7560982	-722	1394	45
7561310	-846	1189	64
7561638	-744	970	81
7561966	-657	1085	-106
7562294	-539	1000	-313
7562622	-482	765	-458
7562950	-469	568	-694
7563278	-602	289	-854
7563606	-1073	-68	-983
7563934	-1512	-517	-1317
7564262	-2177	-711	-1443
7564590	-2593	-1107	-1861
7564918	-2868	-1244	-2295
7565246	-3043	-1412	-2619
7565574	-3027	-1570	-2894
7565902	-2867	-1571	-3211
7566230	-2552	-1455	-3510
7566558	-2099	-1491	-4003
7566886	-1863	-1324	-4357
7567214	-1789	-1019	-4451
7567542	-1720	-986	-4797
7567870	-1121	-684	-5144
7568198	-783	-606	-5901
7568526	-1665	-443	-6570
7568854	-3540	-279	-6478
7569182	-5990	-1051	-6289
7569510	-8461	-2087	-5831
7569838	-10905	-1560	-5255
7570166	-11538	-466	-4681
7570494	-10126	855	-4116
7570822	-11482	1419	-3488
7571150	-11237	1082	-2238
7571478	-9403	1678	-1357
7571806	-7169	2015	-987
7572134	-5694	1734	296
7572462	-5082	1911	1735
7572790	-4445	2651	3437
7573118	-4107	2618	5320
7573446	-3425	1588	6598
7573774	-2622	972	7856
7574102	-1860	490	9040
7574430	-889	-406	9942
7574758	-419	-1085	11030
7575086	-427	-1838	11760
7575414	-500	-2495	12396
7575742	-433	-3019	12419
7576070	-676	-2882	12287
7576398	-1081	-2580	12077
7576726	-1559	-2427	11993
7577054	-2849	-2801	12678
7577382	-4465	-2982	13838
7577710	-5801	-3165	14419
7578038	-6433	-3322	14504
7578366	-6533	-3545	14367
7578694	-6456	-3982	14427
7579022	-5933	-4205	14256
7579350	-5176	-4690	14202
7579678	-4017	-5586	13842
7580006	-2892	-6419	13478
7580334	-1560	-6495	13165
7580662	-55	-5728	13105
7580990	698	-5118	12067
7581318	1134	-5123	11359
7581646	1432	-5119	10451
7581974	1213	-5239	9722
7582302	1232	-5337	9319
7582630	1316	-4856	8909
7582958	962	-3817	8566
7583286	599	-3801	7393
7583614	634	-2824	6203
7583942	548	-1794	5721
7584270	505	-1273	5072
7584598	812	523	4092
7584926	1259	2239	2831
7585254	2209	3527	1480
7585582	3656	4846	135
7585910	4939	5880	-1239
7586238	5791	6812	-2700
7586566	6246	6227	-4146
7586894	4980	5639	-5144
7587222	2977	3991	-6196
7587550	-200	1790	-7246
7587878	-4044	-958	-9050
7588206	-6405	-1814	-10635
7588534	-6296	-1691	-11765
7588862	-7545	64	-8271
7589190	-7933	1485	-8068
7589518	-8531	3525	-6964
7589846	-7947	3198	-5193
7590174	-7532	2745	-4343
7590502	-6285	2429	-4523
7590830	-4396	2452	-5328
7591158	-2811	1790	-5981
7591486	-1472	131	-5570
7591814	-1218	1129	-4908
7592142	-1329	2169	-4189
7592470	-1091	1938	-3731
7592798	-798	1370	-3603
7593126	-383	242	-3604
7593454	65	-366	-3367
7593782	550	794	-3219
7594110	633	1951	-3250
7594438	840	2058	-3301
7594766	1140	2577	-3278
7595094	1832	2905	-3370
7595422	1837	2656	-3663
7595750	2320	2941	-4143
7596078	2617	3353	-4532
7596406	2792	3467	-4824
7596734	2731	3554	-4950
7597062	2287	3586	-5042
7597390	1986	2704	-5126
7597718	2616	1520	-4844
7598046	3254	2262	-4451
7598374	3857	2140	-4069
7598702	4057	1372	-3872
7599030	4819	2483	-4385
7599358	5925	2929	-4787
7599686	6954	3420	-4950
7600014	7917	4396	-5084
7600342	8594	4657	-5162
7600670	9095	5063	-5130
7600998	9528	5365	-5078
7601326	9880	5698	-5032
7601654	10318	6299	-4832
7601982	10859	6430	-4533
7602310	11591	6852	-4290
7602638	12141	7485	-4096
7602966	12578	7611	-3814
7603294	13045	7952	-3481
7603622	13523	8208	-3182
7603950	13970	8349	-2738
7604278	14544	8865	-2079
7604606	15132	9178	-1274
7604934	15792	9547	-450
7605262	16807	10556	178
7605590	17778	11778	758
7605918	19103	13311	1696
7606246	20941	13892	2344
7606574	22292	14444	3164
7606902	23321	13949	4004
7607230	24213	13423	5100
7607558	25145	12829	5920
7607886	25364	12982	6185
7608214	25785	13527	6296
7608542	25734	13667	7038
7608870	25493	13616	7740
7609198	25113	13522	7361
7609526	24438	13907	7026
7609854	23814	13567	6481
7610182	23045	13178	5842
7610510	22043	12105	5135
7610838	17942	5238	6405
7611166	17571	5378	3495
7611494	14779	10795	430
7611822	9772	8017	1549
7612150	8055	7947	2121
7612478	6011	7432	1551
7612806	7136	6136	-86
7613134	6603	5077	-1534
7613462	5816	3776	-2210
7613790	4794	1453	-2431
7614118	4013	505	-2412
7614446	2924	-335	-2102
7614774	1242	-855	-854
7615102	-539	-922	495
7615430	-232	-590	1187
7615758	1216	11	1522
7616086	1839	376	1681
7616414	1308	219	1550
7616742	317	-296	1084
7617070	-752	-867	627
7617398	-1881	-1175	310
7617726	-2962	-1139	283
7618054	-3305	-1074	313
7618382	-2798	-514	90
7618710	-1494	-125	-96
7619038	-302	-24	-196
7619366	519	-86	-290
7619694	743	-175	-307
7620022	539	-147	-290
7620350	21	-129	-155
7620678	-504	-9	-15
7621006	-850	97	-25
7621334	-902	111	-63
7621662	-496	-196	71
7621990	-287	-235	53
7622318	-980	22	48
7622646	-335	-300	30
7622974	-476	-145	-53
7623302	-427	-89	-116
7623630	-508	20	-139
7623958	-486	-5	-210
7624286	-476	-49	-205
7624614	-461	-108	-206
7624942	-484	-54	-184
7625270	-482	-25	-166
7625598	-543	-33	-134
7625926	-648	39	-124
7626254	-635	80	-104
7626582	-694	292	-80
7626910	-706	547	-85
7627238	-711	739	-69
7627566	-713	923	-60
7627894	-832	1091	-64
7628222	-874	1110	-82
7628550	-528	948	146
7628878	-409	703	70
7629206	-479	514	109
7629534	-413	317	145
7629862	-483	223	182
7630190	-452	288	238
7630518	-444	381	302
7630846	-460	527	381
7631174	-336	509	507
7631502	-244	425	615
7631830	-224	337	759
7632158	-248	162	754
7632486	-328	89	793
7632814	-372	-133	906
7633142	-490	-304	1020
7633470	-520	-331	1077
7633798	-587	-881	1195
7634126	-526	-1804	1333
7634454	-405	-1228	1344
7634782	-328	-1193	1346
7635110	-276	-1069	1441
7635438	-164	-1023	1521
7635766	-130	-1002	1525
7636094	-62	-974	1544
7636422	-8	-769	1595
7636750	54	-600	1650
7637078	109	-590	1760
7637406	152	-608	1815
7637734	202	-766	1923
7638062	234	-921	2003
7638390	265	-1113	2048
7638718	214	-1375	2099
7639046	174	-1359	2162
7639374	70	-1478	2208
7639702	-13	-1701	2253
7640030	-101	-1710	2264
7640358	-85	-1949	2307
7640686	-6	-2123	2342
7641014	142	-1824	2441
7641342	311	-1649	2488
7641670	582	-1478	2504
7641998	777	-1281	2532
7642326	928	-1319	2703
7642654	1207	-1693	2840
7642982	1668	-2473	3236
7643310	2302	-2352	3524
7643638	2959	-1877	3786
7643966	3882	-1736	4127
7644294	4736	-1370	4351
7644622	5599	-1066	4592
7644950	6674	-760	4764
7645278	7633	-258	4962
7645606	8128	-140	5324
7645934	9423	1137	5045
7646262	10982	1563	4812
7646590	12320	1390	4449
7646918	13375	318	4001
7647246	14334	-3741	2680
7647574	14908	-408	2857
7647902	15175	2383	2930
7648230	14849	2531	2597
7648558	13927	1873	2060
7648886	12821	1361	971
7649214	11427	2024	-385
7649542	9155	1098	-2610
7649870	6840	-5	-4936
7650198	4646	510	-6625
7650526	3078	915	-8429
7650854	1928	1473	-9718
7651182	568	1375	-10304
7651510	-215	951	-10770
7651838	72	1567	-11369
7652166	621	2217	-11683
7652494	1465	2486	-11407
7652822	2853	2767	-10890
7653150	4393	3566	-10221
7653478	5915	3949	-9157
7653806	6898	2851	-8912
7654134	7866	1999	-8155
7654462	8059	1559	-7909
7654790	7720	989	-7596
7655118	6788	1424	-7144
7655446	5555	1370	-6915
7655774	4352	1070	-6611
7656102	3424	1470	-6206
7656430	2294	1243	-5592
7656758	1607	852	-4942
7657086	1216	1057	-4084
7657414	1180	894	-2829
7657742	1670	741	-1571
7658070	2005	417	-259
7658398	2545	-212	1298
7658726	3063	-340	2489
7659054	3548	1637	2516
7659382	3633	2872	2356
7659710	3948	3770	2116
7660038	4293	4343	2286
7660366	4438	4538	2499
7660694	4062	4319	2683
7661022	3473	4228	2893
7661350	2735	3632	2692
7661678	1988	3330	1970
7662006	1407	2232	1113
7662334	1017	1985	334
7662662	810	2219	-337
7662990	325	1851	-262
7663318	40	1963	-264
7663646	72	1723	-83
7663974	226	1472	20
7664302	606	1496	86
7664630	987	1554	-55
7664958	988	1090	-280
7665286	525	590	-518
7665614	-102	-215	-1012
7665942	10	-87	-1351
7666270	428	1200	-1290
7666598	53	2340	-474
7666926	-442	2465	204
7667254	-646	1968	737
7667582	-513	1357	656
7667910	-327	924	230
7668238	-424	548	-99
7668566	-788	277	-309
7668894	-1180	47	-362
7669222	-1347	-147	-417
7669550	-1297	-347	-403
7669878	-1168	-597	-321
7670206	-1043	-651	-173
7670534	-897	-362	-72
7670862	-657	-65	-18
7671190	-478	6	5
7671518	-371	139	-2
7671846	-340	223	26
7672174	-335	335	84
7672502	-336	431	102
7672830	-262	461	73
7673158	-235	227	71
7673486	-158	135	70
7673814	-147	155	66
7674142	-169	188	25
7674470	-191	132	18
7674798	-192	136	69
7675126	-187	168	158
7675454	-184	126	195
7675782	-215	89	173
7676110	-200	127	169
7676438	-166	207	100
7676766	-80	298	37
7677094	-87	251	-10
7677422	-174	85	-43
7677750	-320	45	-46
7678078	-483	-33	-74
7678406	-584	-203	-59
7678734	-695	-210	-84
7679062	-778	-178	-81
7679390	-843	-54	-81
7679718	-892	-20	-42
7680046	-970	63	29
7680374	-1058	226	62
7680702	-1019	374	-64
7681030	-913	409	-293
7681358	-789	510	-512
7681686	-670	693	-644
7682014	-566	983	-703
7682342	-446	1571	-731
7682670	-290	2396	-761
7682998	22	3277	-717
7683326	251	3629	-614
7683654	494	2678	-428
7683982	957	2386	-188
7684310	1530	3000	-18
7684638	2148	3186	55
7684966	2680	3687	140
7685294	3066	5019	344
7685622	3593	5647	978
7685950	3731	6074	1299
7686278	3819	6210	1198
7686606	3776	5956	1103
7686934	3334	5788	1063
7687262	2562	5389	1093
7687590	1623	4846	1045
7687918	840	4282	906
7688246	156	3459	619
7688574	-383	2878	195
7688902	-1116	1851	-418
7689230	-1961	773	-1055
7689558	-2831	-33	-1712
7689886	-3434	-133	-2036
7690214	-3901	-88	-2154
7690542	-4200	-236	-2168
7690870	-3961	185	-2040
7691198	-3456	440	-1824
7691526	-2977	675	-1358
7691854	-2678	898	-920
7692182	-2353	778	-937
7692510	-1987	700	-1128
7692838	-1810	630	-1173
7693166	-1714	557	-1054
7693494	-1762	816	-1122
7693822	-1995	981	-973
7694150	-2070	1255	-762
7694478	-2045	1306	-478
7694806	-1927	1371	-286
7695134	-1624	1638	-308
7695462	-1265	1840	-348
7695790	-872	2093	-373
7696118	-524	2337	-133
7696446	-242	2226	71
7696774	65	2212	220
7697102	388	2362	338
7697430	646	2382	375
7697758	920	2547	433
7698086	1121	2894	440
7698414	1391	3045	489
7698742	1684	3263	517
7699070	2041	3515	480
7699398	2427	3696	481
7699726	2909	3808	409
7700054	3405	4008	290
7700382	3939	4250	185
7700710	4428	4271	151
7701038	5062	3687	214
7701366	5717	4206	251
7701694	6250	4456	255
7702022	6796	4620	282
7702350	7323	5070	288
7702678	7761	5435	293
7703006	8117	5486	244
7703334	8223	5300	94
7703662	8647	5640	-140
7703990	9007	5720	-382
7704318	9404	4614	-519
7704646	9776	4784	-642
7704974	10129	5688	-623
7705302	10336	6004	-563
7705630	10554	6187	-407
7705958	10885	6766	-238
7706286	11370	6995	6
7706614	11866	7123	153
7706942	12381	7316	65
7707270	12817	7599	72
7707598	13282	7797	98
7707926	13718	7648	146
7708254	14169	7695	326
7708582	14623	8095	378
7708910	15144	8206	494
7709238	15631	7874	567
7709566	16075	7632	582
7709894	16422	7924	538
7710222	16682	8069	584
7710550	16948	7826	763
7710878	17347	8098	908
7711206	17641	8343	1139
7711534	17989	7781	1523
7711862	18266	7406	2001
7712190	18430	7620	2424
7712518	18492	7636	2652
7712846	18421	7667	2733
7713174	18475	7676	2894
7713502	18627	7913	3155
7713830	18773	8145	3621
7714158	19051	8369	4137
7714486	19215	8467	4715
7714814	19398	8403	5327
7715142	19644	8597	5915
7715470	19796	8626	6370
7715798	19984	8441	6419
7716126	19998	7988	6402
7716454	19751	7253	6437
7716782	19399	6883	5940
7717110	18531	7186	5354
7717438	17360	6669	4952
7717766	15330	4247	4149
7718094	13086	1681	1735
7718422	12440	5606	742
7718750	10107	5887	1865
7719078	7087	4295	2455
7719406	6430	3181	2219
7719734	5644	2893	1426
7720062	5737	2255	424
7720390	5980	1492	-463
7720718	6097	1023	-1307
7721046	5994	1142	-1881
7721374	5417	1961	-1852
7721702	4499	2361	-1541
7722030	3426	1640	-1267
7722358	2311	224	-1103
7722686	966	-620	-810
7723014	-437	-952	3
7723342	-1687	-1219	1153
7723670	-2387	-937	2124
7723998	-2297	-955	2405
7724326	-2099	-1163	1962
7724654	-2035	-1304	1224
7724982	-1861	-1113	422
7725310	-1967	-1193	-218
7725638	-1995	-1058	-486
7725966	-2063	-852	-742
7726294	-1821	-313	-826
7726622	-1346	112	-792
7726950	-523	265	-647
7727278	57	528	-314
7727606	584	787	-618
7727934	755	854	-460
7728262	798	1062	-487
7728590	829	1175	-468
7728918	784	1285	-422
7729246	450	1319	-185
7729574	64	1597	-348
7729902	189	1187	-436
7730230	12	1305	-464
7730558	21	1039	-648
7730886	-74	939	-669
7731214	-55	737	-730
7731542	-102	1020	-694
7731870	-60	189	-679
7732198	58	396	-578
7732526	205	432	-493
7732854	326	661	-458
7733182	386	740	-376
7733510	354	739	-345
7733838	182	746	-310
7734166	-28	762	-298
7734494	-232	482	-375
7734822	-319	-29	-407
7735150	-338	82	-404
7735478	-324	95	-424
7735806	-328	199	-450
7736134	-301	81	-427
7736462	-188	-185	-383
7736790	-148	-134	-377
7737118	-123	-309	-363
7737446	-121	-262	-317
7737774	-145	-147	-288
7738102	-202	-17	-244
7738430	-218	92	-206
7738758	-216	171	-166
7739086	-265	334	-121
7739414	-244	518	-123
7739742	-200	704	-125
7740070	-174	259	-107
7740398	-121	59	-51
7740726	-48	-179	-5
7741054	-66	-152	44
7741382	-127	-251	61
7741710	-241	-747	91
7742038	-323	-922	180
7742366	-387	-674	224
7742694	-427	-477	277
7743022	-475	-304	315
7743350	-445	-183	302
7743678	-468	-339	305
7744006	-471	-339	295
7744334	-470	-329	274
7744662	-452	-288	242
7744990	-520	-337	220
7745318	-645	-320	174
7745646	-742	-354	157
7745974	-877	-451	137
7746302	-960	-506	56
7746630	-1004	-492	-55
7746958	-985	-421	-132
7747286	-1006	-355	-200
7747614	-1121	-267	-283
7747942	-1277	-224	-295
7748270	-1554	-220	-306
7748598	-1711	-144	-346
7748926	-1794	-90	-402
7749254	-1804	59	-460
7749582	-1844	186	-502
7749910	-1982	87	-502
7750238	-2111	72	-519
7750566	-2236	41	-573
7750894	-2280	101	-673
7751222	-2333	190	-797
7751550	-2451	140	-884
7751878	-2762	-21	-1010
7752206	-3159	-224	-1161
7752534	-3604	-559	-1330
7752862	-4129	-889	-1508
7753190	-4717	-1077	-1711
7753518	-5181	-1132	-1814
7753846	-5647	-1131	-1833
7754174	-6100	-1173	-1736
7754502	-6519	-1037	-1550
7754830	-6758	-839	-1365
7755158	-6938	-683	-1248
7755486	-7228	-598	-1105
7755814	-7394	-543	-960
7756142	-7476	-651	-900
7756470	-7655	-894	-864
7756798	-7998	-1285	-815
7757126	-8477	-1693	-849
7757454	-9137	-2052	-847
7757782	-9835	-2160	-852
7758110	-10202	-2468	-1025
7758438	-10526	-2770	-1169
7758766	-10826	-2902	-1353
7759094	-11024	-3219	-1460
7759422	-11264	-3575	-1485
7759750	-11427	-4161	-1444
7760078	-11418	-4847	-1415
7760406	-11167	-4738	-1380
7760734	-10804	-4602	-1245
7761062	-10379	-4569	-1042
7761390	-9906	-4273	-811
7761718	-9576	-3917	-521
7762046	-8969	-3564	-271
7762374	-8190	-2980	-128
7762702	-7363	-2332	118
7763030	-6440	-1900	408
7763358	-5762	-1485	568
7763686	-5350	-1301	686
7764014	-5022	-1278	658
7764342	-4790	-969	585
7764670	-4531	-930	509
7764998	-4031	-925	415
7765326	-3460	-689	381
7765654	-2752	-527	543
7765982	-2170	-494	763
7766310	-1866	-677	818
7766638	-1892	-767	873
7766966	-2185	-796	843
7767294	-2245	-1073	726
7767622	-2094	-1202	487
7767950	-2059	-1217	293
7768278	-1946	-1213	243
7768606	-1892	-1495	323
7768934	-2257	-2057	372
7769262	-2520	-2633	184
7769590	-2815	-2873	-108
7769918	-3102	-2925	-324
7770246	-3397	-3135	-385
7770574	-3661	-3503	-368
7770902	-3842	-3896	-434
7771230	-4113	-4438	-615
7771558	-4364	-4960	-940
7771886	-4796	-5647	-1320
7772214	-5310	-6063	-1634
7772542	-5740	-6405	-1790
7772870	-6202	-7074	-1804
7773198	-6638	-7860	-1904
7773526	-6934	-8443	-2095
7773854	-7249	-8437	-2322
7774182	-7474	-8591	-2485
7774510	-7629	-8589	-2671
7774838	-7766	-8453	-2998
7775166	-7819	-8239	-3177
7775494	-7607	-7780	-3336
7775822	-7124	-8033	-3360
7776150	-6488	-8325	-3307
7776478	-5870	-8467	-3368
7776806	-5274	-8554	-3516
7777134	-4778	-8345	-3794
7777462	-4370	-8259	-3897
7777790	-3933	-8384	-3960
7778118	-3564	-8469	-4147
7778446	-3568	-8807	-4439
7778774	-4112	-9214	-4819
7779102	-4822	-9608	-5395
7779430	-5824	-10052	-5789
7779758	-6828	-10867	-6045
7780086	-7988	-11795	-6495
7780414	-9182	-12060	-6549
7780742	-11657	-12212	-6958
7781070	-12518	-10847	-6890
7781398	-15340	-10393	-6370
7781726	-16392	-10291	-5629
7782054	-17193	-7070	-4705
7782382	-16326	-4410	-2483
7782710	-14484	-2518	-961
7783038	-12784	166	-263
7783366	-12206	1262	658
7783694	-11757	1072	1854
7784022	-11381	2118	3161
7784350	-10682	2875	4827
7784678	-10103	1712	6148
7785006	-10177	741	7267
7785334	-10755	411	7903
7785662	-11656	-952	8116
7785990	-12711	-2170	8125
7786318	-13743	-2965	8582
7786646	-14821	-4221	8942
7786974	-16207	-4912	9332
7787302	-17641	-5458	9922
7787630	-18329	-6443	10314
7787958	-18544	-7341	10706
7788286	-18357	-8061	10989
7788614	-18177	-8794	11172
7788942	-18518	-9565	11083
7789270	-18057	-9992	10832
7789598	-17269	-10562	10469
7789926	-16711	-11193	9950
7790254	-16170	-11840	9103
7790582	-15955	-11688	8416
7790910	-15684	-11639	7785
7791238	-14591	-12186	6706
7791566	-13778	-12005	5401
7791894	-13753	-11380	4037
7792222	-14018	-11654	2121
7792550	-15178	-11697	888
7792878	-15435	-11639	-723
7793206	-15717	-10874	-2014
7793534	-15249	-10369	-2714
7793862	-14724	-9667	-3008
7794190	-14205	-9415	-3090
7794518	-13786	-8612	-2461
7794846	-12975	-8824	-2173
7795174	-12065	-8674	-1521
7795502	-11328	-7364	-950
7795830	-10763	-4728	1377
7796158	-7960	-6374	119
7796486	-6298	-4543	-3371
7796814	-6007	-754	-3701
7797142	-5262	-1898	-2347
7797470	-5036	-1507	-1427
7797798	-4918	-1215	-970
7798126	-4481	-2097	-809
7798454	-4027	-2473	-1011
7798782	-3930	-1108	-1467
7799110	-3691	-333	-1643
7799438	-3218	4	-1827
7799766	-2761	689	-2156
7800094	-2118	1723	-2227
7800422	-1431	2755	-2440
7800750	-809	3786	-2682
7801078	-105	4461	-2783
7801406	150	4350	-3068
7801734	-214	4074	-2811
7802062	-754	3288	-2277
7802390	-1126	3115	-2213
7802718	-1441	2823	-2106
7803046	-1914	2159	-2163
7803374	-2166	1248	-1951
7803702	-2155	1066	-1932
7804030	-2119	709	-2057
7804358	-2127	750	-2088
7804686	-2004	691	-1996
7805014	-1906	521	-1878
7805342	-1626	995	-1922
7805670	-1165	572	-1790
7805998	-680	614	-1564
7806326	-333	1030	-1527
7806654	-276	977	-1482
7806982	118	1439	-1343
7807310	279	1661	-1350
7807638	587	1355	-1247
7807966	1031	1242	-1119
7808294	1708	1070	-1071
7808622	1562	1423	-735
7808950	1395	1144	-777
7809278	1316	998	-442
7809606	825	931	-301
7809934	282	988	-251
7810262	96	987	-300
7810590	-51	1107	-371
7810918	-3	1098	-408
7811246	-22	1063	-367
7811574	87	843	-379
7811902	235	690	-364
7812230	349	631	-318
7812558	393	478	-258
7812886	357	284	-279
7813214	218	321	-280
7813542	100	278	-247
7813870	-8	251	-221
7814198	-55	276	-103
7814526	34	290	-46
7814854	-128	342	-138
7815182	-57	281	-133
7815510	-68	235	-115
7815838	-93	134	-130
7816166	-201	89	-154
7816494	-260	20	-104
7816822	-233	25	-56
7817150	-231	53	-84
7817478	-203	73	-111
7817806	-228	94	-111
7818134	-198	94	-75
7818462	-134	111	-54
7818790	-122	21	-56
7819118	-163	-38	-37
7819446	-185	8	-7
7819774	-164	85	-4
7820102	-148	144	12
7820430	-188	208	69
7820758	-168	355	138
7821086	-147	519	191
7821414	-96	542	213
7821742	-169	634	262
7822070	-225	580	287
7822398	-158	555	286
7822726	-182	485	258
7823054	-234	353	277
7823382	-277	211	325
7823710	-302	34	331
7824038	-352	-177	365
7824366	-425	-274	407
7824694	-486	-412	475
7825022	-530	-514	553
7825350	-494	-717	671
7825678	-459	-837	726
7826006	-460	-1019	759
7826334	-448	-1127	776
7826662	-470	-1256	853
7826990	-467	-1302	938
7827318	-427	-1353	1011
7827646	-392	-1544	1109
7827974	-320	-1687	1188
7828302	-280	-1817	1235
7828630	-214	-1967	1280
7828958	-154	-2076	1336
7829286	-94	-2123	1403
7829614	-27	-2154	1449
7829942	44	-2232	1553
7830270	43	-2361	1715
7830598	-28	-2430	1812
7830926	-114	-2525	1864
7831254	-178	-2514	1950
7831582	-150	-2429	2039
7831910	-73	-2287	2171
7832238	8	-2269	2346
7832566	79	-2350	2447
7832894	7	-2500	2587
7833222	70	-2548	2693
7833550	125	-2613	2764
7833878	158	-2816	2775
7834206	204	-3084	2780
7834534	292	-3416	2790
7834862	250	-3679	2805
7835190	315	-4208	2789
7835518	365	-4610	2845
7835846	368	-4954	2979
7836174	320	-4898	3137
7836502	261	-4952	3327
7836830	463	-5255	3320
7837158	935	-5494	3253
7837486	1422	-5204	3125
7837814	1976	-5264	3028
7838142	2447	-5397	2983
7838470	2799	-4978	2873
7838798	3098	-4090	2319
7839126	3428	-3375	2380
7839454	3533	-3108	1729
7839782	3835	-2096	697
7840110	4020	-2085	409
7840438	4963	-1469	356
7840766	6033	-595	593
7841094	7558	509	1525
7841422	8479	2680	1294
7841750	8086	2813	-967
7842078	7429	2568	-2980
7842406	4759	4509	-4999
7842734	1037	4084	-6574
7843062	-2366	2904	-7421
7843390	-4400	2893	-8192
7843718	-5353	3052	-9205
7844046	-5780	3275	-10178
7844374	-5469	4040	-11013
7844702	-5021	4509	-11330
7845030	-4570	5220	-11347
7845358	-4113	5532	-11202
7845686	-3750	5696	-11365
7846014	-3282	5555	-11468
7846342	-2789	5405	-11504
7846670	-2631	4967	-11190
7846998	-2832	4457	-11417
7847326	-3263	4236	-11640
7847654	-4010	4204	-11540
7847982	-4591	4299	-11299
7848310	-5182	4239	-10935
7848638	-5606	4261	-10591
7848966	-5740	4570	-10158
7849294	-5678	4749	-9635
7849622	-5736	5030	-9274
7849950	-5421	5197	-8291
7850278	-5176	5650	-7970
7850606	-4786	5493	-7426
7850934	-4236	5476	-6892
7851262	-3649	5578	-6511
7851590	-3098	5547	-6103
7851918	-2442	5582	-5622
7852246	-1852	5391	-5111
7852574	-1237	4624	-4621
7852902	-812	4311	-4194
7853230	-704	4248	-3898
7853558	-492	4163	-3645
7853886	-204	4276	-3150
7854214	-100	4348	-2649
7854542	-145	4438	-2094
7854870	-286	4590	-1498
7855198	-597	4675	-1021
7855526	-545	4688	-575
7855854	-295	4801	-281
7856182	110	4740	83
7856510	510	4599	431
7856838	1016	4611	848
7857166	1527	4417	1235
7857494	2099	4341	1622
7857822	2460	4063	1984
7858150	2843	3664	2318
7858478	3172	3248	2772
7858806	3563	2939	3115
7859134	3589	2765	3571
7859462	4072	2345	4264
7859790	4721	2098	5068
7860118	4674	1306	5794
7860446	4220	690	6517
7860774	3767	406	7049
7861102	4288	394	7515
7861430	4473	1086	7751
7861758	4990	1923	7463
7862086	6229	2360	6871
7862414	7590	2688	6397
7862742	8142	3159	5919
7863070	7829	3141	5525
7863398	7119	2661	5463
7863726	6640	2843	5271
7864054	6359	2873	5182
7864382	6053	2589	5161
7864710	5987	2606	5062
7865038	6008	2825	4873
7865366	5883	2824	4652
7865694	5517	2647	4456
7866022	4872	1342	4337
7866350	3357	-1578	3786
7866678	1940	-3234	2872
7867006	160	-3645	2326
7867334	-624	-4846	2313
7867662	-1628	-3751	2737
7867990	-2183	-2632	3156
7868318	-1795	-2072	3201
7868646	-613	-1495	3112
7868974	818	-1062	2703
7869302	1631	-1052	2265
7869630	1540	-1617	1899
7869958	1042	-1724	1675
7870286	492	-977	1778
7870614	424	-134	1823
7870942	344	104	1895
7871270	574	388	1910
7871598	981	546	1818
7871926	1507	504	1731
7872254	1924	206	1618
7872582	2112	177	1393
7872910	2140	183	1309
7873238	2037	143	1238
7873566	1422	-222	1291
7873894	1354	-153	1136
7874222	1270	221	1011
7874550	1225	85	888
7874878	1205	252	761
7875206	1270	420	574
7875534	1313	523	574
7875862	1463	448	505
7876190	1566	208	385
7876518	1689	438	285
7876846	1992	587	141
7877174	2118	348	44
7877502	2200	477	-49
7877830	2283	525	-122
7878158	2278	530	-222
7878486	2311	753	-326
7878814	2124	554	-363
7879142	2072	556	-457
7879470	2202	746	-530
7879798	2190	596	-610
7880126	2119	531	-662
7880454	2012	580	-747
7880782	1792	524	-760
7881110	1553	487	-860
7881438	1400	471	-961
7881766	1337	490	-1012
7882094	1330	544	-1088
7882422	1411	643	-1177
7882750	1562	771	-1207
7883078	1665	852	-1269
7883406	1721	986	-1380
7883734	1786	1192	-1429
7884062	1916	1316	-1425
7884390	1922	1359	-1402
7884718	1867	1524	-1436
7885046	1684	1720	-1465
7885374	1478	1920	-1680
7885702	1408	2378	-1683
7886030	1470	2756	-1689
7886358	1601	2855	-1668
7886686	1729	2904	-1757
7887014	2015	2884	-1853
7887342	2320	2620	-1647
7887670	2411	2559	-1721
7887998	2446	2434	-1707
7888326	2368	1927	-1726
7888654	2246	1696	-1726
7888982	2128	1667	-1709
7889310	2147	1065	-1704
7889638	2315	-548	-1572
7889966	2304	-1329	-1560
7890294	2179	-1323	-1639
7890622	1975	-1281	-1660
7890950	1669	-1634	-1632
7891278	1500	-2215	-1643
7891606	1251	-2203	-1685
7891934	1147	-1782	-1700
7892262	1007	-1770	-1726
7892590	701	-1443	-1661
7892918	492	-1191	-1631
7893246	251	-1244	-1565
7893574	227	-1024	-1566
7893902	441	-661	-1570
7894230	516	-565	-1489
7894558	506	-262	-1386
7894886	426	0	-1231
7895214	470	368	-1040
7895542	893	786	-961
7895870	1276	1130	-934
7896198	1646	1594	-872
7896526	1875	1927	-751
7896854	2019	2222	-649
7897182	2091	2481	-584
7897510	2165	2791	-552
7897838	2214	3148	-582
7898166	2166	3495	-575
7898494	2134	3831	-652
7898822	2105	3941	-747
7899150	2029	3803	-792
7899478	2017	3587	-778
7899806	1881	3121	-634
7900134	1743	2449	-523
7900462	1542	1839	-471
7900790	1357	1615	-445
7901118	1077	1319	-393
7901446	771	1156	-375
7901774	507	1087	-346
7902102	404	1128	-360
7902430	419	1184	-244
7902758	476	1160	-170
7903086	597	1080	-88
7903414	594	1028	-50
7903742	506	991	60
7904070	427	1029	155
7904398	484	1138	156
7904726	656	1174	151
7905054	890	1100	166
7905382	1048	1010	153
7905710	1061	945	237
7906038	897	746	164
7906366	661	663	183
7906694	411	683	252
7907022	199	628	248
7907350	157	653	253
7907678	120	624	207
7908006	239	598	222
7908334	298	608	242
7908662	309	633	271
7908990	360	639	341
7909318	315	640	385
7909646	385	684	381
7909974	437	697	383
7910302	363	568	384
7910630	305	492	357
7910958	204	382	343
7911286	36	338	311
7911614	-100	299	282
7911942	-234	251	215
7912270	-243	225	231
7912598	-219	188	273
7912926	-249	153	245
7913254	-242	101	184
7913582	-242	47	149
7913910	-303	36	122
7914238	-427	44	103
7914566	-484	61	114
7914894	-530	93	52
7915222	-508	76	33
7915550	-472	58	9
7915878	-410	111	-44
7916206	-306	149	-50
7916534	-209	114	-82
7916862	-161	118	-98
7917190	-162	97	-78
7917518	-234	80	-72
7917846	-290	112	-74
7918174	-265	144	-58
7918502	-242	90	-66
7918830	-217	94	-57
7919158	-222	37	-47
7919486	-281	-7	-22
7919814	-330	-5	-16
7920142	-316	-2	-12
7920470	-291	21	-8
7920798	-274	38	8
7921126	-248	32	9
7921454	-248	56	2
7921782	-213	73	11
7922110	-196	93	43
7922438	-203	87	11
7922766	-187	57	20
7923094	-221	0	25
7923422	-288	6	46
7923750	-286	5	61
7924078	-251	32	49
7924406	-200	13	51
7924734	-173	-60	68
7925062	-183	-131	102
7925390	-183	-166	136
7925718	-202	-172	134
7926046	-186	-114	113
7926374	-145	-154	107
7926702	-101	-185	116
7927030	-99	-218	139
7927358	-105	-281	123
7927686	-214	-372	95
7928014	-306	-423	63
7928342	-400	-500	69
7928670	-455	-522	44
7928998	-466	-618	41
7929326	-389	-741	29
7929654	-289	-784	-15
7929982	-158	-752	-48
7930310	-62	-664	-107
7930638	91	-638	-131
7930966	244	-627	-191
7931294	401	-616	-231
7931622	518	-631	-258
7931950	604	-684	-282
7932278	660	-755	-298
7932606	720	-792	-298
7932934	686	-817	-303
7933262	704	-811	-346
7933590	790	-778	-365
7933918	901	-778	-357
7934246	1037	-847	-338
7934574	1204	-840	-321
7934902	1342	-834	-336
7935230	1474	-824	-352
7935558	1615	-784	-350
7935886	1787	-771	-450
7936214	2013	-663	-502
7936542	2165	-510	-484
7936870	2442	-381	-507
7937198	2803	-102	-603
7937526	3208	184	-655
7937854	3653	512	-652
7938182	4165	969	-607
7938510	4814	1272	-691
7938838	5380	1832	-666
7939166	6160	1857	-664
7939494	6746	1750	-568
7939822	7443	2686	-485
7940150	7410	2908	-509
7940478	7403	4021	-430
7940806	7387	4822	-372
7941134	7097	4972	-152
7941462	6747	5387	143
7941790	6414	5439	571
7942118	6040	5643	1071
7942446	5645	6181	1270
7942774	5252	6655	1356
7943102	4754	7493	1525
7943430	4200	8063	1561
7943758	3964	8204	1609
7944086	3791	8499	1669
7944414	3684	8936	1955
7944742	3910	8923	2296
7945070	3813	8552	2577
7945398	3791	8645	2810
7945726	3671	8425	2859
7946054	3817	8274	2835
7946382	4168	8412	2889
7946710	4571	8363	2758
7947038	4625	7925	2576
7947366	4142	7306	2315
7947694	3439	6928	2067
7948022	2509	6658	1826
7948350	1465	6150	1672
7948678	365	5692	1645
7949006	-616	5264	1665
7949334	-1167	4777	1608
7949662	-1472	4517	1481
7949990	-1696	4116	1260
7950318	-1692	3775	1162
7950646	-1821	3063	1219
7950974	-1398	1662	1428
7951302	-1473	-743	1835
7951630	-2034	-2792	2302
7951958	-2917	-3064	2760
7952286	-3940	-3044	2919
7952614	-4468	-2530	2376
7952942	-4964	-1430	1081
7953270	-5341	-560	231
7953598	-4997	-319	-640
7953926	-3955	-616	-598
7954254	-2219	-114	146
7954582	-496	894	1575
7954910	393	1574	2557
7955238	606	1180	2451
7955566	489	952	1690
7955894	118	709	737
7956222	-273	302	367
7956550	-370	-140	318
7956878	-310	-77	588
7957206	-623	-90	1058
7957534	-1294	-161	1308
7957862	-2038	-85	1300
7958190	-2421	-28	1074
7958518	-2460	-69	888
7958846	-2278	-46	650
7959174	-1967	-34	625
7959502	-1769	-201	646
7959830	-1564	-257	729
7960158	-1513	-133	686
7960486	-1485	30	512
7960814	-1346	-1	452
7961142	-1214	100	455
7961470	-1115	42	478
7961798	-992	-340	566
7962126	-999	-330	454
7962454	-1017	-90	368
7962782	-967	12	334
7963110	-819	172	302
7963438	-743	122	313
7963766	-789	-542	289
7964094	-730	-276	242
7964422	-549	146	285
7964750	-438	136	222
7965078	-441	416	254
7965406	-370	577	265
7965734	-239	654	253
7966062	-174	718	299
7966390	-104	675	287
7966718	-81	666	318
7967046	-248	684	220
7967374	-419	473	125
7967702	-72	305	-23
7968030	239	489	38
7968358	311	1014	305
7968686	169	591	312
7969014	277	112	270
7969342	396	-82	198
7969670	473	-179	155
7969998	411	-275	211
7970326	292	-388	218
7970654	176	-401	210
7970982	170	-415	159
7971310	217	-288	132
7971638	267	-373	153
7971966	398	-189	161
7972294	459	-215	151
7972622	519	-193	104
7972950	604	-137	120
7973278	615	-173	115
7973606	540	-198	117
7973934	440	-296	137
7974262	321	-265	133
7974590	226	-237	107
7974918	145	-283	147
7975246	87	-301	142
7975574	110	-305	170
7975902	82	-284	142
7976230	42	-298	130
7976558	5	-346	139
7976886	-45	-368	153
7977214	-98	-356	175
7977542	-116	-365	149
7977870	-188	-464	163
7978198	-214	-519	168
7978526	-244	-462	186
7978854	-260	-475	167
7979182	-307	-458	163
7979510	-335	-518	160
7979838	-353	-687	144
7980166	-394	-979	117
7980494	-462	-1081	93
7980822	-420	-943	145
7981150	-522	-826	181
7981478	-563	-1015	34
7981806	-536	-880	53
7982134	-476	-783	-21
7982462	-510	-665	-11
7982790	-449	-744	-6
7983118	-501	-683	-32
7983446	-510	-626	-52
7983774	-522	-569	-61
7984102	-456	-507	-85
7984430	-410	-485	-105
7984758	-343	-473	-79
7985086	-287	-504	-73
7985414	-215	-434	-59
7985742	-188	-364	-82
7986070	-145	-325	-72
7986398	-100	-274	-75
7986726	-46	-240	-67
7987054	-14	-233	-116
7987382	-12	-190	-68
7987710	25	-173	-71
7988038	52	-131	-88
7988366	74	-135	-60
7988694	95	-173	-66
7989022	68	-125	-69
7989350	25	-144	-45
7989678	52	-103	-32
7990006	53	-129	-39
7990334	57	-85	-48
7990662	68	-97	-40
7990990	57	-75	-53
7991318	42	-53	-56
7991646	21	-27	-26
7991974	3	-79	-10
7992302	-35	-50	-13
7992630	-54	-37	-31
7992958	-63	-11	-52
7993286	-83	-28	-41
7993614	-73	-29	-25
7993942	-75	7	-22
7994270	-108	48	-23
7994598	-104	90	-25
7994926	-75	65	-17
7995254	-61	82	-32
7995582	-61	109	-25
7995910	-41	122	-35
7996238	-41	131	10
7996566	-70	133	3
7996894	-69	163	-9
7997222	-59	151	-14
7997550	-35	82	-14
7997878	-24	102	5
7998206	-6	92	5
7998534	17	119	-14
7998862	24	121	-16
7999190	42	110	-5
7999518	-11	110	13
7999846	-26	135	9
8000174	-50	180	-2
8000502	-42	154	0
8000830	-9	143	27
8001158	-8	143	-2
8001486	-29	170	9
8001814	-21	130	14
8002142	37	113	-17
8002470	-26	115	-5
8002798	-76	56	7
8003126	-124	129	35
8003454	-164	56	-15
8003782	-164	85	22
8004110	-231	65	-25
8004438	-300	108	-10
8004766	-252	101	-26
8005094	-224	126	-72
8005422	-282	184	-37
8005750	-290	143	-29
8006078	-257	153	-49
8006406	-295	135	-31
8006734	-302	93	-49
8007062	-306	124	-49
8007390	-305	119	-43
8007718	-274	134	-68
8008046	-278	117	-76
8008374	-260	127	-74
8008702	-262	95	-55
8009030	-254	97	-29
8009358	-259	120	-47
8009686	-262	164	-43
8010014	-245	163	-16
8010342	-222	140	-21
8010670	-194	159	-20
8010998	-190	149	-30
8011326	-168	177	-37
8011654	-131	203	-33
8011982	-93	209	-49
8012310	-80	235	-75
8012638	-70	209	-51
8012966	-76	230	-51
8013294	-58	253	-53
8013622	-35	267	-66
8013950	-11	322	-42
8014278	37	342	-68
8014606	27	371	-66
8014934	15	385	-62
8015262	16	422	-47
8015590	8	413	-23
8015918	0	388	-25
8016246	35	412	-24
8016574	62	427	-30
8016902	104	438	-27
8017230	124	416	-42
8017558	111	389	-33
8017886	109	388	-39
8018214	59	360	-37
8018542	24	337	-22
8018870	-10	317	-36
8019198	-24	286	-35
8019526	-5	247	-39
8019854	-19	234	-37
8020182	-6	225	-53
8020510	-25	207	-57
8020838	-32	203	-55
8021166	-61	181	-53
8021494	-59	193	-62
8021822	-71	207	-69
8022150	-77	195	-81
8022478	-85	182	-83
8022806	-102	179	-91
8023134	-128	189	-77
8023462	-131	183	-71
8023790	-101	183	-73
8024118	-74	195	-87
8024446	-71	194	-89
8024774	-69	189	-77
8025102	-80	196	-84
8025430	-69	195	-77
8025758	-58	201	-68
8026086	-48	204	-53
8026414	-33	217	-65
8026742	27	187	-59
8027070	46	177	-23
8027398	59	221	-34
8027726	69	203	-23
8028054	72	203	-16
8028382	88	200	-7
8028710	62	194	-10
8029038	84	200	-13
8029366	89	203	-31
8029694	93	205	-50
8030022	92	198	-44
8030350	72	160	-43
8030678	18	154	-36
8031006	-21	166	-54
8031334	-45	181	-67
8031662	-21	142	-74
8031990	-33	187	-83
8032318	-70	138	-76
8032646	-73	140	-80
8032974	-106	157	-83
8033302	-122	124	-80
8033630	-129	134	-75
8033958	-137	124	-72
8034286	-131	119	-86
8034614	-151	115	-84
8034942	-139	118	-91
8035270	-126	123	-75
8035598	-125	119	-93
8035926	-121	120	-92
8036254	-121	108	-85
8036582	-152	109	-89
8036910	-176	85	-84
8037238	-181	82	-68
8037566	-193	91	-74
8037894	-194	83	-82
8038222	-188	80	-91
8038550	-192	86	-86
8038878	-177	87	-89
8039206	-166	74	-72
8039534	-146	70	-78
8039862	-122	81	-77
8040190	-134	91	-73
8040518	-120	81	-78
8040846	-124	93	-76
8041174	-141	88	-72
8041502	-115	88	-61
8041830	-99	92	-62
8042158	-97	83	-54
8042486	-79	71	-64
8042814	-96	70	-58
8043142	-92	65	-60
8043470	-95	86	-66
8043798	-88	101	-83
8044126	-82	94	-78
8044454	-79	100	-95
8044782	-115	98	-79
8045110	-132	80	-75
8045438	-152	101	-87
8045766	-161	110	-66
8046094	-148	101	-77
8046422	-160	106	-62
8046750	-128	106	-68
8047078	-132	102	-65
8047406	-146	98	-65
8047734	-165	-231	-25
8048062	-393	-1315	-61
8048390	-425	-866	-61
8048718	-339	-449	-5
8049046	-447	-315	-48
8049374	-512	-130	-60
8049702	-431	-48	-73
8050030	-388	5	-104
8050358	-335	121	-88
8050686	-356	124	-131
8051014	-369	97	-111
8051342	-408	51	-81
8051670	-410	-101	-80
8051998	-413	-79	-114
8052326	-346	-98	-178
8052654	-310	-200	-171
8052982	-260	-55	-192
8053310	-196	15	-248
8053638	-63	94	-251
8053966	76	205	-279
8054294	156	287	-308
8054622	290	370	-248
8054950	354	427	-234
8055278	357	293	-195
8055606	325	313	-222
8055934	192	331	-273
8056262	93	262	-243
8056590	50	311	-202
8056918	37	402	-204
8057246	94	411	-219
8057574	159	409	-208
8057902	181	445	-187
8058230	155	442	-176
8058558	110	442	-173
8058886	24	427	-167
8059214	-85	372	-178
8059542	-87	328	-158
8059870	-127	283	-148
8060198	-119	247	-137
8060526	-202	98	-138
8060854	-287	-58	-122
8061182	-276	-273	-57
8061510	-460	-976	-69
8061838	-392	-315	-74
8062166	-465	-696	-91
8062494	-505	-754	-73
8062822	-483	-346	-126
8063150	-537	-332	-191
8063478	-497	-133	-166
8063806	-592	-183	-162
8064134	-629	-207	-172
8064462	-586	-117	-198
8064790	-517	0	-267
8065118	-426	10	-309
8065446	-414	-69	-305
8065774	-456	-170	-351
8066102	-527	-214	-392
8066430	-517	-161	-463
8066758	-526	-110	-553
8067086	-419	-102	-657
8067414	-314	-1	-793
8067742	-226	179	-1001
8068070	-128	252	-1188
8068398	-101	206	-1347
8068726	-55	129	-1519
8069054	-586	-91	-1538
8069382	-968	-136	-1569
8069710	-783	145	-1833
8070038	-434	471	-2173
8070366	-32	946	-2750
8070694	343	1416	-3066
8071022	593	1766	-3391
8071350	795	1944	-3668
8071678	688	2156	-3537
8072006	154	2077	-3279
8072334	-694	1836	-2976
8072662	-870	1693	-2971
8072990	-905	1733	-2775
8073318	-1223	1064	-2734
8073646	-1603	596	-2919
8073974	-2541	-10	-3043
8074302	-3429	-595	-3286
8074630	-3808	-806	-3374
8074958	-3727	-466	-2471
8075286	-2896	253	-1217
8075614	-1361	1213	460
8075942	423	2902	2349
8076270	1683	5755	3183
8076598	2636	5951	1973
8076926	3975	4653	1223
8077254	4633	3003	1748
8077582	4006	3295	1875
8077910	4160	2379	2697
8078238	3784	1203	3121
8078566	3240	-511	2605
8078894	2684	-3044	1914
8079222	2463	-4281	1501
8079550	2081	-1390	1665
8079878	2266	-1845	1701
8080206	2363	-3387	3285
8080534	2567	-4081	3697
8080862	1962	-6168	2988
8081190	1350	-5731	1709
8081518	-557	-2109	1704
8081846	-1152	-943	787
8082174	-1377	-2368	1020
8082502	-1581	-2283	1880
8082830	-2743	-2166	2328
8083158	-3283	-2015	2429
8083486	-3711	-2502	3109
8083814	-3709	-2429	3030
8084142	-3184	-1810	2848
8084470	-2305	-1721	2875
8084798	-1299	-1250	2818
8085126	-563	-452	2508
8085454	244	43	2262
8085782	699	38	2193
8086110	891	-133	1960
8086438	696	-88	1669
8086766	326	-38	1152
8087094	-86	-520	778
8087422	-706	-585	386
8087750	-1064	-481	-54
8088078	-1437	-158	-553
8088406	-1868	136	-1232
8088734	-2153	1473	-2188
8089062	-6037	6847	-2174
8089390	-7422	10792	-7023
8089718	-7559	7568	-5666
8090046	-4452	37	-1160
8090374	-960	-8246	-1725
8090702	-2403	-2775	-2308
8091030	-3140	3145	-2027
8091358	-6025	1200	-756
8091686	14082	2032	3408
8092014	-3649	2306	-6579
8092342	-463	-8506	-4388
8092670	-3290	-2413	-3410
8092998	-4455	4798	-2081
8093326	-3602	5133	-428
8093654	283	-2467	-672
8093982	7020	415	-1346
8094310	5136	-3675	705
8094638	2129	-7929	6279
8094966	-2586	-1207	4807
8095294	-4941	4466	1218
8095622	-5161	2895	14
8095950	-1804	-1436	454
8096278	356	-3439	960
8096606	1698	-1421	1337
8096934	2213	851	221
8097262	2808	1854	1233
8097590	1824	1841	806
8097918	1895	1832	-536
8098246	798	839	735
8098574	-449	-644	567
8098902	-382	236	219
8099230	-1020	475	387
8099558	-1096	-38	352
8099886	-1045	46	278
8100214	-911	-171	239
8100542	-691	-249	180
8100870	-506	-30	77
8101198	-160	76	-220
8101526	137	96	-332
8101854	496	126	-40
8102182	608	47	167
8102510	730	60	32
8102838	780	144	314
8103166	778	-171	112
8103494	724	172	356
8103822	643	-100	427
8104150	313	-121	357
8104478	237	-64	182
8104806	-222	-125	286
8105134	-333	-583	387
8105462	-395	-332	450
8105790	-469	-246	413
8106118	-432	-8	290
8106446	-365	103	208
8106774	-249	243	201
8107102	-75	265	211
8107430	28	395	235
8107758	208	321	120
8108086	266	546	87
8108414	264	447	12
8108742	283	434	-28
8109070	343	365	-5
8109398	396	296	18
8109726	388	277	33
8110054	426	212	5
8110382	281	125	41
8110710	281	125	41
8111038	225	-112	3
8111366	97	23	46
8111694	-7	22	38
8112022	-106	36	-6
8112350	-233	27	-1
8112678	-367	-18	2
8113006	-479	38	-1
8113334	-520	33	12
8113662	-514	78	5
8113990	-439	146	-16
8114318	-334	120	6
8114646	-296	137	2
8114974	-291	106	-22
8115302	-297	91	23
8115630	-246	99	20
8115958	-202	83	-8
8116286	-151	84	-37
8116614	-89	86	-35
8116942	-51	53	-18
8117270	-50	-58	6
8117598	-51	-48	11
8117926	-66	25	-19
8118254	-77	39	-23
8118582	-100	81	-34
8118910	-90	60	-16
8119238	-84	59	9
8119566	-68	68	-7
8119894	-41	69	4
8120222	-55	121	12
8120550	-38	126	-24
8120878	-14	118	0
8121206	-39	122	-2
8121534	-36	132	2
8121862	-61	131	8
8122190	-83	96	27
8122518	-16	83	20
8122846	-23	48	39
8123174	-138	132	16
8123502	-87	22	61
8123830	-64	81	44
8124158	-47	75	42
8124486	-83	74	54
8124814	-77	73	74
8125142	-92	66	50
8125470	-96	120	38
8125798	-73	40	55
8126126	-48	76	34
8126454	-64	85	37
8126782	-97	90	30
8127110	-107	103	40
8127438	-138	79	25
8127766	-145	100	26
8128094	-141	57	25
8128422	-139	78	-7
8128750	-155	91	23
8129078	-107	37	48
8129406	-114	56	9
8129734	-158	75	-16
8130062	-147	35	14
8130390	-158	50	-7
8130718	-195	17	-23
8131046	-199	33	-1
8131374	-183	39	29
8131702	-160	23	45
8132030	-128	38	28
8132358	-89	26	0
8132686	-90	67	-1
8133014	-65	45	16
8133342	-74	46	3
8133670	-57	51	-9
8133998	-70	35	11
8134326	-92	48	-7
8134654	-95	40	3
8134982	-84	42	12
8135310	-36	68	-3
8135638	-8	79	-27
8135966	20	82	-39
8136294	24	70	-17
8136622	14	51	-26
8136950	-10	41	-9
8137278	-28	58	-22
8137606	-1	63	-38
8137934	-15	89	-26
8138262	-26	67	-42
8138590	-28	64	-16
8138918	-48	67	-7
8139246	-61	61	-7
8139574	-26	85	-9
8139902	-27	80	-31
8140230	-26	90	-24
8140558	-4	64	4
8140886	-26	73	3
8141214	-58	78	-11
8141542	-72	16	16
8141870	-43	38	16
8142198	-36	48	7
8142526	-46	50	-7
8142854	-29	50	3
8143182	-23	59	-13
8143510	-25	62	-17
8143838	-1	77	-39
8144166	-26	70	-27
8144494	-46	59	-14
8144822	-55	86	-28
8145150	-88	89	-23
8145478	-30	55	-16
8145806	2	65	-38
8146134	5	73	-39
8146462	-1	115	-64
8146790	13	81	-58
8147118	-12	89	-48
8147446	20	88	-30
8147774	-33	101	-91
8148102	-41	85	-76
8148430	-14	120	-30
8148758	-1	84	-39
8149086	19	100	-67
8149414	-41	118	-45
8149742	-73	59	-52
8150070	-106	96	-40
8150398	-100	86	-27
8150726	-82	66	-37
8151054	-106	80	-44
8151382	-117	74	-44
8151710	-106	49	-57
8152038	-101	61	-54
8152366	-88	60	-43
8152694	-85	66	-68
8153022	-106	81	-79
8153350	-92	90	-73
8153678	-78	106	-65
8154006	-85	87	-66
8154334	-62	87	-80
8154662	-74	87	-71
8154990	-94	92	-83
8155318	-128	84	-100
8155646	-117	94	-67
8155974	-78	81	-77
8156302	-85	90	-83
8156630	-85	69	-53
8156958	-71	112	-63
8157286	-62	99	-74
8157614	-57	95	-72
8157942	-66	73	-68
8158270	-69	105	-75
8158598	-92	86	-60
8158926	-93	96	-63
8159254	-97	101	-47
8159582	-97	97	-49
8159910	-103	89	-39
8160238	-74	84	-45
8160566	-65	100	-44
8160894	-61	101	-55
8161222	-53	110	-58
8161550	-53	121	-56
8161878	-56	125	-63
8162206	-90	123	-59
8162534	-80	118	-47
8162862	-102	118	-46
8163190	-71	119	-35
8163518	-70	107	-45
8163846	-49	108	-55
8164174	-45	126	-62
8164502	-77	103	-33
8164830	-111	126	-14
8165158	-111	114	-14
8165486	-115	121	-33
8165814	-87	118	-32
8166142	-75	114	-28
8166470	-93	125	-32
8166798	-98	116	-24
8167126	-86	128	-17
8167454	-76	125	-18
8167782	-103	124	-37
8168110	-91	121	-29
8168438	-73	118	-25
8168766	-89	121	-18
8169094	-99	131	-46
8169422	-79	138	-34
8169750	-63	132	0
8170078	-88	145	-99
8170406	-59	127	-34
8170734	-67	115	2
8171062	-90	125	-29
8171390	-105	130	-13
8171718	-77	126	-13
8172046	-67	159	-47
8172374	-43	161	-52
8172702	-22	150	-43
8173030	-27	121	-53
8173358	-51	151	-38
8173686	-60	131	-42
8174014	-79	138	-37
8174342	-68	149	-33
8174670	-40	138	-38
8174998	-25	130	-35
8175326	-13	140	-37
8175654	-19	155	-24
8175982	-32	144	-16
8176310	-59	109	-11
8176638	-88	130	-32
8176966	-90	146	-21
8177294	-91	129	-26
8177622	-45	156	-26
8177950	-45	152	-40
8178278	-43	124	-35
8178606	-71	152	-15
8178934	-72	143	-21
8179262	-73	150	-13
8179590	-57	137	-6
8179918	-38	144	-35
8180246	-27	147	-33
8180574	-17	149	-15
8180902	-8	139	-9
8181230	-17	135	-14
8181558	-22	147	-11
8181886	-22	146	5
8182214	-21	156	-10
8182542	-30	140	-9
8182870	-22	140	-21
8183198	-28	133	-6
8183526	-54	144	-21
8183854	-59	147	-21
8184182	-64	145	-11
8184510	-59	145	-14
8184838	-56	153	-26
8185166	-69	141	-22
8185494	-67	147	-19
8185822	-94	136	-15
8186150	-95	147	-17
8186478	-100	144	-11
8186806	-117	99	-14
8187134	-161	58	-19
8187462	-157	32	-4
8187790	-187	56	-17
8188118	-190	35	-17
8188446	-173	82	-28
8188774	-161	106	-31
8189102	-144	105	-37
8189430	-160	139	-43
8189758	-142	156	-52
8190086	-148	150	-52
8190414	-145	163	-45
8190742	-153	161	-47
8191070	-140	154	-33
8191398	-118	173	-29
8191726	-104	160	-35
8192054	-85	151	-45
8192382	-76	155	-41
8192710	-66	151	-34
8193038	-63	159	-40
8193366	-53	188	-32
8193694	-72	174	-47
8194022	-76	146	-31
8194350	-102	148	-30
8194678	-104	149	-16
8195006	-118	142	-30
8195334	-97	152	-5
8195662	-76	142	-23
8195990	-72	152	-16
8196318	-46	142	-23
8196646	-43	137	-15
8196974	-59	137	-17
8197302	-78	133	-27
8197630	-83	137	-19
8197958	-82	144	-22
8198286	-64	148	-24
8198614	-62	145	-37
8198942	-60	145	-28
8199270	-58	137	-24
8199598	-64	137	-21
8199926	-62	140	-16
8200254	-45	134	-22
8200582	-66	144	-28
8200910	-55	140	-20
8201238	-52	123	-23
8201566	-53	138	-30
8201894	-52	126	-26
8202222	-71	143	-13
8202550	-67	147	-20
8202878	-76	130	-38
8203206	-69	140	-24
8203534	-85	152	-21
8203862	-91	129	-24
8204190	-85	141	-42
8204518	-83	154	-46
8204846	-78	139	-42
8205174	-100	127	-40
8205502	-86	133	-31
8205830	-90	135	-41
8206158	-50	138	-42
8206486	-52	154	-48
8206814	-48	124	-41
8207142	-72	123	-32
8207470	-88	119	-28
8207798	-89	126	-20
8208126	-92	121	-33
8208454	-83	128	-48
8208782	-95	113	-49
8209110	-107	115	-37
8209438	-97	119	-54
8209766	-101	131	-52
8210094	-97	124	-62
8210422	-87	125	-50
8210750	-88	140	-61
8211078	-66	120	-50
8211406	-58	158	-56
8211734	-35	148	-58
8212062	-31	141	-53
8212390	-25	153	-64
8212718	-13	156	-47
8213046	-4	168	-57
8213374	5	169	-58
8213702	-5	155	-49
8214030	-39	151	-61
8214358	-61	153	-45
8214686	-100	160	-36
8215014	-78	149	-37
8215342	-112	155	-39
8215670	-109	159	-34
8215998	-125	144	-35
8216326	-105	147	-31
8216654	-112	144	-36
8216982	-118	143	-30
8217310	-101	143	-51
8217638	-104	124	-28
8217966	-123	136	-26
8218294	-102	102	-12
8218622	-91	139	-19
8218950	-100	116	-31
8219278	-111	120	-8
8219606	-101	142	-24
8219934	-102	116	-11
8220262	-101	120	-23
8220590	-113	98	-2
8220918	-117	120	-9
8221246	-98	100	8
8221574	-87	127	-4
8221902	-64	118	-12
8222230	-59	118	-11
8222558	-68	107	-4
8222886	-68	119	2
8223214	-76	135	-7
8223542	-75	126	-3
8223870	-90	133	-8
8224198	-79	116	-11
8224526	-59	131	-10
8224854	-48	129	-24
8225182	-52	145	-18
8225510	-53	119	-13
8225838	-58	128	-22
8226166	-72	117	-14
8226494	-93	118	-7
8226822	-81	131	4
8227150	-42	135	-4
8227478	-28	132	-15
8227806	-38	120	-18
8228134	-53	114	-14
8228462	-95	106	-5
8228790	-96	112	0
8229118	-109	118	-4
8229446	-83	114	-24
8229774	-61	128	-21
8230102	-53	124	-29
8230430	-56	128	-22
8230758	-79	114	-9
8231086	-71	127	-14
8231414	-58	132	-14
8231742	-66	122	-16
8232070	-55	115	-20
8232398	-54	119	-19
8232726	-73	126	-15
8233054	-87	119	-13
8233382	-93	114	-8
8233710	-108	130	-21
8234038	-107	113	-12
8234366	-94	122	-17
8234694	-97	133	-21
8235022	-114	114	-30
8235350	-92	138	-19
8235678	-95	119	-26
8236006	-107	132	-8
8236334	-89	112	-8
8236662	-83	119	-5
8236990	-75	109	-22
8237318	-49	132	-8
8237646	-44	114	-8
8237974	-54	129	-10
8238302	-69	119	-3
8238630	-76	122	-11
8238958	-87	130	1
8239286	-71	125	-9
8239614	-72	127	2
8239942	-46	135	-7
8240270	-39	147	-5
8240598	-41	137	-16
8240926	-50	136	-17
8241254	-63	126	0
8241582	-66	123	-9
8241910	-80	132	11
8242238	-74	134	-6
8242566	-53	132	-1
8242894	-45	128	-15
8243222	-46	138	-13
8243550	-44	131	-3
8243878	-34	141	5
8244206	-56	105	0
8244534	-73	131	-9
8244862	-87	103	-5
8245190	-101	119	-6
8245518	-108	117	-4
8245846	-85	109	1
8246174	-89	108	3
8246502	-77	102	7
8246830	-74	105	13
8247158	-95	105	4
8247486	-104	90	4
8247814	-115	88	11
8248142	-102	91	28
8248470	-83	81	17
8248798	-77	91	22
8249126	-40	50	41
8249454	-111	-57	44
8249782	-134	-114	46
8250110	-162	-279	55
8250438	-157	-223	59
8250766	-172	-115	35
8251094	-173	-102	40
8251422	-166	-37	33
8251750	-160	-30	17
8252078	-174	5	24
8252406	-153	34	10
8252734	-170	24	29
8253062	-183	58	25
8253390	-159	5	33
8253718	-156	-70	10
8254046	-158	-60	19
8254374	-154	-27	23
8254702	-155	-22	14
8255030	-114	21	7
8255358	-89	57	-19
8255686	-68	77	-6
8256014	-80	108	-21
8256342	-80	130	-13
8256670	-74	149	-11
8256998	-75	154	3
8257326	-69	166	-10
8257654	-48	209	-12
8257982	-47	201	-15
8258310	-38	204	-12
8258638	-29	219	-18
8258966	-47	238	-12
8259294	-42	244	-22
8259622	-48	249	-12
8259950	-17	224	6
8260278	-55	220	-5
8260606	-43	195	-6
8260934	-8	177	2
8261262	-43	151	-4
8261590	-58	56	0
8261918	-50	105	12
8262246	-39	95	8
8262574	-52	50	12
8262902	-84	6	7
8263230	-120	6	8
8263558	-100	2	18
8263886	-132	0	-3
8264214	-146	11	-7
8264542	-125	15	4
8264870	-153	53	5
8265198	-135	40	6
8265526	-150	10	9
8265854	-180	-59	-3
8266182	-181	2	-2
8266510	-191	-36	-4
8266838	-190	-26	-17
8267166	-188	9	-13
8267494	-187	16	-27
8267822	-167	55	-22
8268150	-163	78	-24
8268478	-162	90	-36
8268806	-114	73	-9
8269134	-105	60	-14
8269462	-93	54	-36
8269790	-75	93	-2
8270118	-65	98	-10
8270446	-48	116	3
8270774	-31	120	9
8271102	-55	125	2
8271430	-71	93	-5
8271758	-103	103	-8
